"Time (s)"	"Acceleration x (m/s^2)"	"Acceleration y (m/s^2)"	"Acceleration z (m/s^2)"
8.142423000E-3	1.833958507E0	3.311181068E0	7.520187378E0
1.097039500E-2	1.826775908E0	3.318363667E0	7.592013359E0
1.223400000E-2	1.841141105E0	3.299209833E0	7.685387611E0
1.506027900E-2	1.855506301E0	3.256114244E0	7.790732384E0
1.635973100E-2	1.867477298E0	3.184288263E0	7.922413349E0
1.914993300E-2	1.910573006E0	3.090914488E0	8.109161377E0
2.057165400E-2	1.968033791E0	2.999934673E0	8.341399193E0
2.323935600E-2	2.006340981E0	2.942473888E0	8.578424454E0
2.482184600E-2	2.027888775E0	2.935291290E0	8.779537201E0
2.732243300E-2	2.044648170E0	2.956839085E0	8.920795441E0
2.852876900E-2	2.051830769E0	2.992752075E0	9.016563416E0
3.138370200E-2	2.054224968E0	3.047818661E0	9.088389397E0
3.295850000E-2	2.032677174E0	3.112462282E0	9.157821655E0
3.541274100E-2	1.987187386E0	3.179499865E0	9.236829758E0
3.662834600E-2	1.934514999E0	3.244143248E0	9.320627213E0
3.946889400E-2	1.900996208E0	3.294421434E0	9.404424667E0
4.105507700E-2	1.896207690E0	3.332728863E0	9.466673851E0
4.336807700E-2	1.920149803E0	3.363853455E0	9.516951561E0
4.478100000E-2	1.963245392E0	3.399766445E0	9.538499832E0
4.758566400E-2	2.003946781E0	3.450044632E0	9.507374763E0
4.922238500E-2	2.023100376E0	3.524264812E0	9.344569206E0
5.161231700E-2	2.025494576E0	3.538630009E0	9.258378029E0
5.283073100E-2	2.032677174E0	3.548206806E0	9.052476883E0
5.566758700E-2	2.049436569E0	3.545812607E0	8.796297073E0
5.730476900E-2	2.059013367E0	3.514688015E0	8.358158112E0
5.972847100E-2	2.054224968E0	3.493140221E0	8.221688271E0
6.094711500E-2	2.047042370E0	3.428496838E0	7.989450932E0
6.378320200E-2	2.059013367E0	3.335123062E0	7.817068577E0
6.538238500E-2	2.111685991E0	3.153163671E0	7.697358608E0
6.784477900E-2	2.133233786E0	3.090914488E0	7.692570210E0
6.905519200E-2	2.193088770E0	2.959233284E0	7.735665798E0
7.189997100E-2	2.329558372E0	2.758120298E0	7.881711960E0
7.351242300E-2	2.434903145E0	2.650381327E0	7.977479935E0
7.597720200E-2	2.535459518E0	2.573766708E0	8.054094315E0
7.719938500E-2	2.609679937E0	2.518700123E0	8.104372978E0
8.003216300E-2	2.655169725E0	2.451662540E0	8.135497093E0
8.162461500E-2	2.712630510E0	2.396595955E0	8.149862289E0
8.401350000E-2	2.810792685E0	2.353500366E0	8.147468567E0
8.531265400E-2	2.853888512E0	2.319981337E0	8.142680168E0
8.814874000E-2	2.748543501E0	2.288856745E0	8.166622162E0
8.950126900E-2	2.545036316E0	2.257732153E0	8.226476669E0
9.225839400E-2	2.329558372E0	2.202665567E0	8.324639320E0
9.352138500E-2	2.140416384E0	2.142810583E0	8.444349289E0
9.634885600E-2	1.980004787E0	2.109291792E0	8.568847656E0
9.799273100E-2	1.889025092E0	2.094926596E0	8.669404030E0
1.004250860E-1	1.881842494E0	2.066195965E0	8.736441612E0
1.016450770E-1	1.958456993E0	2.035071373E0	8.798690796E0
1.044805860E-1	2.111685991E0	1.991975784E0	8.848969460E0
1.061381150E-1	2.331952572E0	1.951274395E0	8.892065048E0
1.085425480E-1	2.568978310E0	1.929726601E0	8.913613319E0
1.097596920E-1	2.794033289E0	1.920149803E0	8.935160637E0
1.125976630E-1	3.009511471E0	1.922544003E0	8.956708908E0
1.141892310E-1	3.239354849E0	1.951274395E0	8.951920509E0
1.166277400E-1	3.284844637E0	1.970427990E0	8.942343712E0
1.178480390E-1	3.335123062E0	2.008735180E0	8.932766914E0
1.206837020E-1	3.318363667E0	2.059013367E0	8.939949036E0
1.223703850E-1	3.184288263E0	2.169146776E0	8.954314232E0
1.246100000E-1	3.114856482E0	2.205059767E0	8.959102631E0
1.259943850E-1	2.954444885E0	2.255337954E0	8.971074104E0
1.288152020E-1	2.789244890E0	2.300827742E0	8.983044624E0
1.303915390E-1	2.583343744E0	2.379836559E0	9.004592896E0
1.328572790E-1	2.489969730E0	2.425326347E0	9.018958092E0
1.340858460E-1	2.444479942E0	2.466027737E0	9.042900085E0
1.369125860E-1	2.442085743E0	2.501940727E0	9.076418877E0
1.385170000E-1	2.461239338E0	2.535459518E0	9.124302864E0
1.409740480E-1	2.513911724E0	2.568978310E0	9.198522568E0
1.422000000E-1	2.602497339E0	2.612074137E0	9.291896820E0
1.450298940E-1	2.712630510E0	2.667140722E0	9.380482674E0
1.466365000E-1	2.808398485E0	2.736572504E0	9.464279175E0
1.491082400E-1	2.853888512E0	2.803610086E0	9.564835548E0
1.503308850E-1	2.849100113E0	2.873042107E0	9.648633003E0
1.531694320E-1	2.815581083E0	2.954444885E0	9.708487511E0
1.547541920E-1	2.758120298E0	3.033453465E0	9.679757118E0
1.571985480E-1	2.669534922E0	3.098097086E0	9.471462250E0
1.584118850E-1	2.542642117E0	3.145981073E0	9.198522568E0
1.612545480E-1	2.398990154E0	3.186682463E0	8.966285706E0
1.630640770E-1	2.310404539E0	3.248931646E0	8.829815865E0
1.652907690E-1	2.308010340E0	3.325546265E0	8.827422142E0
1.666421150E-1	2.336740971E0	3.294421434E0	8.757989883E0
1.693725090E-1	2.331952572E0	3.131615877E0	8.540117264E0
1.707500380E-1	2.442085743E0	2.887407303E0	8.183381081E0
1.734950860E-1	2.363077164E0	2.667140722E0	7.838616371E0
1.748095770E-1	1.958456993E0	2.506729126E0	7.659051418E0
1.775857400E-1	1.539471745E0	2.363077164E0	7.685387611E0
1.792799230E-1	1.491587639E0	2.229001760E0	7.939172745E0
1.816485480E-1	1.632845521E0	2.243366957E0	8.025363922E0
1.828792310E-1	2.030282974E0	2.351106167E0	8.147468567E0
1.857046250E-1	2.470816135E0	2.489969730E0	8.204929352E0
1.873250000E-1	3.038241863E0	2.602497339E0	8.252813339E0
1.897658170E-1	3.181894064E0	2.607285738E0	8.281543732E0
1.909905000E-1	3.380612850E0	2.568978310E0	8.379706383E0
1.938211250E-1	3.473986626E0	2.516305923E0	8.554482460E0
1.954204620E-1	3.476380825E0	2.511517525E0	8.829815865E0
1.978655860E-1	3.462015629E0	2.540247917E0	8.954314232E0
1.990950000E-1	3.447650433E0	2.588132143E0	9.064447403E0
2.019222010E-1	3.433285236E0	2.628833532E0	9.203310966E0
2.036785380E-1	3.421314240E0	2.638410330E0	9.390059471E0
2.058628850E-1	3.421314240E0	2.624045134E0	9.586383820E0
2.072215000E-1	3.471592426E0	2.578555346E0	9.763554573E0
2.100386630E-1	3.608062029E0	2.489969730E0	9.967061996E0
2.116902690E-1	3.778050184E0	2.398990154E0	1.017535686E1
2.141204320E-1	3.897760391E0	2.406172752E0	1.024957752E1
2.154557690E-1	3.986345768E0	2.473210335E0	1.023281765E1
2.181762010E-1	4.029441357E0	2.545036316E0	1.018732834E1
2.198816150E-1	4.012681961E0	2.585737944E0	1.013465595E1
2.222522780E-1	3.962403774E0	2.585737944E0	1.005564690E1
2.234785000E-1	3.873818398E0	2.604891539E0	9.933543205E0
2.263072400E-1	3.763684988E0	2.626439333E0	9.782708168E0
2.278972310E-1	3.665522814E0	2.638410330E0	9.631873131E0
2.303677780E-1	3.574543238E0	2.662352324E0	9.469067574E0
2.315613850E-1	3.497928619E0	2.691082716E0	9.313444138E0
2.344225480E-1	3.445256233E0	2.717418909E0	9.172186852E0
2.360263850E-1	3.404554844E0	2.726995707E0	9.030928612E0
2.384507400E-1	3.339911461E0	2.738966703E0	8.882488251E0
2.396628080E-1	3.296815634E0	2.705447912E0	8.791508675E0
2.425056240E-1	3.315969467E0	2.600103140E0	8.801085472E0
2.442910000E-1	3.438073635E0	2.403778553E0	8.875306129E0
2.464508850E-1	3.502717018E0	2.353500366E0	8.901641846E0
2.480069230E-1	3.648763418E0	2.286462545E0	8.949525833E0
2.506367010E-1	3.775655985E0	2.243366957E0	8.999804497E0
2.520406540E-1	3.833117008E0	2.219424963E0	9.066842079E0
2.547537400E-1	3.830722809E0	2.195482969E0	9.112331390E0
2.561383080E-1	3.799597979E0	2.164358377E0	9.131484985E0
2.588440470E-1	3.720589399E0	2.090138197E0	9.157821655E0
2.605003850E-1	3.675099611E0	2.027888775E0	9.181763649E0
2.629056240E-1	3.665522814E0	1.956062794E0	9.181763649E0
2.641668460E-1	3.689464808E0	1.881842494E0	9.157821655E0
2.669615090E-1	3.763684988E0	1.812410712E0	9.129091263E0
2.686048850E-1	3.888183594E0	1.750161409E0	9.095572472E0
2.710377780E-1	4.067748547E0	1.680729628E0	9.064447403E0
2.723241920E-1	4.288015366E0	1.613691926E0	9.026140213E0
2.750941240E-1	4.489128113E0	1.563413739E0	8.971074104E0
2.768354230E-1	4.620809078E0	1.517923832E0	8.899248123E0
2.791253550E-1	4.673481941E0	1.467645645E0	8.839392662E0
2.806178850E-1	4.663905144E0	1.422155857E0	8.791508675E0
2.831810860E-1	4.620809078E0	1.386242747E0	8.743624687E0
2.848220000E-1	4.577713490E0	1.357512355E0	8.700529099E0
2.872431630E-1	4.577713490E0	1.331176162E0	8.681375504E0
2.884741540E-1	4.627991676E0	1.302445769E0	8.681375504E0
2.912990090E-1	4.692635536E0	1.292868972E0	8.705317497E0
2.929007310E-1	4.766855717E0	1.271321058E0	8.760383606E0
2.953279320E-1	4.848258495E0	1.221042871E0	8.865729332E0
2.967532690E-1	4.888959885E0	1.185129881E0	8.978256226E0
2.993834320E-1	4.874594688E0	1.192312479E0	9.078812599E0
3.009675000E-1	4.853046894E0	1.206677675E0	9.198522568E0
3.034458550E-1	4.876988888E0	1.180341482E0	9.368511200E0
3.046707310E-1	5.058948040E0	1.000776291E0	9.706093788E0
3.075021630E-1	5.173870087E0	8.307880163E-1	1.003170490E1
3.090961540E-1	5.090072632E0	9.457096457E-1	9.962273598E0
3.115647010E-1	5.051765442E0	1.012747288E0	9.904812813E0
3.127810380E-1	4.941632271E0	1.113303781E0	9.811438560E0
3.156273930E-1	4.819528103E0	1.132457376E0	9.742006302E0
3.172437310E-1	4.733336926E0	1.041477680E0	9.634267807E0
3.196717400E-1	4.745307922E0	1.000776291E0	9.595960617E0
3.210331150E-1	4.809951305E0	9.265560508E-1	9.504981041E0
3.237272780E-1	4.920084476E0	8.475474119E-1	9.375694275E0
3.253471150E-1	5.109226227E0	7.445967197E-1	9.114726067E0
3.277534230E-1	5.152322292E0	7.302315235E-1	9.002198219E0
3.291647690E-1	5.219359875E0	7.086837292E-1	8.789113998E0
3.318430860E-1	5.238513470E0	7.015010715E-1	8.566453934E0
3.331930000E-1	5.181052685E0	7.158663273E-1	8.470685959E0
3.359491630E-1	5.090072632E0	7.422025204E-1	8.420407295E0
3.372146920E-1	4.991910458E0	7.541735172E-1	8.415618896E0
3.400394700E-1	4.884171486E0	7.685387731E-1	8.420407295E0
3.416531540E-1	4.754884720E0	8.092401624E-1	8.403648376E0
3.441151620E-1	4.642356873E0	8.499416113E-1	8.425195694E0
3.453450380E-1	4.501099110E0	8.978256583E-1	8.425195694E0
3.481713550E-1	4.367023945E0	9.050082564E-1	8.429984093E0
3.497703460E-1	4.357447147E0	7.637503147E-1	8.571242332E0
3.522009320E-1	4.477157116E0	4.908113480E-1	8.791508675E0
3.534511540E-1	4.699818134E0	1.915361285E-1	8.966285706E0
3.562560860E-1	4.994304657E0	-7.661445439E-2	9.030928612E0
3.578559610E-1	5.295974255E0	-2.920926213E-1	9.030928612E0
3.602852780E-1	5.501875401E0	-4.788403511E-1	8.997409821E0
3.616899230E-1	5.588066578E0	-6.584054828E-1	8.949525833E0
3.643404320E-1	5.597643375E0	-8.379706144E-1	8.877699852E0
3.659603080E-1	5.583278179E0	-1.019929886E0	8.748413086E0
3.682743080E-1	5.576095581E0	-1.180341482E0	8.578424454E0
3.696507310E-1	5.607220173E0	-1.335964561E0	8.410830498E0
3.724705470E-1	5.698200226E0	-1.477222443E0	8.279149055E0
3.740971540E-1	5.820304394E0	-1.594538331E0	8.202534676E0
3.765201240E-1	5.906495571E0	-1.673547029E0	8.123526573E0
3.777497690E-1	5.954379559E0	-1.719036818E0	8.061277390E0
3.805750090E-1	5.997475147E0	-1.745373011E0	8.054094315E0
3.822051920E-1	6.110002518E0	-1.781286120E0	8.106766701E0
3.846358550E-1	6.157886982E0	-1.790862918E0	8.130708694E0
3.858617690E-1	6.251260757E0	-1.807622313E0	8.164227486E0
3.886912390E-1	6.301538944E0	-1.810016513E0	8.125920296E0
3.903044610E-1	6.390124321E0	-1.857900500E0	7.996633530E0
3.927679700E-1	6.440402508E0	-1.905784607E0	7.970297337E0
3.939890770E-1	6.548141479E0	-2.027888775E0	7.929595947E0
3.968235470E-1	6.643909931E0	-2.205059767E0	7.860164165E0
3.984205000E-1	6.672640324E0	-2.284068346E0	7.802703381E0
4.008540080E-1	6.761225700E0	-2.375048161E0	7.836222172E0
4.021121920E-1	6.859387875E0	-2.473210335E0	7.953537941E0
4.049098160E-1	6.847416878E0	-2.461239338E0	7.905653954E0
4.065124610E-1	6.785167694E0	-2.365471363E0	7.745242596E0
4.089001540E-1	6.689399719E0	-2.240972757E0	7.596801758E0
4.101934230E-1	6.564900875E0	-2.102109194E0	7.520187378E0
4.130248160E-1	6.459556103E0	-1.944091797E0	7.517793179E0
4.145283460E-1	6.385335922E0	-1.781286120E0	7.556100368E0
4.171418550E-1	6.347028732E0	-1.613691926E0	7.587224960E0
4.184094230E-1	6.356605530E0	-1.465251446E0	7.594407558E0
4.212315850E-1	6.368576527E0	-1.316810966E0	7.587224960E0
4.228338840E-1	6.332663536E0	-1.146822572E0	7.548917770E0
4.252919700E-1	6.275202751E0	-9.744400978E-1	7.529764175E0
4.265074230E-1	6.212953568E0	-8.140285611E-1	7.565677166E0
4.293467010E-1	6.150704384E0	-6.679822803E-1	7.661445618E0
4.309100380E-1	6.066906929E0	-4.955997467E-1	7.733271599E0
4.334092780E-1	5.975927353E0	-2.992752194E-1	7.745242596E0
4.346255770E-1	5.856217384E0	-1.388636976E-1	7.726089001E0
4.374648540E-1	5.746084213E0	-3.351882473E-2	7.702147007E0
4.394702690E-1	5.671864033E0	1.268926859E-1	7.680599213E0
4.414933930E-1	5.657498837E0	2.202665508E-1	7.647080421E0
4.427142310E-1	5.612008572E0	4.788403511E-1	7.546523571E0
4.455485080E-1	5.477933407E0	7.781155705E-1	7.419631004E0
4.473780000E-1	5.159504890E0	1.154005170E0	7.319074631E0
4.495320000E-1	5.018246651E0	1.276109457E0	7.266402245E0
4.508571150E-1	4.764461517E0	1.496376038E0	7.122750282E0
4.536671620E-1	4.568136692E0	1.675941229E0	6.938396454E0
4.552402310E-1	4.355052948E0	1.884236693E0	6.507440090E0
4.576990470E-1	4.340687752E0	1.915361404E0	6.366182327E0
4.589388840E-1	4.405331135E0	1.889025092E0	6.189011574E0
4.617555080E-1	4.572925091E0	1.802833915E0	6.169857979E0
4.633910770E-1	4.886565685E0	1.762132406E0	6.212953568E0
4.658331240E-1	5.250484467E0	1.956062794E0	6.227318764E0
4.670631150E-1	5.528211594E0	2.183511972E0	6.318298340E0
4.698896620E-1	5.420472622E0	2.279279947E0	6.222530365E0
4.714788080E-1	5.255272865E0	2.322375536E0	5.978321552E0
4.739522390E-1	5.295974255E0	2.391807556E0	5.916072369E0
4.753290770E-1	5.566518784E0	2.509123325E0	6.045359135E0
4.780089310E-1	5.944802761E0	2.645592928E0	6.200982571E0
4.796591540E-1	6.323086739E0	2.717418909E0	6.270414352E0
4.820390470E-1	6.624756336E0	2.717418909E0	6.251260757E0
4.834155000E-1	6.811503887E0	2.671929121E0	6.215347767E0
4.860947770E-1	6.871358871E0	2.571372509E0	6.196194172E0
4.879280000E-1	6.861782074E0	2.389413357E0	6.217741966E0
4.901125380E-1	6.873753071E0	2.142810583E0	6.375759125E0
4.914058840E-1	6.847416878E0	1.912967205E0	6.586448669E0
4.942283930E-1	6.804321289E0	1.812410712E0	6.658275127E0
4.956398840E-1	6.763619900E0	1.819593310E0	6.667851925E0
4.983440470E-1	6.682217121E0	1.903390408E0	6.651092529E0
4.996642690E-1	6.636727333E0	1.975216389E0	6.646304131E0
5.024350470E-1	6.627150536E0	2.018311977E0	6.679822922E0
5.040737310E-1	6.612784863E0	2.049436569E0	6.658275127E0
5.064970850E-1	6.574477673E0	2.075772762E0	6.538564682E0
5.077220770E-1	6.550535679E0	2.073378563E0	6.335057735E0
5.105536620E-1	6.596025467E0	2.073378563E0	6.086060524E0
5.121900000E-1	6.768408298E0	2.123656988E0	5.683835030E0
5.146303540E-1	6.825869083E0	2.147598982E0	5.576095581E0
5.158713840E-1	6.914454460E0	2.181117773E0	5.406107426E0
5.186871620E-1	6.959944248E0	2.212242365E0	5.257667065E0
5.204770000E-1	7.177816868E0	2.205059767E0	5.073313236E0
5.227171620E-1	7.268796444E0	2.181117773E0	5.027823448E0
5.239536540E-1	7.350199223E0	2.128445387E0	4.905719280E0
5.267731230E-1	7.292738438E0	2.078166962E0	4.723760128E0
5.285050380E-1	7.216124058E0	1.984793186E0	4.424484730E0
5.308068460E-1	7.244854450E0	1.915361404E0	4.304774761E0
5.321961920E-1	7.319074631E0	1.848323703E0	4.237737179E0
5.348890080E-1	7.357381821E0	1.800439715E0	4.199429989E0
5.365571150E-1	7.374141216E0	1.788468719E0	4.180276394E0
5.389457390E-1	7.398083210E0	1.790862918E0	4.192247391E0
5.401947310E-1	7.405265808E0	1.802833915E0	4.194641590E0
5.430014310E-1	7.426813602E0	1.824381709E0	4.232948780E0
5.446565000E-1	7.414842606E0	1.845929503E0	4.343081951E0
5.470619690E-1	7.343016624E0	1.903390408E0	4.469974518E0
5.483072310E-1	7.319074631E0	1.965639591E0	4.596867085E0
5.511174690E-1	7.390900612E0	1.996764183E0	4.709394932E0
5.527751540E-1	7.536946774E0	2.008735180E0	4.776432514E0
5.551461620E-1	7.783549786E0	2.008735180E0	4.824316502E0
5.563966920E-1	8.121131897E0	1.946485996E0	4.872200489E0
5.592015850E-1	8.420407295E0	1.817199111E0	4.963180065E0
5.607981150E-1	8.549694061E0	1.656787634E0	5.092466831E0
5.632460080E-1	8.480262756E0	1.517923832E0	5.140350819E0
5.645986150E-1	8.331821442E0	1.407790542E0	5.070919037E0
5.673015850E-1	8.224082947E0	1.295263171E0	4.996698856E0
5.689644610E-1	8.133103371E0	1.192312479E0	4.946420670E0
5.713106540E-1	8.042123795E0	1.098938584E0	4.939238071E0
5.726430000E-1	7.987056732E0	9.888052940E-1	4.915296078E0
5.754199310E-1	7.927201748E0	8.954314590E-1	4.826710701E0
5.767704230E-1	7.869740963E0	8.092401624E-1	4.692635536E0
5.795224690E-1	7.829039574E0	7.445967197E-1	4.548983097E0
5.808061920E-1	7.819462776E0	6.943184733E-1	4.402936935E0
5.836130850E-1	7.876923561E0	6.488286853E-1	4.280832767E0
5.852531920E-1	8.085219383E0	5.698199868E-1	4.089296341E0
5.876905080E-1	8.161833763E0	5.506663918E-1	4.039018154E0
5.888933460E-1	8.315062523E0	5.171475410E-1	3.967192173E0
5.917464690E-1	8.410830498E0	4.716577232E-1	3.909731388E0
5.934525770E-1	8.413225174E0	3.878606856E-1	3.869029999E0
5.958090460E-1	8.398859978E0	3.423708379E-1	3.866635799E0
5.971168070E-1	8.374917984E0	3.375824392E-1	3.964797974E0
5.998658540E-1	8.307879448E0	3.519476354E-1	4.194641590E0
6.014613840E-1	8.145073891E0	3.471592367E-1	4.340687752E0
6.038963540E-1	8.073247910E0	3.016694188E-1	4.395754337E0
6.051766150E-1	8.056488991E0	2.370259613E-1	4.450820923E0
6.079531610E-1	8.037335396E0	1.651999205E-1	4.546588898E0
6.096589230E-1	8.063671112E0	3.351882473E-2	4.606443882E0
6.118736150E-1	8.070854187E0	-1.364694983E-1	4.582501888E0
6.132613070E-1	7.943961143E0	-2.753331959E-1	4.522646904E0
6.160868150E-1	7.812280178E0	-4.046200812E-1	4.469974518E0
6.176643460E-1	7.711723804E0	-4.955997467E-1	4.450820923E0
6.201130080E-1	7.580042362E0	-4.860229492E-1	4.496310711E0
6.213663070E-1	7.486668587E0	-4.309563041E-1	4.556165695E0
6.241692770E-1	7.481880188E0	-3.663128614E-1	4.589684486E0
6.259151920E-1	7.515398979E0	-3.064578176E-1	4.601655483E0
6.282310840E-1	7.589619160E0	-3.902548850E-1	4.556165695E0
6.294783070E-1	7.826645374E0	-9.816226959E-1	4.484339714E0
6.322870460E-1	8.180987358E0	-1.618480325E0	4.520252705E0
6.339629610E-1	8.540117264E0	-1.678335428E0	4.491522312E0
6.363644310E-1	8.796297073E0	-1.376665950E0	4.273650169E0
6.377374230E-1	8.911218643E0	-1.017535686E0	4.050989151E0
6.404603920E-1	8.908824921E0	-7.469909191E-1	4.062960148E0
6.420851150E-1	8.564059258E0	-5.123591423E-1	4.419696331E0
6.444907000E-1	8.358158112E0	-4.620809257E-1	4.515464306E0
6.457533070E-1	7.912836552E0	-4.141969085E-1	4.572925091E0
6.485473150E-1	7.580042362E0	-4.381389022E-1	4.541800499E0
6.501854610E-1	7.319074631E0	-5.219359994E-1	4.503493309E0
6.526109690E-1	7.268796444E0	-5.482721925E-1	4.503493309E0
6.539194230E-1	7.208941460E0	-6.392518282E-1	4.477157116E0
6.566673920E-1	7.158663273E0	-7.517793179E-1	4.527435303E0
6.585346920E-1	7.084442616E0	-8.451532125E-1	4.556165695E0
6.607137380E-1	7.070077419E0	-8.954314590E-1	4.525041103E0
6.620243070E-1	6.924031258E0	-1.118092179E0	4.405331135E0
6.647699300E-1	6.737283707E0	-1.371877551E0	4.151545525E0
6.665576540E-1	7.275979042E0	-1.707065821E0	3.998316765E0
6.688328150E-1	7.931990147E0	-1.620874524E0	3.732560396E0
6.701326920E-1	8.726864815E0	-1.508347034E0	3.711012602E0
6.728885460E-1	9.327810287E0	-1.441309452E0	3.931279182E0
6.745773840E-1	9.648633003E0	-1.362300754E0	4.086902142E0
6.769505460E-1	9.751583099E0	-1.436521053E0	4.443638325E0
6.782421150E-1	9.524134636E0	-1.335964561E0	4.369418144E0
6.810054690E-1	9.406818390E0	-1.280897856E0	4.400542736E0
6.826232690E-1	9.378087997E0	-1.132457376E0	4.299986362E0
6.850477770E-1	9.385271072E0	-9.145850539E-1	4.007893562E0
6.862862300E-1	9.512163162E0	-7.182605267E-1	3.897760391E0
6.891027000E-1	9.579200745E0	-4.237737060E-1	3.426102638E0
6.907551920E-1	9.691728592E0	-2.633621991E-1	3.289633036E0
6.931591540E-1	9.770736694E0	-6.464344263E-2	2.861071110E0
6.944166920E-1	1.004367638E1	9.576806426E-2	2.602497339E0
6.972190460E-1	1.034055710E1	2.346317619E-1	2.346317768E0
6.987552300E-1	1.073320580E1	4.548983276E-1	1.922544003E0
7.012737770E-1	1.125993061E1	4.501099288E-1	1.924938202E0
7.025189230E-1	1.154962921E1	4.405331016E-1	1.508347034E0
7.053294300E-1	1.173877048E1	4.884171486E-1	9.816226959E-1
7.070236530E-1	1.197340298E1	3.591302633E-1	8.212111592E-1
7.094058530E-1	1.185129833E1	2.059013397E-1	2.035071403E-1
7.106468070E-1	1.145625496E1	-2.059013397E-1	-2.705447972E-1
7.134616230E-1	1.131020927E1	-5.530605912E-1	-5.506663918E-1
7.152006920E-1	1.181059742E1	3.112462163E-2	-1.424550056E0
7.175239690E-1	1.213620853E1	2.873041928E-1	-1.546654344E0
7.187923070E-1	1.290714169E1	5.410895944E-1	-1.434126854E0
7.215802380E-1	1.355357552E1	5.626373887E-1	-1.379060149E0
7.234890770E-1	1.390073490E1	9.528923035E-1	-1.735796213E0
7.256106990E-1	1.397734928E1	1.163581967E0	-1.728613615E0
7.269878840E-1	1.412818432E1	1.522712231E0	-1.534683347E0
7.296663530E-1	1.418803883E1	1.611297727E0	-1.103726983E0
7.314608840E-1	1.374032402E1	1.218648672E0	-3.519476354E-1
7.336061920E-1	1.345301914E1	9.816226959E-1	-5.506663769E-2
7.349933070E-1	1.281616211E1	4.860229492E-1	6.991068721E-1
7.377991610E-1	1.202607536E1	-2.633621991E-1	2.461239338E0
7.398747300E-1	1.168130970E1	-8.068459630E-1	3.821146011E0
7.419412380E-1	1.146583176E1	-1.331176162E0	5.128379822E0
7.434393840E-1	1.139879417E1	-1.781286120E0	6.208165169E0
7.460320840E-1	1.148977375E1	-2.118868589E0	6.950367451E0
7.476713070E-1	1.162624359E1	-2.336740971E0	7.410054207E0
7.500931990E-1	1.171004009E1	-2.499546528E0	7.821856976E0
7.513639610E-1	1.169088650E1	-2.698265314E0	8.317456245E0
7.541494690E-1	1.160709000E1	-2.908955097E0	8.695740700E0
7.557559610E-1	1.149456215E1	-3.081337690E0	8.707711220E0
7.582272760E-1	1.140837097E1	-3.244143248E0	8.350975990E0
7.596684610E-1	1.141315937E1	-3.409343243E0	7.781155586E0
7.622835070E-1	1.158554173E1	-3.584120035E0	7.115567684E0
7.639068840E-1	1.188002872E1	-3.766079187E0	6.368576527E0
7.663134300E-1	1.217451572E1	-3.881000996E0	5.638344765E0
7.675637690E-1	1.233253288E1	-3.926490784E0	5.044582844E0
7.703699300E-1	1.227267838E1	-3.881000996E0	4.580107689E0
7.723426920E-1	1.201410389E1	-3.768473387E0	4.242525578E0
7.743378070E-1	1.170525169E1	-3.593696833E0	4.029441357E0
7.756579230E-1	1.143949604E1	-3.409343243E0	3.924096584E0
7.784907760E-1	1.121683502E1	-3.224989653E0	3.933673382E0
7.801347690E-1	1.100375080E1	-2.966415882E0	4.134786129E0
7.825209300E-1	1.101572227E1	-2.853888512E0	4.211400986E0
7.837435000E-1	1.115937424E1	-2.535459518E0	4.357447147E0
7.865770840E-1	1.134612179E1	-2.138022184E0	4.532223701E0
7.882426150E-1	1.142034245E1	-1.596932530E0	4.903325081E0
7.906374300E-1	1.137724686E1	-1.462857246E0	4.999093056E0
7.918904610E-1	1.127190113E1	-1.261744261E0	5.135562420E0
7.946933530E-1	1.125274754E1	-1.120486379E0	5.248090267E0
7.963094610E-1	1.138442898E1	-8.547300100E-1	5.406107426E0
7.987557380E-1	1.141555405E1	-7.517793179E-1	5.386953831E0
8.000782690E-1	1.139640045E1	-5.482721925E-1	5.238513470E0
8.028170070E-1	1.124317074E1	-3.184288144E-1	4.958391666E0
8.046229230E-1	1.108515358E1	-3.040636182E-1	4.853046894E0
8.068620450E-1	1.086967564E1	-5.243301988E-1	4.800374508E0
8.081052300E-1	1.042674828E1	-1.187524080E0	4.558559895E0
8.109186610E-1	1.055364132E1	-1.539471745E0	4.378994942E0
8.128048460E-1	1.169328117E1	-9.816226959E-1	4.340687752E0
8.149545000E-1	1.287841129E1	-1.029506698E-1	4.611232281E0
8.162319610E-1	1.352963352E1	5.027823448E-1	5.056553841E0
8.190381220E-1	1.344104862E1	7.757213712E-1	5.626373768E0
8.203978460E-1	1.275391293E1	9.241618514E-1	6.071695328E0
8.231684680E-1	1.191833591E1	1.005564690E0	6.349422932E0
8.244536920E-1	1.124795914E1	1.024718285E0	6.545747280E0
8.272590450E-1	1.098459721E1	1.000776291E0	6.670246124E0
8.289664610E-1	1.116416264E1	1.010353088E0	6.696582317E0
8.313342380E-1	1.162384892E1	1.079784989E0	6.684611320E0
8.325918840E-1	1.205719948E1	1.175553083E0	6.631938934E0
8.353906990E-1	1.225591850E1	1.225831270E0	6.521805286E0
8.371061150E-1	1.220324612E1	1.204283476E0	6.373364925E0
8.394524680E-1	1.199255657E1	1.149216771E0	6.251260757E0
8.406964610E-1	1.178426075E1	1.158793569E0	6.112396717E0
8.435085840E-1	1.156159973E1	1.063025594E0	5.820304394E0
8.451831150E-1	1.018253994E1	-8.379705995E-2	5.260061264E0
8.475391220E-1	1.007001209E1	-2.873042040E-2	5.166687489E0
8.488334610E-1	1.066616821E1	1.036689281E0	5.102043629E0
8.515952370E-1	1.123359394E1	2.401384354E0	5.209783077E0
8.534091150E-1	1.099896240E1	3.315969467E0	5.245696068E0
8.556407300E-1	1.077869606E1	3.428496838E0	5.169081688E0
8.570071530E-1	1.039083576E1	3.703830004E0	5.051765442E0
8.597276610E-1	1.005564690E1	4.156333923E0	5.082890034E0
8.613883070E-1	9.538499832E0	4.790797710E0	5.212177277E0
8.638101610E-1	9.244012833E0	5.056553841E0	5.137956619E0
8.650449610E-1	9.066842079E0	5.171475887E0	4.867412090E0
8.678665070E-1	9.129091263E0	5.008669853E0	4.551377296E0
8.694721150E-1	9.332598686E0	4.683058739E0	4.223371983E0
8.719285840E-1	9.648633003E0	4.596867085E0	3.943250179E0
8.731535000E-1	1.017775154E1	4.235342979E0	3.720589399E0
8.759849680E-1	1.021366405E1	3.476380825E0	3.560178041E0
8.776500000E-1	9.744400978E0	2.657563925E0	3.526659012E0
8.800623530E-1	9.433155060E0	1.944091797E0	3.634398222E0
8.812808840E-1	9.603142738E0	1.489193439E0	3.694253206E0
8.841178140E-1	1.002452278E1	1.271321058E0	3.593696833E0
8.857346530E-1	1.032619190E1	9.864110947E-1	3.445256233E0
8.881473140E-1	1.020408726E1	7.589619160E-1	3.411737442E0
8.895228460E-1	9.799467087E0	5.722141862E-1	3.632004023E0
8.922029300E-1	9.493009567E0	2.873041928E-1	3.969586372E0
8.938321920E-1	9.404424667E0	-1.221042871E-1	4.242525578E0
8.962200000E-1	9.478644371E0	-5.650315881E-1	4.376600742E0
8.974995760E-1	9.600749016E0	-9.744400978E-1	4.446032524E0
9.003204300E-1	9.698910713E0	-1.479616642E0	4.398148537E0
9.017457690E-1	9.617507935E0	-1.831564307E0	4.271255970E0
9.044375070E-1	9.342175484E0	-1.805228114E0	4.180276394E0
9.058560000E-1	9.148244858E0	-1.584961534E0	4.177882195E0
9.085286220E-1	9.536105156E0	-1.371877551E0	4.273650169E0
9.101793840E-1	1.086009884E1	-1.127668977E0	4.759673119E0
9.125914680E-1	1.116176796E1	-1.055842996E0	4.989516258E0
9.138336530E-1	1.134851646E1	-9.050082564E-1	5.401319027E0
9.166483910E-1	1.108754826E1	-7.206547260E-1	5.681440830E0
9.183109610E-1	1.001255131E1	-1.915361285E-1	5.781997204E0
9.207115450E-1	9.485827446E0	9.576806426E-2	5.738901615E0
9.219296150E-1	8.315062523E0	8.212111592E-1	5.552153587E0
9.247682370E-1	6.634333134E0	1.889025092E0	5.114014626E0
9.268016920E-1	5.535394192E0	2.398990154E0	4.795586109E0
9.287903910E-1	4.556165695E0	2.607285738E0	4.577713490E0
9.305540760E-1	3.837905407E0	2.461239338E0	4.491522312E0
9.328465060E-1	3.215412855E0	2.197877169E0	4.362235546E0
9.345790380E-1	2.317587137E0	2.264914751E0	3.952826977E0
9.367479610E-1	1.244984865E0	2.839523315E0	3.311181068E0
9.382044990E-1	2.777273953E-1	3.354276657E0	2.425326347E0
9.409631600E-1	-5.458779931E-1	3.610456228E0	1.419761658E0
9.425859230E-1	-1.197100878E0	3.677493811E0	5.386953950E-1
9.450172760E-1	-2.511517525E0	3.897760391E0	-4.357447028E-1
9.463025760E-1	-4.474762917E0	4.481945515E0	-1.848323703E0
9.490726220E-1	-6.181828976E0	5.430049419E0	-3.588908434E0
9.506549610E-1	-7.625532627E0	7.043741226E0	-5.504269600E0
9.531484290E-1	-8.549694061E0	8.638279915E0	-7.453149796E0
9.543868840E-1	-9.239224434E0	1.011789608E1	-9.018958092E0
9.572045830E-1	-9.361329079E0	1.091516590E1	-9.751583099E0
9.588491530E-1	-9.504981041E0	1.170046329E1	-9.698910713E0
9.612682370E-1	-9.536105156E0	1.245703125E1	-9.770736694E0
9.625132690E-1	-9.009381294E0	1.253364563E1	-9.208099365E0
9.653303520E-1	-8.549694061E0	1.276588345E1	-8.094796181E0
9.669766530E-1	-8.202534676E0	1.330218506E1	-7.098807812E0
9.693601990E-1	-7.551311970E0	1.384806252E1	-6.119579315E0
9.706089230E-1	-6.469132900E0	1.418325043E1	-4.807557106E0
9.734163910E-1	-5.216965675E0	1.447534370E1	-3.299209833E0
9.752922300E-1	-3.562572241E0	1.531091976E1	-1.587355733E0
9.774394610E-1	-2.964021683E0	1.548090839E1	-1.086967587E0
9.787418070E-1	-1.608903527E0	1.543062973E1	4.094084799E-1
9.815502750E-1	-2.681505978E-1	1.518642139E1	2.102109194E0
9.830283070E-1	9.337386489E-1	1.482729149E1	3.366247654E0
9.856850060E-1	1.829170108E0	1.433169174E1	4.362235546E0
9.870937300E-1	2.410961151E0	1.389594650E1	5.032611847E0
9.897756600E-1	2.906560898E0	1.323035812E1	5.446808815E0
9.913550760E-1	2.961627483E0	1.273475838E1	5.513846397E0
9.938365830E-1	2.880224705E0	1.221521664E1	5.477933407E0
9.950736150E-1	2.758120298E0	1.164300251E1	5.358223438E0
9.978925830E-1	2.600103140E0	1.106121159E1	5.123591423E0
9.995898840E-1	2.475604534E0	1.053688145E1	4.805162907E0
1.001970583E0	2.442085743E0	1.006043530E1	4.462791920E0
1.003391807E0	2.523488522E0	9.595960617E0	4.161122322E0
1.006027083E0	2.738966703E0	9.131484985E0	3.926490784E0
1.007724730E0	3.112462282E0	8.650250435E0	3.667917013E0
1.010057391E0	3.663128614E0	8.068459511E0	3.093308687E0
1.011341192E0	4.311957359E0	7.431602001E0	2.288856745E0
1.014113506E0	4.924872875E0	6.878541470E0	1.556231141E0
1.015745730E0	5.286397457E0	6.488286495E0	1.235408068E0
1.018039269E0	5.269638062E0	6.232107162E0	1.429338455E0
1.019433423E0	5.058948040E0	6.050147533E0	1.759738207E0
1.022232275E0	4.905719280E0	5.868188381E0	1.929726601E0
1.023832422E0	4.814739704E0	5.753266811E0	1.939303398E0
1.026268352E0	4.762067318E0	5.741295815E0	1.929726601E0
1.027661846E0	4.728548527E0	5.784391403E0	1.884236693E0
1.030324391E0	4.759673119E0	5.750872612E0	1.855506301E0
1.032186269E0	4.757278919E0	5.576095581E0	1.948880196E0
1.034387198E0	4.699818134E0	5.386953831E0	2.121262789E0
1.035732422E0	4.632780075E0	5.233725071E0	2.312798738E0
1.038443429E0	4.537012100E0	5.154716492E0	2.482787132E0
1.040097615E0	4.613626480E0	5.128379822E0	2.748543501E0
1.042503698E0	4.730942726E0	5.106832027E0	2.861071110E0
1.043755961E0	5.023035049E0	5.066130638E0	3.064578056E0
1.046559544E0	5.339069843E0	5.025429249E0	3.191470861E0
1.048281730E0	5.669469833E0	4.960785866E0	3.222595453E0
1.050602852E0	5.698200226E0	4.922478676E0	3.208230257E0
1.051858961E0	5.717353821E0	4.776432514E0	3.248931646E0
1.054658621E0	5.755661011E0	4.625597477E0	3.325546265E0
1.056284730E0	6.016628742E0	4.481945515E0	3.452438831E0
1.058721429E0	6.078877926E0	4.462791920E0	3.476380825E0
1.059949307E0	6.119579315E0	4.407725334E0	3.514688015E0
1.062777467E0	6.189011574E0	4.189853191E0	3.605667830E0
1.064234230E0	6.145915985E0	4.012681961E0	3.672705412E0
1.066881391E0	6.193799973E0	3.919308186E0	3.773261786E0
1.068202192E0	6.303933144E0	3.869029999E0	3.940855980E0
1.070971429E0	6.296750546E0	3.816357613E0	3.878606796E0
1.072718307E0	6.567295074E0	3.816357613E0	3.931279182E0
1.075048006E0	6.813898087E0	3.804386616E0	3.981557369E0
1.076253076E0	7.019799232E0	3.871424198E0	3.794809580E0
1.079104237E0	7.333439827E0	4.153939724E0	3.713406801E0
1.080860576E0	7.570465565E0	4.503493309E0	3.763684988E0
1.083166967E0	7.733271599E0	4.879383087E0	3.835511208E0
1.084468576E0	7.860164165E0	5.315127850E0	3.969586372E0
1.087223160E0	7.917624950E0	5.789179802E0	4.218583584E0
1.089138499E0	7.706935406E0	6.291962147E0	4.505887508E0
1.091252813E0	7.283161640E0	6.746860504E0	4.735731125E0
1.092617538E0	6.976703644E0	7.084442616E0	4.982333660E0
1.095309044E0	6.986280441E0	7.273584843E0	5.410895824E0
1.097038076E0	7.237671852E0	7.390900612E0	5.987898350E0
1.099363692E0	7.522581577E0	7.467514992E0	6.459556103E0
1.100740807E0	7.742848396E0	7.374141216E0	6.631938934E0
1.103442506E0	7.886500359E0	7.010222435E0	6.411672115E0
1.105009269E0	7.869740963E0	6.531382084E0	5.698200226E0
1.107521275E0	7.723694801E0	6.011840343E0	4.654327869E0
1.108863115E0	7.773972988E0	5.463568211E0	3.962403774E0
1.111578352E0	8.348581314E0	4.829104900E0	4.156333923E0
1.113237692E0	8.580819130E0	4.371812344E0	4.489128113E0
1.115641583E0	8.494627953E0	4.383783340E0	4.460397720E0
1.116865615E0	8.489839554E0	4.446032524E0	4.496310711E0
1.119698429E0	8.784325600E0	4.448426723E0	4.484339714E0
1.121311153E0	1.001015759E1	4.055777550E0	3.983951569E0
1.123774967E0	1.062307262E1	3.775655985E0	3.251325846E0
1.125007922E0	1.057040024E1	3.701435804E0	2.396595955E0
1.127831852E0	1.000536919E1	3.847482204E0	1.766920805E0
1.129455345E0	9.193734169E0	4.149151325E0	1.391031146E0
1.131862621E0	8.293514252E0	4.548983097E0	9.768342972E-1
1.133094653E0	7.359776020E0	5.042188644E0	5.722141862E-1
1.135918390E0	6.409277916E0	5.516240597E0	2.777273953E-1
1.137524038E0	5.612008572E0	5.856217384E0	8.379705995E-2
1.139861422E0	5.355829239E0	5.829881191E0	1.292868853E-1
1.141362115E0	5.401319027E0	5.590460777E0	4.979939461E-1
1.144034659E0	5.535394192E0	5.363011837E0	1.240196466E0
1.145401999E0	5.729324818E0	5.207388878E0	2.293645144E0
1.148146236E0	5.793968201E0	5.149928093E0	3.157952070E0
1.149427845E0	5.609614372E0	5.173870087E0	3.593696833E0
1.152236659E0	5.188235283E0	5.231330872E0	3.778050184E0
1.153843807E0	4.709394932E0	5.276820660E0	3.991134167E0
1.156299544E0	4.508281708E0	5.260061264E0	4.340687752E0
1.157946576E0	4.532223701E0	5.212177277E0	4.697423935E0
1.160355044E0	4.584896088E0	5.147533417E0	4.991910458E0
1.161953345E0	4.563348293E0	5.054159641E0	5.161899090E0
1.164416967E0	4.429273129E0	4.934449673E0	5.214571476E0
1.165627653E0	4.094084740E0	4.853046894E0	5.224148273E0
1.168472698E0	3.684676409E0	4.795586109E0	5.173870087E0
1.170086269E0	3.093308687E0	4.651933670E0	4.893748283E0
1.172518890E0	2.904166698E0	4.577713490E0	4.750096321E0
1.173774845E0	2.518700123E0	4.412513733E0	4.414907932E0
1.176574313E0	2.099714994E0	4.276044369E0	4.086902142E0
1.178285461E0	1.434126854E0	4.230554581E0	3.610456228E0
1.180637621E0	1.223437071E0	4.256890774E0	3.440467834E0
1.181900384E0	8.834604025E-1	4.371812344E0	3.033453465E0
1.184692313E0	4.453215301E-1	4.604049683E0	2.588132143E0
1.186250076E0	-3.256114423E-1	5.169081688E0	1.819593310E0
1.188764390E0	-8.236053586E-1	5.595249176E0	1.230619669E0
1.190003961E0	-1.398213744E0	5.999869347E0	6.560112834E-1
1.192819967E0	-2.049436569E0	6.370970726E0	9.816227108E-2
1.194443422E0	-2.724601507E0	6.720524311E0	-5.003881454E-1
1.196897698E0	-3.335123062E0	7.065289021E0	-1.165976286E0
1.198098807E0	-3.988739967E0	7.414842606E0	-1.786074519E0
1.200952890E0	-4.939238071E0	7.783549786E0	-2.319981337E0
1.202556692E0	-5.925649166E0	8.176198959E0	-2.889801502E0
1.205015313E0	-6.449979305E0	8.609549522E0	-3.514688015E0
1.206294384E0	-6.689399719E0	9.100360870E0	-4.156333923E0
1.209070736E0	-6.871358871E0	9.629479408E0	-4.793191910E0
1.210686845E0	-7.113173485E0	1.021605873E1	-5.434837818E0
1.213101044E0	-7.381323814E0	1.086728191E1	-6.133944988E0
1.214348345E0	-7.659051418E0	1.153526402E1	-6.873753071E0
1.217157121E0	-7.929595947E0	1.221521664E1	-7.613561630E0
1.218799153E0	-8.164227486E0	1.291193008E1	-8.298302650E0
1.221096692E0	-8.350975990E0	1.359188271E1	-8.935160637E0
1.222508961E0	-8.508993149E0	1.429098988E1	-9.521739960E0
1.225290928E0	-8.647856712E0	1.500206757E1	-1.006282997E1
1.226658769E0	-8.760383606E0	1.568202114E1	-1.054406452E1
1.229429544E0	-8.820239067E0	1.632845497E1	-1.097741508E1
1.230705307E0	-8.844181061E0	1.694137192E1	-1.136767006E1
1.233521159E0	-8.820239067E0	1.750161362E1	-1.166694450E1
1.235405845E0	-8.662221909E0	1.822226906E1	-1.186326981E1
1.237583198E0	-8.576030731E0	1.841859436E1	-1.183932781E1
1.238867422E0	-8.386888504E0	1.881124306E1	-1.164779091E1
1.241640236E0	-8.149862289E0	1.917037392E1	-1.121444035E1
1.243318845E0	-7.738059998E0	1.983596039E1	-9.385271072E0
1.245719390E0	-7.613561630E0	2.077209473E1	-6.818686485E0
1.247008076E0	-7.465120792E0	2.174892807E1	-4.364629745E0
1.249775851E0	-7.117961884E0	2.234747887E1	-2.760514498E0
1.251470499E0	-6.588842869E0	2.253183174E1	-1.960851192E0
1.253806351E0	-5.920860767E0	2.250789070E1	-1.249773264E0
1.255072576E0	-5.142745018E0	2.236423874E1	-2.633621991E-1
1.257862505E0	-4.288015366E0	2.211284637E1	8.834604025E-1
1.259476807E0	-3.361459255E0	2.177765846E1	2.049436569E0
1.261822422E0	-2.437297344E0	2.134670258E1	3.122039080E0
1.263229576E0	-1.618480325E0	2.081518936E1	4.053383350E0
1.265981659E0	-8.738836050E-1	2.020945740E1	4.805162907E0
1.267537268E0	-1.987187415E-1	1.956781006E1	5.410895824E0
1.270011197E0	4.285621047E-1	1.892377090E1	5.908889771E0
1.271358922E0	9.888052940E-1	1.829170036E1	6.308721542E0
1.274067236E0	1.470039845E0	1.765723801E1	6.576871872E0
1.275723884E0	1.855506301E0	1.700362015E1	6.691793919E0
1.278130351E0	2.185906172E0	1.635000420E1	6.682217121E0
1.279355807E0	2.456450939E0	1.569638634E1	6.586448669E0
1.282186159E0	2.640804529E0	1.502122116E1	6.397306919E0
1.283820692E0	2.729389906E0	1.433648014E1	6.112396717E0
1.286249159E0	2.760514498E0	1.370441055E1	5.758055210E0
1.287522845E0	2.734178305E0	1.312261963E1	5.358223438E0
1.290311467E0	2.643198729E0	1.259350109E1	4.984727859E0
1.291962538E0	2.537853718E0	1.210029507E1	4.651933670E0
1.294357351E0	2.451662540E0	1.161906052E1	4.357447147E0
1.295674422E0	2.408566952E0	1.115458584E1	4.127603531E0
1.298414082E0	2.384624958E0	1.073081207E1	3.974374771E0
1.300064961E0	2.394201756E0	1.012268448E1	3.794809580E0
1.302372884E0	2.403778553E0	9.931148529E0	3.727771997E0
1.303728922E0	2.434903145E0	9.555258751E0	3.550601006E0
1.306532428E0	2.477998734E0	9.200917244E0	3.325546265E0
1.308072307E0	2.533065319E0	8.882488251E0	3.057395458E0
1.310662582E0	2.609679937E0	8.585607529E0	2.734178305E0
1.311912076E0	2.674323320E0	8.319850922E0	2.341529369E0
1.314753890E0	2.705447912E0	7.984662533E0	1.687912226E0
1.316367499E0	2.755726099E0	7.762001991E0	1.247379065E0
1.318831851E0	2.820369720E0	7.572859764E0	8.116343617E-1
1.320052922E0	2.877830505E0	7.410054207E0	3.782838583E-1
1.322888274E0	2.940079689E0	7.254431248E0	-4.309562966E-2
1.324450499E0	2.973598480E0	7.129932880E0	-4.525041282E-1
1.326951005E0	2.968810081E0	7.048529625E0	-8.523358107E-1
1.328147384E0	2.968810081E0	6.986280441E0	-1.206677675E0
1.331006928E0	2.971204281E0	6.936002254E0	-1.465251446E0
1.332612422E0	2.964021683E0	6.897695065E0	-1.460463047E0
1.335038236E0	2.952050686E0	6.849811077E0	-1.132457376E0
1.336383653E0	2.937685490E0	6.818686485E0	-7.230489254E-1
1.339094082E0	2.918531895E0	6.830657482E0	-4.237737060E-1
1.340710884E0	2.904166698E0	6.907271862E0	-2.633621991E-1
1.342994038E0	2.887407303E0	7.065289021E0	-2.992752194E-1
1.344383653E0	2.820369720E0	7.295132637E0	-5.051765442E-1
1.347226659E0	2.671929121E0	7.558494568E0	-8.954314590E-1
1.348934730E0	2.516305923E0	7.793126583E0	-1.450886250E0
1.351303005E0	2.355894566E0	8.020575523E0	-2.116474390E0
1.352605576E0	2.197877169E0	8.231265068E0	-2.779668093E0
1.355358774E0	2.032677174E0	8.415618896E0	-3.275267839E0
1.356937345E0	1.843535304E0	8.559270859E0	-3.526659012E0
1.359422120E0	1.666364431E0	8.638279915E0	-3.550601006E0
1.360630191E0	1.520318031E0	8.643068314E0	-3.299209833E0
1.363478043E0	1.400607944E0	8.609549522E0	-2.834734917E0
1.365067807E0	1.194706678E0	8.578424454E0	-1.898601890E0
1.367554774E0	1.120486379E0	8.585607529E0	-1.589749932E0
1.368804345E0	9.888052940E-1	8.655038834E0	-1.055842996E0
1.371610889E0	8.499416113E-1	8.786720276E0	-5.889736414E-1
1.373204191E0	6.751648784E-1	8.990227699E0	5.985504389E-2
1.375640466E0	6.368576288E-1	9.038111687E0	2.537853718E-1
1.377078268E0	5.913678408E-1	9.107542992E0	5.698199868E-1
1.379696851E0	5.434837937E-1	9.145850182E0	9.888052940E-1
1.381274961E0	5.554547906E-1	9.153033257E0	1.319205165E0
1.383614653E0	5.985504389E-1	9.155426979E0	1.517923832E0
1.384940999E0	6.464344859E-1	9.157821655E0	1.642422318E0
1.387813966E0	6.823474765E-1	9.188945770E0	1.618480325E0
1.389148730E0	7.326257229E-1	9.220070839E0	1.486799240E0
1.391928582E0	7.876923680E-1	9.227252960E0	1.271321058E0
1.393171845E0	8.236053586E-1	9.220070839E0	1.089361787E0
1.396019466E0	8.259995580E-1	9.212887764E0	9.576807022E-1
1.397602576E0	7.900865674E-1	9.188945770E0	8.930372596E-1
1.400081505E0	7.829039693E-1	9.129091263E0	8.355764151E-1
1.401321807E0	8.236053586E-1	9.076418877E0	7.398083210E-1
1.404137274E0	8.810662031E-1	9.004592896E0	6.153098345E-1
1.405690884E0	9.457096457E-1	8.908824921E0	4.860229492E-1
1.408201812E0	9.935936928E-1	8.805873871E0	3.495534360E-1
1.409383384E0	1.060631394E0	8.686163902E0	1.915361285E-1
1.412258812E0	1.134851575E0	8.564059258E0	7.422025502E-2
1.413848422E0	1.206677675E0	8.463502884E0	2.394201700E-3
1.416303697E0	1.319205165E0	8.350975990E0	-2.633621916E-2
1.417551076E0	1.443703651E0	8.238448143E0	-1.915361360E-2
1.420359928E0	1.568202138E0	8.188169479E0	7.661445439E-2
1.422108961E0	1.783680320E0	8.252813339E0	3.854664862E-1
1.424216999E0	1.862688899E0	8.307879448E0	4.955997467E-1
1.425665922E0	2.063801765E0	8.463502884E0	7.015010715E-1
1.428477466E0	2.288856745E0	8.597578049E0	8.810662031E-1
1.429945115E0	2.595314741E0	8.726864815E0	1.144428372E0
1.432527428E0	2.686294317E0	8.750806808E0	1.211466074E0
1.433762576E0	2.868253708E0	8.786720276E0	1.309628367E0
1.436583504E0	3.076549292E0	8.827422142E0	1.359906554E0
1.438157230E0	3.402160645E0	8.906430244E0	1.371877551E0
1.440660389E0	3.500322819E0	8.935160637E0	1.369483352E0
1.441887230E0	3.677493811E0	8.997409821E0	1.357512355E0
1.444716389E0	3.916913986E0	9.121908188E0	1.304839969E0
1.446337576E0	4.048594952E0	9.224859238E0	1.261744261E0
1.448779351E0	4.189853191E0	9.323021889E0	1.201889277E0
1.449999538E0	4.304774761E0	9.416395187E0	1.127668977E0
1.452835351E0	4.357447147E0	9.519346237E0	1.051054597E0
1.454422307E0	4.376600742E0	9.631873131E0	9.481038451E-1
1.456865043E0	4.340687752E0	9.732429504E0	8.188169599E-1
1.458074384E0	4.235342979E0	9.832986832E0	7.086837292E-1
1.460921197E0	4.077325344E0	9.947908401E0	6.512228847E-1
1.462535038E0	3.916913986E0	1.006282997E1	6.296750307E-1
1.464815922E0	3.768473387E0	1.016338634E1	5.985504389E-1
1.466182884E0	3.660734415E0	1.026873112E1	5.817909837E-1
1.469022389E0	3.603273630E0	1.038365269E1	5.913678408E-1
1.470405499E0	3.531447411E0	1.049618053E1	6.320692301E-1
1.473135197E0	3.416525841E0	1.059673691E1	6.679822803E-1
1.474378230E0	3.265691042E0	1.067813969E1	6.967126727E-1
1.477226274E0	3.114856482E0	1.074757099E1	7.158663273E-1
1.478814922E0	2.964021683E0	1.080024433E1	7.134721279E-1
1.481288697E0	2.774879694E0	1.083615685E1	6.703764796E-1
1.482495999E0	2.552218914E0	1.085291672E1	6.033388376E-1
1.485345312E0	2.363077164E0	1.086488724E1	5.243301988E-1
1.487052114E0	2.176329374E0	1.086009884E1	4.357447028E-1
1.489422274E0	2.102109194E0	1.084333992E1	4.118026793E-1
1.490625076E0	1.908178806E0	1.081221485E1	3.663128614E-1
1.493478620E0	1.745373011E0	1.081460953E1	3.351882398E-1
1.495303576E0	1.934514999E0	1.098220348E1	3.950432837E-1
1.497508120E0	2.092532396E0	1.105881786E1	4.189853072E-1
1.498801653E0	2.303221941E0	1.113543224E1	4.022258818E-1
1.501563350E0	2.343923569E0	1.112824917E1	2.609679997E-1
1.503208038E0	2.303221941E0	1.111149025E1	7.661445439E-2
1.505540422E0	2.252943754E0	1.112346077E1	8.379705995E-2
1.506852576E0	2.097320795E0	1.116895103E1	1.771709323E-1
1.509681812E0	1.783680320E0	1.112585545E1	4.141969085E-1
1.511322268E0	1.608903527E0	1.097980881E1	5.746083856E-1
1.513722696E0	1.520318031E0	1.085770512E1	6.368576288E-1
1.514950614E0	1.422155857E0	1.079066753E1	4.165911078E-1
1.517778966E0	1.221042871E0	1.071165848E1	-3.830722719E-2
1.519479038E0	9.720458984E-1	1.052012253E1	-4.501099288E-1
1.521841620E0	8.379706144E-1	1.020648193E1	-5.937620401E-1
1.523071114E0	9.193734527E-1	9.864110947E0	-4.908113480E-1
1.525897350E0	1.127668977E0	9.607931137E0	-3.136404157E-1
1.527557538E0	1.261744261E0	9.428366661E0	-2.082955539E-1
1.529959966E0	1.331176162E0	9.279925346E0	-1.963245422E-1
1.531217999E0	1.493981838E0	9.153033257E0	-2.250549644E-1
1.534016081E0	1.644816518E0	8.975862503E0	-2.442085743E-1
1.535620768E0	1.656787634E0	8.789113998E0	-2.801215947E-1
1.538060235E0	1.608903527E0	8.667010307E0	-3.567360640E-1
1.539325807E0	1.604115129E0	8.595184326E0	-4.237737060E-1
1.542116543E0	1.623268723E0	8.523358345E0	-4.692635238E-1
1.543737538E0	1.640028119E0	8.463502884E0	-4.979939461E-1
1.546051884E0	1.651999116E0	8.420407295E0	-5.003881454E-1
1.547555884E0	1.654393315E0	8.367734909E0	-4.836287498E-1
1.550233966E0	1.661576033E0	8.310274124E0	-4.429273009E-1
1.551600345E0	1.659181833E0	8.262390137E0	-3.734954596E-1
1.554335235E0	1.640028119E0	8.233659744E0	-2.609679997E-1
1.555724614E0	1.635239720E0	8.231265068E0	-1.029506698E-1
1.558425235E0	1.618480325E0	8.255207062E0	8.140286058E-2
1.560024768E0	1.549048543E0	8.327033043E0	4.070142806E-1
1.562501773E0	1.527500629E0	8.370129585E0	5.123591423E-1
1.563700768E0	1.491587639E0	8.473079681E0	7.230489254E-1
1.566556889E0	1.505952835E0	8.583212852E0	9.289502501E-1
1.568274153E0	1.675941229E0	8.734047890E0	1.254561663E0
1.570585504E0	1.750161409E0	8.779537201E0	1.362300754E0
1.571782845E0	1.891419291E0	8.865729332E0	1.580173135E0
1.574640773E0	1.991975784E0	8.944737434E0	1.778891921E0
1.576259961E0	2.094926596E0	9.059659004E0	2.032677174E0
1.578669158E0	2.169146776E0	9.095572472E0	2.183511972E0
1.579889153E0	2.209848166E0	9.109937668E0	2.260126352E0
1.582724196E0	2.336740971E0	9.160215378E0	2.432508945E0
1.584360999E0	2.394201756E0	9.165003777E0	2.480392933E0
1.586644114E0	2.408566952E0	9.126696587E0	2.470816135E0
1.588018653E0	2.375048161E0	9.071630478E0	2.413355350E0
1.590854081E0	2.315192938E0	9.030928612E0	2.303221941E0
1.592342730E0	2.260126352E0	8.997409821E0	2.152387381E0
1.594905696E0	2.212242365E0	8.971074104E0	1.987187386E0
1.596141114E0	2.193088770E0	8.947132111E0	1.845929503E0
1.598961081E0	2.212242365E0	8.932766914E0	1.719036818E0
1.600542730E0	2.257732153E0	8.927978516E0	1.587355733E0
1.603022350E0	2.305616140E0	8.920795441E0	1.446097851E0
1.604292345E0	2.329558372E0	8.904036522E0	1.300051570E0
1.607077312E0	2.358288765E0	8.899248123E0	1.154005170E0
1.608669576E0	2.398990154E0	8.908824921E0	1.031900883E0
1.611154158E0	2.449268341E0	8.920795441E0	9.576807022E-1
1.612384153E0	2.504334927E0	8.925583839E0	8.762778044E-1
1.615209235E0	2.557007313E0	8.937555313E0	8.092401624E-1
1.616846961E0	2.602497339E0	8.961497307E0	7.398083210E-1
1.619238581E0	2.643198729E0	8.997409821E0	6.847416759E-1
1.620635961E0	2.674323320E0	9.014169693E0	6.440402865E-1
1.623294658E0	2.676717520E0	9.009381294E0	6.009446383E-1
1.624937384E0	2.679111719E0	9.004592896E0	5.578489900E-1
1.627209614E0	2.707842112E0	9.026140213E0	5.291185975E-1
1.628674807E0	2.755726099E0	9.074024200E0	5.219359994E-1
1.631412773E0	2.782062292E0	9.109937668E0	5.315127969E-1
1.632768345E0	2.782062292E0	9.119514465E0	5.339069963E-1
1.635529581E0	2.803610086E0	9.105149269E0	5.315127969E-1
1.636869999E0	2.901772499E0	9.059659004E0	5.626373887E-1
1.639619696E0	3.007117271E0	8.997409821E0	6.272808313E-1
1.641189807E0	2.973598480E0	8.973467827E0	6.584054828E-1
1.643679773E0	2.832340717E0	8.992621422E0	6.296750307E-1
1.645066653E0	2.691082716E0	9.045293808E0	5.937620401E-1
1.647735658E0	2.650381327E0	9.095572472E0	5.793967843E-1
1.649309807E0	2.679111719E0	9.121908188E0	6.033388376E-1
1.651797311E0	2.726995707E0	9.136273384E0	6.488286853E-1
1.653039999E0	2.779668093E0	9.157821655E0	7.230489254E-1
1.655854273E0	2.820369720E0	9.179368973E0	8.259995580E-1
1.657466730E0	2.832340717E0	9.191340446E0	9.385270476E-1
1.659899927E0	2.779668093E0	9.208099365E0	1.029506683E0
1.661161230E0	2.643198729E0	9.229647636E0	1.072602391E0
1.663955619E0	2.528276920E0	9.184157372E0	1.115697980E0
1.665534999E0	2.492363930E0	9.112331390E0	1.194706678E0
1.667896614E0	2.499546528E0	9.074024200E0	1.283292055E0
1.669335114E0	2.518700123E0	9.052476883E0	1.362300754E0
1.672072581E0	2.533065319E0	9.030928612E0	1.434126854E0
1.673532384E0	2.561795712E0	9.016563416E0	1.501164436E0
1.676118157E0	2.621650934E0	8.995016098E0	1.580173135E0
1.677390922E0	2.698265314E0	8.973467827E0	1.666364431E0
1.680174311E0	2.758120298E0	8.975862503E0	1.757344007E0
1.681767268E0	2.820369720E0	8.985439301E0	1.848323703E0
1.684250888E0	2.906560898E0	9.002198219E0	1.932120800E0
1.685560884E0	2.990357876E0	9.026140213E0	2.013523579E0
1.688306080E0	3.052607059E0	9.071630478E0	2.094926596E0
1.689881268E0	3.129221678E0	9.121908188E0	2.173935175E0
1.692368119E0	3.201047659E0	9.155426979E0	2.243366957E0
1.693605307E0	3.280056238E0	9.184157372E0	2.305616140E0
1.696423465E0	3.349488258E0	9.222464561E0	2.355894566E0
1.698060653E0	3.411737442E0	9.282320023E0	2.403778553E0
1.700452773E0	3.430891037E0	9.294290543E0	2.415749550E0
1.701732691E0	3.466804028E0	9.313444138E0	2.432508945E0
1.704508119E0	3.505111217E0	9.323021889E0	2.425326347E0
1.706145037E0	3.509899616E0	9.330204010E0	2.384624958E0
1.708431076E0	3.485957623E0	9.339780807E0	2.367865562E0
1.709836845E0	3.447650433E0	9.354146004E0	2.319981337E0
1.712640350E0	3.440467834E0	9.346963882E0	2.250549555E0
1.714126614E0	3.457227230E0	9.344569206E0	2.123656988E0
1.716752311E0	3.447650433E0	9.351752281E0	2.035071373E0
1.718222999E0	3.430891037E0	9.361329079E0	1.944091797E0
1.720843965E0	3.418920040E0	9.380482674E0	1.855506301E0
1.722524345E0	3.414131641E0	9.397241592E0	1.766920805E0
1.724905465E0	3.402160645E0	9.421183586E0	1.690306425E0
1.726135037E0	3.414131641E0	9.435548782E0	1.620874524E0
1.728961965E0	3.584120035E0	9.452308655E0	1.472434044E0
1.730576999E0	4.029441357E0	9.476250648E0	1.120486379E0
1.733038734E0	4.608838081E0	9.502586365E0	7.158663273E-1
1.734274307E0	4.824316502E0	9.586383820E0	6.033388376E-1
1.737095580E0	4.422090530E0	9.758766174E0	8.427590132E-1
1.738705076E0	3.852270603E0	9.885659218E0	1.355118155E0
1.741126157E0	3.433285236E0	9.962273598E0	1.802833915E0
1.742484460E0	3.208230257E0	1.008198357E1	1.917755604E0
1.745182003E0	3.210624456E0	1.020648193E1	1.819593310E0
1.746765114E0	3.378218651E0	1.029267311E1	1.683123827E0
1.749057730E0	3.581725836E0	1.033576870E1	1.594538331E0
1.750486384E0	3.677493811E0	1.035252857E1	1.534683347E0
1.753298580E0	3.634398222E0	1.033816338E1	1.546654344E0
1.754841884E0	3.541024208E0	1.033337498E1	1.618480325E0
1.757335772E0	3.421314240E0	1.033576870E1	1.711854219E0
1.758544268E0	3.251325846E0	1.031661510E1	1.819593310E0
1.761390772E0	3.086126089E0	1.030703831E1	1.917755604E0
1.762982191E0	3.047818661E0	1.035971069E1	2.008735180E0
1.765453157E0	3.033453465E0	1.036928749E1	2.027888775E0
1.766657345E0	2.942473888E0	1.035731697E1	2.070984364E0
1.769508734E0	2.817975283E0	1.030703831E1	2.123656988E0
1.771085384E0	2.700659513E0	1.018732834E1	2.159569979E0
1.773571426E0	2.698265314E0	1.013944435E1	2.157175779E0
1.774799499E0	2.683900118E0	1.002931118E1	2.106897593E0
1.777632311E0	2.636016130E0	9.909601212E0	2.025494576E0
1.779385383E0	2.652775526E0	9.780313492E0	1.845929503E0
1.781677695E0	2.748543501E0	9.730035782E0	1.702277422E0
1.782887383E0	2.885013103E0	9.696516991E0	1.577778935E0
1.785733272E0	3.026270866E0	9.689333916E0	1.458068848E0
1.787395422E0	3.143586874E0	9.686940193E0	1.367089152E0
1.789643768E0	3.234566450E0	9.694122314E0	1.321599364E0
1.790999807E0	3.347094059E0	9.706093788E0	1.264138460E0
1.793851888E0	3.473986626E0	9.648633003E0	1.218648672E0
1.795350730E0	3.574543238E0	9.524134636E0	1.218648672E0
1.797920426E0	3.655946016E0	9.375694275E0	1.230619669E0
1.799208922E0	3.751713991E0	9.193734169E0	1.175553083E0
1.801975118E0	3.883395195E0	9.004592896E0	1.029506683E0
1.803709460E0	4.034229755E0	8.853757858E0	8.451532125E-1
1.806050772E0	4.170699596E0	8.738836288E0	6.799532771E-1
1.807242576E0	4.288015366E0	8.645462036E0	5.626373887E-1
1.810105849E0	4.369418144E0	8.576030731E0	5.003881454E-1
1.811806191E0	4.405331135E0	8.511386871E0	5.171475410E-1
1.814165311E0	4.460397720E0	8.465897560E0	6.033388376E-1
1.815375883E0	4.515464306E0	8.418013573E0	6.512228847E-1
1.818220080E0	4.498704910E0	8.350975990E0	6.847416759E-1
1.819827230E0	4.402936935E0	8.283937454E0	7.158663273E-1
1.822250003E0	4.242525578E0	8.221688271E0	7.422025204E-1
1.823483153E0	4.110844135E0	8.190564156E0	7.781155705E-1
1.826305541E0	3.931279182E0	8.118738174E0	8.331822157E-1
1.827909268E0	3.586514235E0	8.010998726E0	8.882488012E-1
1.830382311E0	3.531447411E0	8.039729118E0	8.906430602E-1
1.831591768E0	3.464409828E0	8.159439087E0	8.978256583E-1
1.834438041E0	3.483563423E0	8.315062523E0	9.026140571E-1
1.835979807E0	3.746925592E0	8.611943245E0	8.547300100E-1
1.838479118E0	3.835511208E0	8.698134422E0	8.451532125E-1
1.839724076E0	3.993528366E0	8.856152534E0	8.212111592E-1
1.842534541E0	4.082113743E0	8.983044624E0	8.140285611E-1
1.844138153E0	4.161122322E0	9.169792175E0	8.331822157E-1
1.846596541E0	4.177882195E0	9.224859238E0	8.379706144E-1
1.847829691E0	4.228160381E0	9.323021889E0	8.355764151E-1
1.850652234E0	4.340687752E0	9.418789864E0	7.996633649E-1
1.852315076E0	4.374206543E0	9.466673851E0	7.829039693E-1
1.854729272E0	4.374206543E0	9.507374763E0	7.900865674E-1
1.856001537E0	4.362235546E0	9.528923035E0	8.140285611E-1
1.858785195E0	4.338293552E0	9.550470352E0	8.307880163E-1
1.860374037E0	4.326322556E0	9.569623947E0	8.547300100E-1
1.862813887E0	4.311957359E0	9.588777542E0	8.882488012E-1
1.864147614E0	4.290409565E0	9.605537415E0	9.097966552E-1
1.866869387E0	4.244919777E0	9.588777542E0	9.002198577E-1
1.868501614E0	4.180276394E0	9.569623947E0	8.738836050E-1
1.870842691E0	4.108449936E0	9.562441826E0	8.906430602E-1
1.872162883E0	4.053383350E0	9.536105156E0	9.026140571E-1
1.874986503E0	3.950432777E0	9.497797966E0	8.475474119E-1
1.876554383E0	3.840299606E0	9.485827446E0	8.068459630E-1
1.879030618E0	3.792415380E0	9.481039047E0	8.283938169E-1
1.880308191E0	3.706224203E0	9.423578262E0	7.996633649E-1
1.883085810E0	3.569754839E0	9.349357605E0	7.254431248E-1
1.884803691E0	3.543418407E0	9.339780807E0	7.685387731E-1
1.887147887E0	3.569754839E0	9.337387085E0	8.451532125E-1
1.888373499E0	3.567360640E0	9.255983353E0	8.092401624E-1
1.891204003E0	3.526659012E0	9.198522568E0	7.852981687E-1
1.892937076E0	3.545812607E0	9.191340446E0	8.930372596E-1
1.895265810E0	3.603273630E0	9.145850182E0	9.600749016E-1
1.896473806E0	3.576937437E0	9.052476883E0	9.265560508E-1
1.899320772E0	3.560178041E0	9.035717010E0	1.024718285E0
1.900917691E0	3.734954596E0	9.033323288E0	1.266532660E0
1.903363657E0	3.828328609E0	9.002198219E0	1.285686255E0
1.904675691E0	3.842693806E0	8.863334656E0	1.199495077E0
1.907418580E0	3.696647406E0	8.836998940E0	1.192312479E0
1.908993922E0	3.722983599E0	8.882488251E0	1.374271750E0
1.911322960E0	3.818751812E0	8.872911453E0	1.407790542E0
1.912725691E0	4.039018154E0	8.825027466E0	1.426944256E0
1.915533503E0	4.034229755E0	8.664615631E0	1.343147159E0
1.917034730E0	3.672705412E0	8.542511940E0	1.218648672E0
1.919576041E0	3.730166197E0	8.571242332E0	1.247379065E0
1.920796306E0	4.029441357E0	8.638279915E0	1.338358760E0
1.923631118E0	4.307168961E0	8.714894295E0	1.350329757E0
1.925233960E0	4.276044369E0	8.700529099E0	1.292868972E0
1.927708080E0	4.132391930E0	8.645462036E0	1.204283476E0
1.928932922E0	3.928884983E0	8.568847656E0	1.089361787E0
1.931763464E0	3.756502390E0	8.494627953E0	9.983820915E-1
1.933341653E0	3.620033026E0	8.451532364E0	9.385270476E-1
1.935825387E0	3.550601006E0	8.439560890E0	8.762778044E-1
1.937033922E0	3.512293816E0	8.449137688E0	8.116343617E-1
1.939884233E0	3.478775024E0	8.461109161E0	7.589619160E-1
1.941487037E0	3.440467834E0	8.451532364E0	7.158663273E-1
1.943914156E0	3.418920040E0	8.451532364E0	6.871358752E-1
1.945153999E0	3.426102638E0	8.458714485E0	6.799532771E-1
1.947968964E0	3.445256233E0	8.468291283E0	6.895300746E-1
1.949562768E0	3.404554844E0	8.480262756E0	7.134721279E-1
1.951884306E0	3.224989653E0	8.535328865E0	7.637503147E-1
1.953337960E0	3.134010077E0	8.540117264E0	7.972691655E-1
1.956099156E0	3.189076662E0	8.499416351E0	7.996633649E-1
1.957444230E0	3.289633036E0	8.463502884E0	7.972691655E-1
1.960218426E0	3.337517262E0	8.439560890E0	8.307880163E-1
1.961490345E0	3.339911461E0	8.422801971E0	8.834604025E-1
1.964307618E0	3.344699860E0	8.410830498E0	9.241618514E-1
1.965898806E0	3.421314240E0	8.377311707E0	9.361328483E-1
1.968368156E0	3.457227230E0	8.360552788E0	9.313444495E-1
1.969596076E0	3.495534420E0	8.336610794E0	9.241618514E-1
1.972422387E0	3.517082214E0	8.315062523E0	9.265560508E-1
1.974064691E0	3.598485231E0	8.300697327E0	9.409212470E-1
1.976498118E0	3.639186621E0	8.295908928E0	9.385270476E-1
1.977729114E0	3.727771997E0	8.293514252E0	9.193734527E-1
1.980552656E0	3.849876404E0	8.336610794E0	9.002198577E-1
1.982134653E0	4.072536945E0	8.425195694E0	9.121908545E-1
1.984582387E0	4.146757126E0	8.439560890E0	9.169792533E-1
1.985930345E0	4.280832767E0	8.494627953E0	9.313444495E-1
1.988637695E0	4.484339714E0	8.552088737E0	9.313444495E-1
1.990408883E0	4.627991676E0	8.554482460E0	9.217676520E-1
1.992584153E0	4.821922302E0	8.604761124E0	9.002198577E-1
1.994023306E0	5.030217648E0	8.698134422E0	8.762778044E-1
1.996752964E0	5.171475887E0	8.781931877E0	9.026140571E-1
1.998429191E0	5.233725071E0	8.858546257E0	9.983820915E-1
2.000807964E0	5.286397457E0	8.925583839E0	1.118092179E0
2.002237499E0	5.310339451E0	8.980650902E0	1.216254473E0
2.004862887E0	5.274426460E0	8.995016098E0	1.292868972E0
2.006493729E0	5.219359875E0	8.971074104E0	1.383848548E0
2.008922810E0	5.190629482E0	8.968679428E0	1.472434044E0
2.010224306E0	5.183446884E0	9.018958092E0	1.544260144E0
2.012977618E0	5.207388878E0	9.066842079E0	1.589749932E0
2.014624768E0	5.284003258E0	9.138668060E0	1.620874524E0
2.017039079E0	5.418078423E0	9.272743225E0	1.685518026E0
2.018297153E0	5.583278179E0	9.538499832E0	1.781286120E0
2.021094195E0	5.310339451E0	1.011789608E1	1.802833915E0
2.022814460E0	5.073313236E0	1.067813969E1	1.774103403E0
2.025138579E0	5.011064053E0	1.095586681E1	1.845929503E0
2.026368691E0	4.759673119E0	1.096304989E1	1.929726601E0
2.029193848E0	4.050989151E0	1.078827286E1	1.929726601E0
2.030873076E0	3.050212860E0	1.051772785E1	1.853112102E0
2.033162653E0	2.178723574E0	1.025197124E1	1.719036818E0
2.034498806E0	1.716642618E0	1.006043530E1	1.637633920E0
2.037311271E0	1.654393315E0	9.959878922E0	1.637633920E0
2.038825153E0	1.860294700E0	9.883264542E0	1.690306425E0
2.041375041E0	2.118868589E0	9.770736694E0	1.721431017E0
2.042681037E0	2.252943754E0	9.586383820E0	1.651999116E0
2.045430079E0	2.272097349E0	9.358934402E0	1.482010841E0
2.047096499E0	2.535459518E0	9.040505409E0	1.271321058E0
2.049505502E0	2.688688517E0	8.951920509E0	1.228225470E0
2.051025922E0	3.011905670E0	8.856152534E0	1.168370485E0
2.053560694E0	3.387795448E0	8.839392662E0	1.132457376E0
2.055419460E0	3.873818398E0	8.822632790E0	1.089361787E0
2.057621271E0	3.943250179E0	8.781931877E0	9.864110947E-1
2.058853729E0	3.833117008E0	8.726864815E0	8.451532125E-1
2.061675771E0	3.706224203E0	8.695740700E0	7.374141216E-1
2.063283883E0	3.658340216E0	8.729259491E0	7.230489254E-1
2.065737041E0	3.615244627E0	8.822632790E0	7.565677166E-1
2.066981653E0	3.387795448E0	8.904036522E0	7.038952708E-1
2.069791964E0	3.148375273E0	8.927978516E0	6.607996821E-1
2.071530653E0	3.002328873E0	8.923190117E0	6.823474765E-1
2.073755537E0	2.940079689E0	8.923190117E0	7.206547260E-1
2.075341806E0	2.971204281E0	8.959102631E0	7.661445141E-1
2.077924040E0	3.011905670E0	9.006986618E0	8.020575643E-1
2.079412845E0	2.961627483E0	9.035717010E0	7.781155705E-1
2.081966694E0	2.806004286E0	9.114726067E0	7.422025204E-1
2.083418460E0	2.588132143E0	9.227252960E0	6.679822803E-1
2.086021233E0	2.456450939E0	9.277531624E0	6.057330370E-1
2.087654999E0	2.377442360E0	9.277531624E0	5.961562395E-1
2.090080156E0	2.296039343E0	9.246406555E0	6.153098345E-1
2.091305653E0	2.190694571E0	9.203310966E0	6.129156351E-1
2.094135233E0	2.123656988E0	9.191340446E0	6.033388376E-1
2.095744422E0	2.166752577E0	9.212887764E0	6.679822803E-1
2.098210117E0	2.257732153E0	9.241618156E0	7.589619160E-1
2.099437576E0	2.346317768E0	9.255983353E0	8.379706144E-1
2.102268925E0	2.430114746E0	9.248801231E0	9.169792533E-1
2.103959152E0	2.545036316E0	9.186552048E0	1.015141487E0
2.106298348E0	2.580949545E0	9.165003777E0	1.041477680E0
2.107532076E0	2.643198729E0	9.181763649E0	1.118092179E0
2.110353079E0	2.705447912E0	9.222464561E0	1.211466074E0
2.112089922E0	2.774879694E0	9.279925346E0	1.340752959E0
2.114323729E0	2.784456491E0	9.301473618E0	1.371877551E0
2.115638345E0	2.789244890E0	9.332598686E0	1.429338455E0
2.118468540E0	2.798821688E0	9.339780807E0	1.474828243E0
2.119882999E0	2.726995707E0	9.303867340E0	1.498770237E0
2.122511117E0	2.671929121E0	9.287108421E0	1.482010841E0
2.123727960E0	2.566584110E0	9.265560150E0	1.450886250E0
2.126565925E0	2.482787132E0	9.263166428E0	1.441309452E0
2.128244614E0	2.317587137E0	9.236829758E0	1.414973259E0
2.130595656E0	2.257732153E0	9.215282440E0	1.395819545E0
2.131908537E0	2.178723574E0	9.172186852E0	1.369483352E0
2.134651848E0	2.164358377E0	9.145850182E0	1.350329757E0
2.136395383E0	2.217030764E0	9.145850182E0	1.357512355E0
2.138714002E0	2.281674147E0	9.150638580E0	1.367089152E0
2.139924037E0	2.351106167E0	9.157821655E0	1.369483352E0
2.142770233E0	2.446874142E0	9.165003777E0	1.364694953E0
2.144485691E0	2.564189911E0	9.184157372E0	1.371877551E0
2.146814848E0	2.688688517E0	9.208099365E0	1.369483352E0
2.148079614E0	2.839523315E0	9.222464561E0	1.383848548E0
2.150871271E0	3.028665066E0	9.229647636E0	1.436521053E0
2.152550345E0	3.138798475E0	9.232041359E0	1.460463047E0
2.154779576E0	3.160346270E0	9.224859238E0	1.426944256E0
2.156220768E0	3.129221678E0	9.212887764E0	1.374271750E0
2.158988348E0	3.102885485E0	9.212887764E0	1.333570361E0
2.160625614E0	3.071760893E0	9.227252960E0	1.292868972E0
2.163026732E0	3.055001259E0	9.267954826E0	1.237802267E0
2.164314114E0	3.040636063E0	9.279925346E0	1.185129881E0
2.167081579E0	3.023876667E0	9.277531624E0	1.139639974E0
2.168710229E0	3.028665066E0	9.289502144E0	1.094150186E0
2.171157579E0	3.023876667E0	9.296685219E0	1.015141487E0
2.172376306E0	2.995146275E0	9.301473618E0	9.289502501E-1
2.175212579E0	2.959233284E0	9.296685219E0	8.690952063E-1
2.176981037E0	2.918531895E0	9.291896820E0	8.044517636E-1
2.179274079E0	2.885013103E0	9.291896820E0	7.469909191E-1
2.180597845E0	2.868253708E0	9.282320023E0	7.254431248E-1
2.183329771E0	2.834734917E0	9.255983353E0	7.230489254E-1
2.184957076E0	2.901772499E0	9.215282440E0	7.326257229E-1
2.187360271E0	2.952050686E0	9.220070839E0	7.422025204E-1
2.188860729E0	3.021482468E0	9.220070839E0	7.709329724E-1
2.191416463E0	3.028665066E0	9.208099365E0	8.188169599E-1
2.193124691E0	2.925714493E0	9.208099365E0	8.954314590E-1
2.195329037E0	2.873042107E0	9.205705643E0	9.217676520E-1
2.196730537E0	2.731784105E0	9.186552048E0	9.792284966E-1
2.199548809E0	2.631227732E0	9.169792175E0	1.051054597E0
2.200929345E0	2.494758129E0	9.227252960E0	1.130063176E0
2.203669617E0	2.238578558E0	9.296685219E0	1.240196466E0
2.205058152E0	2.291250944E0	9.299078941E0	1.340752959E0
2.207759078E0	2.533065319E0	9.315838814E0	1.364694953E0
2.209467460E0	2.719813108E0	9.366117477E0	1.364694953E0
2.211821271E0	2.841917515E0	9.368511200E0	1.381454349E0
2.213055383E0	2.920926094E0	9.320627213E0	1.395819545E0
2.215875040E0	2.964021683E0	9.284713745E0	1.400607944E0
2.217484152E0	3.031059265E0	9.296685219E0	1.460463047E0
2.219951463E0	3.050212860E0	9.267954826E0	1.498770237E0
2.221249345E0	3.002328873E0	9.210494041E0	1.465251446E0
2.224007001E0	2.949656487E0	9.212887764E0	1.467645645E0
2.225643037E0	2.949656487E0	9.275136948E0	1.496376038E0
2.228036617E0	2.952050686E0	9.337387085E0	1.462857246E0
2.229454883E0	2.952050686E0	9.380482674E0	1.383848548E0
2.232092963E0	2.961627483E0	9.433155060E0	1.316810966E0
2.233839037E0	2.774879694E0	9.536105156E0	1.288080573E0
2.236032306E0	2.430114746E0	9.658209801E0	1.199495077E0
2.237459191E0	2.439691544E0	9.660603523E0	1.072602391E0
2.240211694E0	2.628833532E0	9.488221169E0	1.079784989E0
2.241805229E0	2.834734917E0	9.210494041E0	1.228225470E0
2.244262732E0	3.373430252E0	8.851364136E0	1.747767210E0
2.245494806E0	3.725377798E0	8.530540466E0	2.027888775E0
2.248318501E0	3.766079187E0	8.331821442E0	1.960851192E0
2.249979806E0	3.828328609E0	8.140285492E0	1.817199111E0
2.252381540E0	3.869029999E0	8.099584579E0	1.769315004E0
2.253696383E0	3.991134167E0	8.073247910E0	1.671152830E0
2.256437271E0	4.118026733E0	8.094796181E0	1.599326730E0
2.258168960E0	4.158728123E0	8.180987358E0	1.539471745E0
2.260498809E0	4.110844135E0	8.224082947E0	1.520318031E0
2.261717729E0	4.007893562E0	8.303091049E0	1.438915253E0
2.264557809E0	3.909731388E0	8.382100105E0	1.331176162E0
2.266173575E0	3.706224203E0	8.549694061E0	1.194706678E0
2.268601694E0	3.574543238E0	8.693346024E0	1.118092179E0
2.269888075E0	3.564966440E0	8.836998940E0	1.094150186E0
2.272656847E0	3.672705412E0	8.954314232E0	1.139639974E0
2.274278383E0	3.801992416E0	9.030928612E0	1.213860273E0
2.276558922E0	3.888183594E0	9.074024200E0	1.285686255E0
2.277965306E0	3.957615376E0	9.095572472E0	1.328781962E0
2.280773463E0	4.065354347E0	9.102754593E0	1.345541358E0
2.282118075E0	4.199429989E0	9.179368973E0	1.371877551E0
2.284883617E0	4.299986362E0	9.301473618E0	1.424550056E0
2.286195152E0	4.364629745E0	9.399636269E0	1.474828243E0
2.288973578E0	4.424484730E0	9.459490776E0	1.513135433E0
2.290639268E0	4.486733913E0	9.526528358E0	1.525106430E0
2.293048424E0	4.503493309E0	9.588777542E0	1.513135433E0
2.294252268E0	4.469974518E0	9.627084732E0	1.484405041E0
2.297103463E0	4.386177540E0	9.631873131E0	1.479616642E0
2.298686229E0	4.256890774E0	9.603142738E0	1.460463047E0
2.301165232E0	4.153939724E0	9.574412346E0	1.422155857E0
2.302394806E0	4.058171749E0	9.528923035E0	1.398213744E0
2.305219809E0	3.936067581E0	9.478644371E0	1.369483352E0
2.306821383E0	3.804386616E0	9.440337181E0	1.316810966E0
2.309250309E0	3.699041605E0	9.399636269E0	1.252167463E0
2.310477537E0	3.603273630E0	9.361329079E0	1.187524080E0
2.313305232E0	3.500322819E0	9.315838814E0	1.125274777E0
2.315021422E0	3.383007050E0	9.232041359E0	1.072602391E0
2.317240691E0	3.363853455E0	9.208099365E0	1.055842996E0
2.318676037E0	3.349488258E0	9.172186852E0	1.022324085E0
2.321436270E0	3.418920040E0	9.145850182E0	1.003170490E0
2.322980768E0	3.615244627E0	9.102754593E0	1.010353088E0
2.325488693E0	3.622427225E0	9.071630478E0	1.024718285E0
2.326798383E0	3.620033026E0	9.016563416E0	1.058237195E0
2.329544501E0	3.648763418E0	8.992621422E0	1.103726983E0
2.331304691E0	3.655946016E0	8.966285706E0	1.175553083E0
2.333606463E0	3.718195200E0	8.937555313E0	1.204283476E0
2.334835729E0	3.833117008E0	8.899248123E0	1.213860273E0
2.337662578E0	3.952826977E0	8.858546257E0	1.242590666E0
2.339400845E0	4.029441357E0	8.825027466E0	1.280897856E0
2.341740924E0	4.046200752E0	8.825027466E0	1.309628367E0
2.342972845E0	3.960009575E0	8.853757858E0	1.326387763E0
2.345796770E0	3.840299606E0	8.877699852E0	1.307234168E0
2.347432883E0	3.751713991E0	8.892065048E0	1.252167463E0
2.349826001E0	3.653551817E0	8.894459724E0	1.206677675E0
2.351065498E0	3.529053211E0	8.884882927E0	1.161187768E0
2.353882270E0	3.411737442E0	8.882488251E0	1.108515382E0
2.355712575E0	3.315969467E0	8.906430244E0	1.067813993E0
2.357808191E0	3.251325846E0	8.944737434E0	1.036689281E0
2.359277345E0	3.236960649E0	8.971074104E0	1.003170490E0
2.362000693E0	3.296815634E0	8.973467827E0	9.720458984E-1
2.363672729E0	3.380612850E0	8.968679428E0	9.672574997E-1
2.366127155E0	3.442862034E0	8.956708908E0	9.911994934E-1
2.367438152E0	3.495534420E0	8.937555313E0	1.039083481E0
2.370217616E0	3.529053211E0	8.918401718E0	1.091755986E0
2.372080498E0	3.608062029E0	8.896853447E0	1.139639974E0
2.374279424E0	3.725377798E0	8.877699852E0	1.185129881E0
2.375500922E0	3.883395195E0	8.889671326E0	1.218648672E0
2.378336039E0	4.024652958E0	8.913613319E0	1.237802267E0
2.379960037E0	4.156333923E0	8.944737434E0	1.249773264E0
2.382399693E0	4.180276394E0	8.956708908E0	1.259350061E0
2.383722883E0	4.209006786E0	8.985439301E0	1.297657371E0
2.386455578E0	4.220977783E0	9.026140213E0	1.323993564E0
2.388087268E0	4.261679173E0	9.078812599E0	1.304839969E0
2.390499885E0	4.244919777E0	9.093177795E0	1.297657371E0
2.391736383E0	4.170699596E0	9.121908188E0	1.292868972E0
2.394555616E0	4.118026733E0	9.165003777E0	1.285686255E0
2.396426922E0	3.960009575E0	9.239224434E0	1.271321058E0
2.398483729E0	3.885789394E0	9.265560150E0	1.278503656E0
2.399924345E0	3.881000996E0	9.287108421E0	1.268926859E0
2.402673462E0	3.897760391E0	9.299078941E0	1.252167463E0
2.404176575E0	3.931279182E0	9.311050415E0	1.240196466E0
2.406714693E0	3.998316765E0	9.327810287E0	1.228225470E0
2.407989768E0	4.036623955E0	9.337387085E0	1.221042871E0
2.410770039E0	4.029441357E0	9.342175484E0	1.213860273E0
2.412383998E0	4.000710964E0	9.346963882E0	1.199495077E0
2.414846770E0	4.015076160E0	9.351752281E0	1.189918280E0
2.416129922E0	4.084507942E0	9.334992409E0	1.177947283E0
2.418901770E0	4.125209332E0	9.318233490E0	1.146822572E0
2.420499460E0	4.139574528E0	9.306262016E0	1.098938584E0
2.422963001E0	4.129997730E0	9.272743225E0	1.058237195E0
2.424199652E0	4.072536945E0	9.236829758E0	1.043871999E0
2.427020924E0	4.000710964E0	9.227252960E0	1.022324085E0
2.428699729E0	3.952826977E0	9.215282440E0	9.983820915E-1
2.431050001E0	3.900154591E0	9.193734169E0	9.672574997E-1
2.432290960E0	3.825934410E0	9.160215378E0	9.193734527E-1
2.435105270E0	3.787626982E0	9.109937668E0	8.834604025E-1
2.436728691E0	3.799597979E0	9.054870605E0	8.595184088E-1
2.439087845E0	3.816357613E0	8.995016098E0	8.283938169E-1
2.440407768E0	3.766079187E0	8.942343712E0	7.996633649E-1
2.443235654E0	3.665522814E0	8.908824921E0	7.733271718E-1
2.444627845E0	3.629609823E0	8.880094528E0	7.493851185E-1
2.447355039E0	3.790021181E0	8.813055992E0	7.302315235E-1
2.448642268E0	3.952826977E0	8.738836288E0	7.062895298E-1
2.451445270E0	3.878606796E0	8.743624687E0	7.110779285E-1
2.453102883E0	3.881000996E0	8.678980827E0	7.661445141E-1
2.455506116E0	3.950432777E0	8.635885239E0	7.805097699E-1
2.456756960E0	4.003105164E0	8.609549522E0	7.852981687E-1
2.459561077E0	4.010287762E0	8.556877136E0	8.283938169E-1
2.461180306E0	3.979163170E0	8.547300339E0	8.547300100E-1
2.463637001E0	3.924096584E0	8.583212852E0	8.595184088E-1
2.464872845E0	3.878606796E0	8.621520042E0	8.427590132E-1
2.467691808E0	3.806780815E0	8.681375504E0	8.355764151E-1
2.469326421E0	3.754108191E0	8.710105896E0	8.331822157E-1
2.471720616E0	3.708618402E0	8.748413086E0	8.355764151E-1
2.473075575E0	3.687070608E0	8.760383606E0	8.379706144E-1
2.475775154E0	3.651157618E0	8.746018410E0	8.451532125E-1
2.477386421E0	3.632004023E0	8.736441612E0	8.595184088E-1
2.479807537E0	3.622427225E0	8.757989883E0	8.762778044E-1
2.481136652E0	3.620033026E0	8.791508675E0	8.930372596E-1
2.483889693E0	3.588908434E0	8.820239067E0	9.145850539E-1
2.485406268E0	3.550601006E0	8.836998940E0	9.457096457E-1
2.487932231E0	3.521870613E0	8.832210541E0	9.888052940E-1
2.489414037E0	3.505111217E0	8.793902397E0	1.005564690E0
2.491987347E0	3.512293816E0	8.810662270E0	1.027112484E0
2.493589421E0	3.509899616E0	8.932766914E0	1.027112484E0
2.496048424E0	3.483563423E0	9.102754593E0	9.959878922E-1
2.497407614E0	3.481169224E0	9.236829758E0	9.528923035E-1
2.500103423E0	3.488351822E0	9.294290543E0	8.882488012E-1
2.501742191E0	3.452438831E0	9.289502144E0	8.044517636E-1
2.504131962E0	3.375824451E0	9.251194954E0	7.182605267E-1
2.505394191E0	3.280056238E0	9.186552048E0	6.607996821E-1
2.508185923E0	3.179499865E0	9.121908188E0	6.153098345E-1
2.509814421E0	3.081337690E0	9.076418877E0	5.458779931E-1
2.512229577E0	3.023876667E0	9.050082207E0	5.075707436E-1
2.513752537E0	2.990357876E0	9.045293808E0	5.243301988E-1
2.516284500E0	3.021482468E0	9.064447403E0	5.746083856E-1
2.517993729E0	3.141192675E0	9.109937668E0	6.320692301E-1
2.520196768E0	3.186682463E0	9.138668060E0	6.440402865E-1
2.521568652E0	3.289633036E0	9.220070839E0	6.679822803E-1
2.524400346E0	3.363853455E0	9.325415611E0	6.823474765E-1
2.525888845E0	3.387795448E0	9.452308655E0	6.847416759E-1
2.528511270E0	3.335123062E0	9.579200745E0	6.536170840E-1
2.529759652E0	3.268085241E0	9.689333916E0	5.913678408E-1
2.532599308E0	3.126827478E0	9.792284966E0	4.908113480E-1
2.534378537E0	2.990357876E0	9.806650162E0	4.309563041E-1
2.536675693E0	2.851494312E0	9.806650162E0	4.022258818E-1
2.537907729E0	2.748543501E0	9.806650162E0	3.974374831E-1
2.540730462E0	2.667140722E0	9.828198433E0	4.094084799E-1
2.542335537E0	2.595314741E0	9.840168953E0	4.261679053E-1
2.544790731E0	2.523488522E0	9.821015358E0	4.477157295E-1
2.546018498E0	2.473210335E0	9.770736694E0	4.692635238E-1
2.548845654E0	2.430114746E0	9.725247383E0	5.003881454E-1
2.550445921E0	2.382230759E0	9.674968719E0	5.267243981E-1
2.552874000E0	2.343923569E0	9.612719536E0	5.554547906E-1
2.554145691E0	2.315192938E0	9.548076630E0	5.817909837E-1
2.556929500E0	2.300827742E0	9.478644371E0	6.081272364E-1
2.558842114E0	2.296039343E0	9.411606789E0	6.320692301E-1
2.560931344E0	2.308010340E0	9.344569206E0	6.368576288E-1
2.562249498E0	2.322375536E0	9.275136948E0	6.248866320E-1
2.565061039E0	2.363077164E0	9.215282440E0	5.961562395E-1
2.566587460E0	2.446874142E0	9.165003777E0	5.626373887E-1
2.569107154E0	2.568978310E0	9.119514465E0	5.386953950E-1
2.570351614E0	2.698265314E0	9.074024200E0	5.171475410E-1
2.573161885E0	2.820369720E0	9.035717010E0	4.836287498E-1
2.574766344E0	2.937685490E0	9.014169693E0	4.477157295E-1
2.577223039E0	3.062183857E0	8.999804497E0	4.094084799E-1
2.578458652E0	3.174711466E0	8.992621422E0	3.758896589E-1
2.581277615E0	3.272873640E0	8.990227699E0	3.471592367E-1
2.582932998E0	3.402160645E0	8.992621422E0	3.280056417E-1
2.585353077E0	3.440467834E0	8.990227699E0	3.256114423E-1
2.586602152E0	3.497928619E0	8.997409821E0	3.256114423E-1
2.589412539E0	3.538630009E0	9.009381294E0	3.351882398E-1
2.590999806E0	3.622427225E0	9.035717010E0	3.926490843E-1
2.593439962E0	3.651157618E0	9.054870605E0	4.213795066E-1
2.594690960E0	3.725377798E0	9.114726067E0	4.740519226E-1
2.597494846E0	3.813963413E0	9.193734169E0	5.291185975E-1
2.599080075E0	3.955221176E0	9.332598686E0	6.224924326E-1
2.601371191E0	4.027047157E0	9.430760384E0	6.679822803E-1
2.602753383E0	4.077325344E0	9.526528358E0	6.991068721E-1
2.605609615E0	4.101267338E0	9.605537415E0	7.182605267E-1
2.607031768E0	4.106055737E0	9.660603523E0	7.254431248E-1
2.609653231E0	4.072536945E0	9.694122314E0	7.110779285E-1
2.610891691E0	4.024652958E0	9.734824181E0	6.895300746E-1
2.613708346E0	3.969586372E0	9.768342972E0	6.655880809E-1
2.615288691E0	3.900154591E0	9.782708168E0	6.272808313E-1
2.617771308E0	3.818751812E0	9.780313492E0	5.698199868E-1
2.618978998E0	3.773261786E0	9.749189377E0	5.171475410E-1
2.621826692E0	3.775655985E0	9.682151794E0	4.932055473E-1
2.623407537E0	3.739742994E0	9.595960617E0	4.932055473E-1
2.625888731E0	3.629609823E0	9.507374763E0	5.003881454E-1
2.627212344E0	3.490746021E0	9.406818390E0	5.051765442E-1
2.629944346E0	3.361459255E0	9.308655739E0	5.243301988E-1
2.631544229E0	3.210624456E0	9.208099365E0	5.578489900E-1
2.633988692E0	3.055001259E0	9.100360870E0	5.889736414E-1
2.635274537E0	2.932897091E0	8.987833023E0	6.009446383E-1
2.638044538E0	2.794033289E0	8.880094528E0	6.081272364E-1
2.639665729E0	2.607285738E0	8.781931877E0	6.200982332E-1
2.641950421E0	2.394201756E0	8.710105896E0	6.272808313E-1
2.643310114E0	2.205059767E0	8.657433510E0	6.320692301E-1
2.646162654E0	2.068590164E0	8.609549522E0	6.296750307E-1
2.647680421E0	1.972822189E0	8.566453934E0	6.200982332E-1
2.650197423E0	1.917755604E0	8.523358345E0	6.177040339E-1
2.651391267E0	1.927332401E0	8.501810074E0	6.200982332E-1
2.654252884E0	1.968033791E0	8.492233276E0	6.129156351E-1
2.655861267E0	2.070984364E0	8.494627953E0	6.009446383E-1
2.658331615E0	2.123656988E0	8.499416351E0	5.985504389E-1
2.659532075E0	2.250549555E0	8.525752068E0	5.913678408E-1
2.662387192E0	2.384624958E0	8.566453934E0	5.889736414E-1
2.663952883E0	2.614468336E0	8.628703117E0	5.961562395E-1
2.666448923E0	2.712630510E0	8.650250435E0	5.961562395E-1
2.667695421E0	2.923320293E0	8.702922821E0	5.961562395E-1
2.670503615E0	3.136404276E0	8.762778282E0	6.153098345E-1
2.672119998E0	3.433285236E0	8.856152534E0	6.584054828E-1
2.674532769E0	3.581725836E0	8.927978516E0	6.847416759E-1
2.675794729E0	3.636792421E0	8.959102631E0	6.943184733E-1
2.678587538E0	3.746925592E0	9.021351814E0	7.302315235E-1
2.680287460E0	3.751713991E0	9.062053680E0	7.613561153E-1
2.682570691E0	3.718195200E0	9.117119789E0	7.852981687E-1
2.683922998E0	3.655946016E0	9.191340446E0	7.876923680E-1
2.686718423E0	3.560178041E0	9.234436035E0	7.948749661E-1
2.688080460E0	3.466804028E0	9.275136948E0	8.188169599E-1
2.690836346E0	3.411737442E0	9.327810287E0	8.547300100E-1
2.692186191E0	3.366247654E0	9.356540680E0	9.169792533E-1
2.694926192E0	3.308786631E0	9.404424667E0	9.840168953E-1
2.696571344E0	3.292027235E0	9.466673851E0	1.036689281E0
2.698987846E0	3.368641853E0	9.512163162E0	1.091755986E0
2.700385306E0	3.459621429E0	9.545681953E0	1.149216771E0
2.703043461E0	3.562572241E0	9.562441826E0	1.201889277E0
2.704664921E0	3.605667830E0	9.591172218E0	1.254561663E0
2.707120653E0	3.572149038E0	9.672574997E0	1.312022567E0
2.708345306E0	3.600879431E0	9.765948296E0	1.345541358E0
2.711175384E0	3.687070608E0	9.854534149E0	1.326387763E0
2.712785306E0	3.773261786E0	9.945513725E0	1.244984865E0
2.715204807E0	3.847482204E0	1.008437729E1	1.125274777E0
2.716449152E0	3.945644379E0	1.025915432E1	9.720458984E-1
2.719260461E0	3.931279182E0	1.037647057E1	8.690952063E-1
2.720923652E0	3.713406801E0	1.040041256E1	7.900865674E-1
2.723271537E0	3.629609823E0	1.037168217E1	7.709329724E-1
2.724544114E0	3.471592426E0	1.027112484E1	7.326257229E-1
2.727378346E0	3.308786631E0	1.013704967E1	6.943184733E-1
2.728925267E0	3.007117271E0	9.923966408E0	6.440402865E-1
2.731421461E0	2.887407303E0	9.849745750E0	6.392518282E-1
2.732641152E0	2.638410330E0	9.662998199E0	6.655880809E-1
2.735477500E0	2.415749550E0	9.461885452E0	6.775590777E-1
2.737053075E0	2.193088770E0	9.200917244E0	6.991068721E-1
2.739540653E0	2.109291792E0	9.040505409E0	7.302315235E-1
2.740758114E0	2.099714994E0	8.892065048E0	7.565677166E-1
2.743596307E0	2.126051188E0	8.767566681E0	7.613561153E-1
2.745186460E0	2.207453966E0	8.655038834E0	7.876923680E-1
2.747658884E0	2.331952572E0	8.549694061E0	8.116343617E-1
2.748875537E0	2.477998734E0	8.465897560E0	8.020575643E-1
2.751719076E0	2.621650934E0	8.408436775E0	7.709329724E-1
2.753339844E0	2.770091295E0	8.398859978E0	7.445967197E-1
2.755762923E0	2.896984100E0	8.434772491E0	6.919242740E-1
2.757020267E0	3.033453465E0	8.487444878E0	6.464344859E-1
2.759819115E0	3.177105665E0	8.530540466E0	6.153098345E-1
2.761656229E0	3.294421434E0	8.568847656E0	5.817909837E-1
2.763699883E0	3.260902643E0	8.554482460E0	5.770025849E-1
2.765091767E0	3.167528868E0	8.554482460E0	5.865794420E-1
2.767935807E0	3.184288263E0	8.616731644E0	6.009446383E-1
2.769297575E0	3.282450438E0	8.676587105E0	6.703764796E-1
2.772047076E0	3.354276657E0	8.681375504E0	7.278373241E-1
2.773395383E0	3.339911461E0	8.686163902E0	8.236053586E-1
2.776137653E0	3.258508444E0	8.678980827E0	9.911994934E-1
2.777811844E0	3.241749048E0	8.686163902E0	1.079784989E0
2.780215653E0	3.294421434E0	8.714894295E0	1.103726983E0
2.781505998E0	3.481169224E0	8.827422142E0	1.177947283E0
2.784271538E0	3.715801001E0	8.937555313E0	1.271321058E0
2.785918075E0	3.833117008E0	9.004592896E0	1.326387763E0
2.788332499E0	3.888183594E0	9.033323288E0	1.328781962E0
2.789563652E0	4.022258759E0	9.066842079E0	1.300051570E0
2.792388115E0	4.094084740E0	9.066842079E0	1.240196466E0
2.794005767E0	4.134786129E0	9.112331390E0	1.173158884E0
2.796417922E0	4.113238335E0	9.129091263E0	1.137245774E0
2.797633806E0	4.067748547E0	9.188945770E0	1.041477680E0
2.800474230E0	4.074931145E0	9.267954826E0	9.528923035E-1
2.802096037E0	3.993528366E0	9.248801231E0	8.547300100E-1
2.804456498E0	3.866635799E0	9.186552048E0	8.212111592E-1
2.805961729E0	3.746925592E0	9.136273384E0	8.020575643E-1
2.808606422E0	3.658340216E0	9.117119789E0	7.900865674E-1
2.810106960E0	3.564966440E0	9.052476883E0	7.685387731E-1
2.812630692E0	3.390189648E0	8.942343712E0	7.541735172E-1
2.814033575E0	3.174711466E0	8.836998940E0	7.900865674E-1
2.816685768E0	2.983175278E0	8.746018410E0	8.283938169E-1
2.818290652E0	2.966415882E0	8.638279915E0	8.571242094E-1
2.820745961E0	2.961627483E0	8.576030731E0	8.667010069E-1
2.822114729E0	2.932897091E0	8.542511940E0	8.834604025E-1
2.824800768E0	2.944868088E0	8.501810074E0	8.930372596E-1
2.826413614E0	3.035847664E0	8.444349289E0	9.050082564E-1
2.828876922E0	3.100491285E0	8.420407295E0	9.169792533E-1
2.830198306E0	3.095702887E0	8.461109161E0	9.074024558E-1
2.832931884E0	3.110068083E0	8.475474358E0	8.978256583E-1
2.834544806E0	3.078943491E0	8.473079681E0	8.906430602E-1
2.836960461E0	2.995146275E0	8.508993149E0	9.145850539E-1
2.838339383E0	2.930502892E0	8.573636055E0	9.385270476E-1
2.841015230E0	2.885013103E0	8.621520042E0	9.648633003E-1
2.842653729E0	2.930502892E0	8.669404030E0	1.003170490E0
2.845006229E0	2.949656487E0	8.722076416E0	1.043871999E0
2.846287498E0	2.954444885E0	8.753201485E0	1.103726983E0
2.849131268E0	3.090914488E0	8.762778282E0	1.132457376E0
2.850500152E0	3.169923067E0	8.748413086E0	1.154005170E0
2.853255653E0	3.284844637E0	8.714894295E0	1.156399369E0
2.854585652E0	3.445256233E0	8.690952301E0	1.118092179E0
2.857345422E0	3.617638826E0	8.643068314E0	1.082179189E0
2.858987344E0	3.902548790E0	8.511386871E0	9.481038451E-1
2.861406845E0	3.955221176E0	8.470685959E0	9.074024558E-1
2.862654690E0	4.003105164E0	8.422801971E0	8.236053586E-1
2.865461537E0	4.003105164E0	8.410830498E0	7.374141216E-1
2.867075113E0	3.948038578E0	8.408436775E0	6.440402865E-1
2.869522768E0	3.902548790E0	8.441955566E0	6.105214357E-1
2.870796960E0	3.960009575E0	8.542511940E0	6.153098345E-1
2.873578114E0	4.170699596E0	8.633491516E0	5.482721925E-1
2.875316537E0	4.144362926E0	8.686163902E0	4.477157295E-1
2.877621422E0	3.897760391E0	8.722076416E0	3.998316824E-1
2.878961575E0	3.670311213E0	8.757989883E0	3.950432837E-1
2.881676384E0	3.627215624E0	8.825027466E0	4.094084799E-1
2.883485152E0	4.015076160E0	8.983044624E0	4.237737060E-1
2.885737653E0	4.417302132E0	9.109937668E0	3.639186621E-1
2.887314575E0	4.503493309E0	9.179368973E0	3.423708379E-1
2.889793460E0	4.458003521E0	9.205705643E0	3.112462163E-1
2.891395844E0	4.278438568E0	9.241618156E0	3.303998411E-1
2.893831768E0	4.328716755E0	9.404424667E0	3.926490843E-1
2.895059344E0	4.513070107E0	9.588777542E0	4.501099288E-1
2.897887614E0	4.460397720E0	9.658209801E0	5.027823448E-1
2.899508690E0	4.256890774E0	9.703699112E0	5.698199868E-1
2.901964384E0	4.192247391E0	9.777919769E0	6.296750307E-1
2.903201652E0	4.134786129E0	9.821015358E0	6.703764796E-1
2.906020422E0	4.043806553E0	9.804255486E0	6.943184733E-1
2.907639806E0	3.912125587E0	9.749189377E0	7.038952708E-1
2.910082307E0	3.873818398E0	9.727641106E0	7.158663273E-1
2.911658229E0	3.895366192E0	9.720458984E0	7.613561153E-1
2.914142576E0	3.900154591E0	9.708487511E0	8.020575643E-1
2.915744883E0	3.835511208E0	9.708487511E0	8.619126081E-1
2.918171883E0	3.744531393E0	9.744400978E0	9.385270476E-1
2.919413921E0	3.620033026E0	9.782708168E0	1.048660398E0
2.922228383E0	3.529053211E0	9.763554573E0	1.118092179E0
2.924145613E0	3.426102638E0	9.639056206E0	1.058237195E0
2.926179575E0	3.399766445E0	9.595960617E0	1.012747288E0
2.927544037E0	3.390189648E0	9.521739960E0	8.954314590E-1
2.930360653E0	3.330334663E0	9.464279175E0	7.805097699E-1
2.931798152E0	3.280056238E0	9.435548782E0	7.278373241E-1
2.934481383E0	3.239354849E0	9.406818390E0	6.727706790E-1
2.935830767E0	3.064578056E0	9.356540680E0	6.009446383E-1
2.938572691E0	3.129221678E0	9.337387085E0	6.320692301E-1
2.940229613E0	3.208230257E0	9.253589630E0	6.344634295E-1
2.942634999E0	3.155557871E0	9.203310966E0	6.057330370E-1
2.943918652E0	3.081337690E0	9.208099365E0	5.506663918E-1
2.946690999E0	3.066972494E0	9.203310966E0	5.027823448E-1
2.948381844E0	3.069366693E0	9.141061783E0	4.477157295E-1
2.950767153E0	3.047818661E0	9.064447403E0	4.022258818E-1
2.951986998E0	3.107673883E0	9.011775017E0	3.878606856E-1
2.954822999E0	3.169923067E0	8.956708908E0	3.926490843E-1
2.956453806E0	3.344699860E0	8.968679428E0	4.022258818E-1
2.958852883E0	3.500322819E0	8.971074104E0	3.830722570E-1
2.960084998E0	3.524264812E0	8.918401718E0	3.399766386E-1
2.962908691E0	3.481169224E0	8.860940933E0	3.423708379E-1
2.964616767E0	3.560178041E0	8.865729332E0	3.782838583E-1
2.966938806E0	3.790021181E0	8.805873871E0	3.830722570E-1
2.968180844E0	3.945644379E0	8.592789650E0	3.663128614E-1
2.970994383E0	3.955221176E0	8.492233276E0	3.830722570E-1
2.972866267E0	4.113238335E0	8.650250435E0	4.285621047E-1
2.975042614E0	4.220977783E0	8.841787338E0	5.243301988E-1
2.976436998E0	4.285621166E0	8.997409821E0	6.679822803E-1
2.979098306E0	4.551377296E0	9.109937668E0	7.015010715E-1
2.980762652E0	4.544194698E0	9.141061783E0	6.607996821E-1
2.983159922E0	4.110844135E0	9.117119789E0	6.919242740E-1
2.984444460E0	3.890577793E0	9.124302864E0	7.541735172E-1
2.987214614E0	4.228160381E0	9.294290543E0	7.350199223E-1
2.988937806E0	4.347870350E0	9.540893555E0	6.823474765E-1
2.991275999E0	4.213795185E0	9.557653427E0	6.871358752E-1
2.992497652E0	4.017470360E0	9.572018623E0	6.775590777E-1
2.995330922E0	4.072536945E0	9.624691010E0	6.129156351E-1
2.996952729E0	4.407725334E0	9.679757118E0	5.267243981E-1
2.999374268E0	4.572925091E0	9.773131371E0	4.908113480E-1
3.000683036E0	4.888959885E0	1.011550236E1	4.094084799E-1
3.003428729E0	5.046977043E0	1.048899746E1	3.734954596E-1
3.005321883E0	5.631162167E0	1.108754826E1	1.843535304E-1
3.007348883E0	5.940014362E0	1.149456215E1	-2.394201700E-3
3.009017421E0	5.995080948E0	1.167412758E1	-1.221042871E-1
3.011546345E0	5.908889771E0	1.222958183E1	-4.692635238E-1
3.012976344E0	5.839457989E0	1.253604031E1	-6.895300746E-1
3.015675575E0	5.772420406E0	1.300530338E1	-8.020575643E-1
3.016943652E0	5.360617638E0	1.336922264E1	-8.020575643E-1
3.019765460E0	4.711789131E0	1.355597019E1	-8.331822157E-1
3.021423190E0	4.113238335E0	1.372835255E1	-8.595184088E-1
3.023841998E0	3.529053211E0	1.386242771E1	-8.236053586E-1
3.025136844E0	2.834734917E0	1.385763931E1	-6.919242740E-1
3.027897421E0	2.015917778E0	1.367089176E1	-5.171475410E-1
3.029463767E0	1.192312479E0	1.334288597E1	-3.447650373E-1
3.031959306E0	5.267243981E-1	1.290714169E1	-1.843535304E-1
3.033199229E0	1.316810995E-1	1.241633034E1	-3.591302410E-2
3.036014768E0	-9.576806799E-3	1.190875912E1	1.460463107E-1
3.037887036E0	5.985504389E-2	1.139640045E1	3.423708379E-1
3.040046191E0	3.567360640E-1	1.088404083E1	5.075707436E-1
3.041288921E0	8.738836050E-1	1.038604736E1	6.200982332E-1
3.044101460E0	1.513135433E0	9.940725327E0	6.751648784E-1
3.045793536E0	2.099714994E0	9.600749016E0	7.134721279E-1
3.048177691E0	2.528276920E0	9.311050415E0	8.068459630E-1
3.049415075E0	2.923320293E0	8.935160637E0	9.289502501E-1
3.052233498E0	3.315969467E0	8.609549522E0	9.313444495E-1
3.053755075E0	3.730166197E0	8.494627953E0	8.978256583E-1
3.056313460E0	4.182670593E0	8.506598473E0	8.906430602E-1
3.057594536E0	4.544194698E0	8.518569946E0	9.145850539E-1
3.060368537E0	4.647145271E0	8.499416351E0	9.696516991E-1
3.061957075E0	4.395754337E0	8.403648376E0	1.082179189E0
3.064430498E0	4.256890774E0	8.360552788E0	1.120486379E0
3.065666806E0	3.919308186E0	8.259995461E0	1.197100878E0
3.068486229E0	3.162740469E0	8.147468567E0	1.261744261E0
3.070164806E0	2.638410330E0	8.082824707E0	1.273715258E0
3.072562152E0	2.169146776E0	8.003816605E0	1.285686255E0
3.073851729E0	1.783680320E0	7.917624950E0	1.297657371E0
3.076617652E0	1.513135433E0	7.852981567E0	1.312022567E0
3.078291536E0	1.335964561E0	7.752425194E0	1.309628367E0
3.080646806E0	1.240196466E0	7.651868820E0	1.300051570E0
3.081924190E0	1.278503656E0	7.582436562E0	1.266532660E0
3.084701960E0	1.434126854E0	7.539340973E0	1.237802267E0
3.086364306E0	1.656787634E0	7.515398979E0	1.223437071E0
3.088714998E0	1.936909199E0	7.491456985E0	1.182735682E0
3.089985613E0	2.236184359E0	7.441178799E0	1.122880578E0
3.092817921E0	2.554613113E0	7.362170219E0	1.048660398E0
3.094236383E0	2.868253708E0	7.292738438E0	9.768342972E-1
3.096928190E0	3.162740469E0	7.261613846E0	9.050082564E-1
3.098213344E0	3.428496838E0	7.252037048E0	8.283938169E-1
3.101018383E0	3.572149038E0	7.156269073E0	7.445967197E-1
3.102686498E0	3.636792421E0	7.055712223E0	6.631938815E-1
3.105080537E0	3.667917013E0	6.976703644E0	5.746083856E-1
3.106318959E0	3.643975019E0	6.916848660E0	4.908113480E-1
3.109136537E0	3.586514235E0	6.876147270E0	4.141969085E-1
3.110743498E0	3.550601006E0	6.861782074E0	3.399766386E-1
3.113199767E0	3.543418407E0	6.871358871E0	2.537853718E-1
3.114446883E0	3.538630009E0	6.907271862E0	1.795651317E-1
3.117254767E0	3.531447411E0	6.962338448E0	1.149216816E-1
3.118859767E0	3.505111217E0	7.060500622E0	5.506663769E-2
3.121298306E0	3.485957623E0	7.094019413E0	4.309562966E-2
3.122632844E0	3.447650433E0	7.165845871E0	3.351882473E-2
3.125353036E0	3.402160645E0	7.230489254E0	3.830722719E-2
3.126968383E0	3.356670856E0	7.333439827E0	6.464344263E-2
3.129294344E0	3.361459255E0	7.371747017E0	7.182604820E-2
3.130696652E0	3.414131641E0	7.467514992E0	9.576806426E-2
3.133467421E0	3.490746021E0	7.580042362E0	1.340752989E-1
3.135256306E0	3.596091032E0	7.754819393E0	2.178723514E-1
3.137518383E0	3.620033026E0	7.860164165E0	2.729389966E-1
3.138799383E0	3.615244627E0	7.958326340E0	3.423708379E-1
3.141573152E0	3.596091032E0	8.054094315E0	4.141969085E-1
3.143298306E0	3.562572241E0	8.145073891E0	4.908113480E-1
3.145648998E0	3.517082214E0	8.219294548E0	5.793967843E-1
3.146949306E0	3.452438831E0	8.271966934E0	6.703764796E-1
3.149705075E0	3.390189648E0	8.312667847E0	7.493851185E-1
3.151322113E0	3.339911461E0	8.348581314E0	8.188169599E-1
3.153767536E0	3.299209833E0	8.379706383E0	8.834604025E-1
3.155005036E0	3.272873640E0	8.415618896E0	9.385270476E-1
3.157823036E0	3.239354849E0	8.444349289E0	9.935936928E-1
3.159470729E0	3.203441858E0	8.453926086E0	1.048660398E0
3.161852383E0	3.174711466E0	8.463502884E0	1.094150186E0
3.163255459E0	3.155557871E0	8.477868080E0	1.120486379E0
3.165907498E0	3.124433279E0	8.494627953E0	1.137245774E0
3.167652767E0	3.076549292E0	8.504204750E0	1.146822572E0
3.169906652E0	3.035847664E0	8.499416351E0	1.154005170E0
3.171232190E0	3.007117271E0	8.489839554E0	1.154005170E0
3.174039882E0	2.990357876E0	8.475474358E0	1.146822572E0
3.175467729E0	3.002328873E0	8.470685959E0	1.125274777E0
3.178159421E0	3.016694069E0	8.475474358E0	1.103726983E0
3.179411998E0	3.031059265E0	8.485051155E0	1.082179189E0
3.182249421E0	3.057395458E0	8.506598473E0	1.048660398E0
3.183857998E0	3.114856482E0	8.542511940E0	1.007958889E0
3.186310805E0	3.131615877E0	8.556877136E0	9.911994934E-1
3.187530882E0	3.155557871E0	8.597578049E0	9.624691010E-1
3.190366305E0	3.172317266E0	8.659827232E0	9.361328483E-1
3.191980767E0	3.217807055E0	8.767566681E0	8.906430602E-1
3.194442882E0	3.244143248E0	8.805873871E0	8.762778044E-1
3.195668959E0	3.287238836E0	8.889671326E0	8.523358107E-1
3.198498652E0	3.394978046E0	9.028534889E0	8.212111592E-1
3.200102382E0	3.507505417E0	9.124302864E0	7.948749661E-1
3.202528036E0	3.629609823E0	9.239224434E0	7.733271718E-1
3.203877498E0	3.711012602E0	9.368511200E0	7.637503147E-1
3.206583421E0	3.742137194E0	9.483432770E0	7.613561153E-1
3.208190036E0	3.778050184E0	9.591172218E0	7.589619160E-1
3.210503382E0	3.787626982E0	9.715670586E0	7.661445141E-1
3.211974690E0	3.768473387E0	9.840168953E0	7.757213712E-1
3.214700728E0	3.744531393E0	9.962273598E0	7.661445141E-1
3.216215844E0	3.713406801E0	1.007001209E1	7.493851185E-1
3.218742228E0	3.737348795E0	1.017535686E1	7.302315235E-1
3.219979921E0	3.825934410E0	1.031182671E1	6.895300746E-1
3.222798267E0	3.904942989E0	1.046505547E1	6.464344859E-1
3.224410767E0	3.993528366E0	1.063743782E1	6.081272364E-1
3.226860190E0	4.139574528E0	1.080982113E1	5.602431893E-1
3.228080344E0	4.225766182E0	1.092953110E1	4.716577232E-1
3.230916190E0	4.201824188E0	1.098459721E1	3.974374831E-1
3.232531229E0	4.141968727E0	1.101332760E1	3.711012602E-1
3.234978075E0	4.201824188E0	1.107318306E1	3.399766386E-1
3.236213613E0	4.350264549E0	1.119049835E1	2.920926213E-1
3.239036844E0	4.438849926E0	1.130063248E1	2.825157940E-1
3.240729575E0	4.513070107E0	1.140118885E1	3.184288144E-1
3.243081651E0	4.596867085E0	1.146822643E1	3.639186621E-1
3.244340729E0	4.771644115E0	1.160948372E1	5.219359994E-1
3.247137228E0	5.097255230E0	1.181059742E1	7.709329724E-1
3.248942421E0	5.135562420E0	1.169328117E1	8.690952063E-1
3.251200074E0	4.963180065E0	1.152568722E1	8.044517636E-1
3.252478844E0	4.548983097E0	1.119049835E1	7.206547260E-1
3.255256074E0	4.144362926E0	1.095107841E1	7.589619160E-1
3.256605921E0	3.811569214E0	1.075714779E1	8.068459630E-1
3.259367421E0	3.493140221E0	1.067335129E1	9.145850539E-1
3.260649152E0	3.351882458E0	1.057518864E1	1.000776291E0
3.263458459E0	3.423708439E0	1.038125896E1	1.039083481E0
3.265134536E0	3.845088005E0	1.011789608E1	1.098938584E0
3.267535344E0	4.194641590E0	1.001494598E1	1.019929886E0
3.268768113E0	4.503493309E0	9.991003990E0	8.571242094E-1
3.271591344E0	4.690241337E0	1.006282997E1	6.464344859E-1
3.273184613E0	4.618414879E0	1.022802925E1	3.758896589E-1
3.275652997E0	4.321534157E0	1.039083576E1	-2.968810201E-1
3.276898075E0	4.192247391E0	1.042195988E1	-1.537077546E0
3.279709805E0	4.079719543E0	1.025197124E1	-3.098097086E0
3.281392459E0	3.708618402E0	9.883264542E0	-4.738125324E0
3.283739497E0	3.289633036E0	9.493009567E0	-6.093243122E0
3.284985805E0	3.074155092E0	9.282320023E0	-6.718130112E0
3.287794805E0	2.975992680E0	9.267954826E0	-6.313509941E0
3.289543267E0	2.901772499E0	9.337387085E0	-5.090072632E0
3.291869536E0	2.841917515E0	9.406818390E0	-3.466804028E0
3.293202382E0	2.707842112E0	9.471462250E0	-1.786074519E0
3.295924267E0	2.236184359E0	9.552865028E0	-2.896983922E-1
3.297501613E0	1.532289028E0	9.627084732E0	8.475474119E-1
3.299968536E0	1.036689281E0	9.672574997E0	1.484405041E0
3.301206690E0	7.757213712E-1	9.696516991E0	1.735796213E0
3.304023267E0	7.110779285E-1	9.672574997E0	1.762132406E0
3.305835729E0	7.757213712E-1	9.612719536E0	1.651999116E0
3.308085267E0	9.145850539E-1	9.557653427E0	1.470039845E0
3.309368921E0	1.180341482E0	9.502586365E0	1.230619669E0
3.312140767E0	1.541865945E0	9.425971985E0	1.043871999E0
3.313911267E0	2.078166962E0	9.284713745E0	7.685387731E-1
3.316217882E0	2.229001760E0	9.239224434E0	6.823474765E-1
3.317443382E0	2.497152328E0	9.129091263E0	5.674257874E-1
3.320273036E0	2.688688517E0	8.995016098E0	6.440402865E-1
3.321939152E0	2.825158119E0	8.774748802E0	1.170764685E0
3.324301382E0	2.858676910E0	8.688557625E0	1.419761658E0
3.325523152E0	2.880224705E0	8.506598473E0	1.989581585E0
3.328356459E0	2.820369720E0	8.339004517E0	2.592920542E0
3.330064152E0	2.736572504E0	8.034940720E0	3.452438831E0
3.332281344E0	2.738966703E0	7.898471355E0	3.711012602E0
3.333604382E0	2.810792685E0	7.596801758E0	4.137180328E0
3.336442420E0	2.932897091E0	7.331045628E0	4.429273129E0
3.337899267E0	3.131615877E0	7.479485989E0	4.438849926E0
3.340559113E0	3.126827478E0	7.948749542E0	4.175487995E0
3.341820805E0	2.889801502E0	8.355764389E0	3.933673382E0
3.344649766E0	2.525882721E0	8.611943245E0	3.778050184E0
3.346316459E0	2.207453966E0	8.765172005E0	3.677493811E0
3.348678997E0	1.936909199E0	8.817844391E0	3.593696833E0
3.349886382E0	1.680729628E0	8.801085472E0	3.507505417E0
3.352734228E0	1.513135433E0	8.746018410E0	3.375824451E0
3.354380459E0	1.441309452E0	8.705317497E0	3.236960649E0
3.356794997E0	1.455674648E0	8.695740700E0	3.122039080E0
3.358034652E0	1.532289028E0	8.726864815E0	2.999934673E0
3.360851420E0	1.613691926E0	8.760383606E0	2.863465309E0
3.362544382E0	1.637633920E0	8.690952301E0	2.765302896E0
3.364896036E0	1.625662923E0	8.571242332E0	2.688688517E0
3.366156536E0	1.608903527E0	8.465897560E0	2.609679937E0
3.368951612E0	1.611297727E0	8.422801971E0	2.528276920E0
3.370567113E0	1.697489023E0	8.456320763E0	2.473210335E0
3.372936959E0	1.874659896E0	8.621520042E0	2.425326347E0
3.374337575E0	1.980004787E0	8.858546257E0	2.403778553E0
3.377068343E0	1.932120800E0	9.078812599E0	2.451662540E0
3.378642344E0	1.778891921E0	9.181763649E0	2.511517525E0
3.381122882E0	1.460463047E0	9.107542992E0	2.427720547E0
3.382349152E0	1.177947283E0	9.054870605E0	2.085349798E0
3.385177882E0	1.137245774E0	9.009381294E0	1.580173135E0
3.386774113E0	1.462857246E0	9.009381294E0	6.536170840E-1
3.389253805E0	1.594538331E0	9.030928612E0	3.351882398E-1
3.390456728E0	1.754949808E0	9.071630478E0	-2.322375625E-1
3.393309343E0	1.821987510E0	9.121908188E0	-7.302315235E-1
3.394896459E0	1.939303398E0	9.330204010E0	-1.436521053E0
3.397372112E0	1.980004787E0	9.435548782E0	-1.651999116E0
3.398602267E0	2.075772762E0	9.639056206E0	-2.118868589E0
3.401428728E0	2.339135170E0	9.789890289E0	-3.016694069E0
3.403010613E0	3.191470861E0	9.938331604E0	-5.872976780E0
3.405458112E0	3.505111217E0	1.002691650E1	-7.175422668E0
3.406669075E0	3.019088268E0	1.015380955E1	-6.021417141E0
3.409513728E0	2.238578558E0	1.032619190E1	-3.730166197E0
3.411277228E0	1.678335428E0	1.049618053E1	-1.975216389E0
3.413472767E0	1.395819545E0	1.064462090E1	-1.046266198E0
3.414862459E0	1.256955862E0	1.077630138E1	-6.464344859E-1
3.417646266E0	1.185129881E0	1.088404083E1	-4.979939461E-1
3.418998652E0	1.134851575E0	1.098699188E1	-4.046200812E-1
3.421756843E0	1.103726983E0	1.108036518E1	-3.184288144E-1
3.423012690E0	1.082179189E0	1.115219116E1	-2.250549644E-1
3.425847535E0	1.089361787E0	1.122880554E1	-1.292868853E-1
3.427445228E0	1.115697980E0	1.129105568E1	-2.394201607E-2
3.429908612E0	1.120486379E0	1.132696819E1	9.816227108E-2
3.431295613E0	1.065419793E0	1.132696819E1	2.418143749E-1
3.433963766E0	9.983820915E-1	1.132217979E1	3.902548850E-1
3.435592882E0	1.015141487E0	1.135091019E1	5.147533417E-1
3.438040958E0	1.101332784E0	1.137964058E1	6.224924326E-1
3.439215536E0	1.194706678E0	1.138921738E1	7.206547260E-1
3.442096805E0	1.283292055E0	1.138442898E1	7.972691655E-1
3.443682998E0	1.323993564E0	1.134133339E1	8.834604025E-1
3.446127228E0	1.319205165E0	1.127668953E1	9.720458984E-1
3.447339728E0	1.304839969E0	1.121683502E1	1.046266198E0
3.450181997E0	1.276109457E0	1.116655636E1	1.113303781E0
3.451801305E0	1.247379065E0	1.108515358E1	1.175553083E0
3.454074959E0	1.237802267E0	1.105642319E1	1.197100878E0
3.455484421E0	1.206677675E0	1.099417400E1	1.237802267E0
3.458298381E0	1.122880578E0	1.091037750E1	1.285686255E0
3.459867382E0	8.188169599E-1	1.074038887E1	1.376665950E0
3.462354574E0	7.805097699E-1	1.070687008E1	1.395819545E0
3.463629690E0	8.020575643E-1	1.067335129E1	1.424550056E0
3.466409997E0	8.786720037E-1	1.064701462E1	1.434126854E0
3.468014652E0	9.840168953E-1	1.057758331E1	1.438915253E0
3.470471651E0	9.864110947E-1	1.051054573E1	1.438915253E0
3.471786267E0	9.672574997E-1	1.045308495E1	1.436521053E0
3.474526766E0	9.361328483E-1	1.041238308E1	1.441309452E0
3.476129036E0	8.236053586E-1	1.032858658E1	1.479616642E0
3.478588651E0	6.679822803E-1	1.023521233E1	1.529894829E0
3.479818575E0	6.248866320E-1	1.020169353E1	1.551442742E0
3.482643881E0	6.584054828E-1	1.021605873E1	1.549048543E0
3.484258652E0	7.278373241E-1	1.024000072E1	1.551442742E0
3.486687189E0	7.972691655E-1	1.020408726E1	1.553836942E0
3.487925844E0	8.188169599E-1	1.013944435E1	1.570596337E0
3.490742074E0	8.020575643E-1	1.007958889E1	1.584961534E0
3.492388075E0	7.900865674E-1	1.003170490E1	1.594538331E0
3.494615382E0	8.068459630E-1	1.000058079E1	1.604115129E0
3.496005767E0	8.427590132E-1	9.986215591E0	1.606509328E0
3.498857766E0	8.738836050E-1	9.974244118E0	1.611297727E0
3.500208536E0	9.097966552E-1	9.909601212E0	1.632845521E0
3.502968150E0	9.552865028E-1	9.818621635E0	1.663970232E0
3.504214998E0	1.012747288E0	9.744400978E0	1.673547029E0
3.507057804E0	1.005564690E0	9.658209801E0	1.707065821E0
3.508664344E0	9.624691010E-1	9.600749016E0	1.733402014E0
3.511133343E0	1.003170490E0	9.591172218E0	1.721431017E0
3.512354113E0	1.091755986E0	9.586383820E0	1.707065821E0
3.515188843E0	1.189918280E0	9.583989143E0	1.692700624E0
3.516767075E0	1.309628367E0	9.507374763E0	1.723825216E0
3.519250997E0	1.340752959E0	9.457097054E0	1.740584612E0
3.520521613E0	1.379060149E0	9.358934402E0	1.766920805E0
3.523305843E0	1.407790542E0	9.275136948E0	1.776497602E0
3.524899459E0	1.443703651E0	9.150638580E0	1.814804912E0
3.527334381E0	1.446097851E0	9.117119789E0	1.831564307E0
3.528540344E0	1.434126854E0	9.062053680E0	1.862688899E0
3.531390073E0	1.417367458E0	9.014169693E0	1.872265697E0
3.533001228E0	1.388636947E0	8.925583839E0	1.896207690E0
3.535305613E0	1.393425345E0	8.868123055E0	1.920149803E0
3.536668805E0	1.412579060E0	8.820239067E0	1.946485996E0
3.539522266E0	1.441309452E0	8.781931877E0	1.965639591E0
3.541072613E0	1.474828243E0	8.769960403E0	1.972822189E0
3.543548727E0	1.510741234E0	8.757989883E0	1.980004787E0
3.544782690E0	1.570596337E0	8.724471092E0	1.994369984E0
3.547604343E0	1.640028119E0	8.688557625E0	2.003946781E0
3.549197382E0	1.685518026E0	8.664615631E0	2.013523579E0
3.551666150E0	1.709460020E0	8.638279915E0	2.027888775E0
3.552867613E0	1.738190413E0	8.607154846E0	2.054224968E0
3.555720996E0	1.766920805E0	8.561665535E0	2.082955360E0
3.557358767E0	1.795651317E0	8.508993149E0	2.123656988E0
3.559795958E0	1.810016513E0	8.477868080E0	2.169146776E0
3.561004690E0	1.821987510E0	8.451532364E0	2.209848166E0
3.563853958E0	1.836352706E0	8.410830498E0	2.248155355E0
3.565438767E0	1.845929503E0	8.377311707E0	2.296039343E0
3.567882881E0	1.855506301E0	8.348581314E0	2.346317768E0
3.569094844E0	1.869871497E0	8.358158112E0	2.387019157E0
3.571937150E0	1.891419291E0	8.401253700E0	2.432508945E0
3.573599767E0	1.910573006E0	8.410830498E0	2.494758129E0
3.575914228E0	1.927332401E0	8.386888504E0	2.566584110E0
3.577196690E0	1.953668594E0	8.370129585E0	2.636016130E0
3.580054073E0	1.996764183E0	8.377311707E0	2.700659513E0
3.581451690E0	2.030282974E0	8.379706383E0	2.765302896E0
3.584097496E0	2.059013367E0	8.384494781E0	2.839523315E0
3.585295651E0	2.099714994E0	8.394071579E0	2.923320293E0
3.588152304E0	2.140416384E0	8.408436775E0	2.990357876E0
3.589778305E0	2.212242365E0	8.413225174E0	3.112462282E0
3.592181535E0	2.229001760E0	8.415618896E0	3.153163671E0
3.593384113E0	2.252943754E0	8.425195694E0	3.234566450E0
3.596236765E0	2.274491549E0	8.427590370E0	3.313575268E0
3.597830382E0	2.303221941E0	8.434772491E0	3.414131641E0
3.600297881E0	2.312798738E0	8.434772491E0	3.445256233E0
3.601615228E0	2.327163935E0	8.420407295E0	3.512293816E0
3.604352727E0	2.343923569E0	8.403648376E0	3.579331636E0
3.605979613E0	2.406172752E0	8.353369713E0	3.672705412E0
3.608395265E0	2.430114746E0	8.331821442E0	3.703830004E0
3.609594151E0	2.473210335E0	8.305485725E0	3.751713991E0
3.612450035E0	2.547430515E0	8.269572258E0	3.797203779E0
3.614142498E0	2.600103140E0	8.228871346E0	3.828328609E0
3.616362690E0	2.652775526E0	8.185775757E0	3.852270603E0
3.617733305E0	2.700659513E0	8.154650688E0	3.852270603E0
3.620566304E0	2.734178305E0	8.133103371E0	3.837905407E0
3.622038074E0	2.786850691E0	8.099584579E0	3.830722809E0
3.624595573E0	2.861071110E0	8.063671112E0	3.823540211E0
3.625809267E0	2.937685490E0	8.037335396E0	3.818751812E0
3.628650035E0	3.009511471E0	8.022970200E0	3.804386616E0
3.630228921E0	3.086126089E0	7.999027729E0	3.773261786E0
3.632726842E0	3.162740469E0	7.991845131E0	3.737348795E0
3.633986228E0	3.234566450E0	8.003816605E0	3.691859007E0
3.636781842E0	3.308786631E0	8.013393402E0	3.632004023E0
3.638342036E0	3.404554844E0	8.013393402E0	3.576937437E0
3.640810688E0	3.512293816E0	8.013393402E0	3.517082214E0
3.642009690E0	3.629609823E0	8.015787125E0	3.462015629E0
3.644865073E0	3.742137194E0	8.027758598E0	3.402160645E0
3.646460151E0	3.845088005E0	8.046912193E0	3.327940464E0
3.648893342E0	3.936067581E0	8.068459511E0	3.248931646E0
3.650100344E0	4.022258759E0	8.101978302E0	3.172317266E0
3.652946804E0	4.125209332E0	8.130708694E0	3.105279684E0
3.654560805E0	4.244919777E0	8.159439087E0	3.031059265E0
3.656927805E0	4.359841347E0	8.192957878E0	2.940079689E0
3.658238344E0	4.469974518E0	8.233659744E0	2.844311714E0
3.661076881E0	4.568136692E0	8.267178535E0	2.755726099E0
3.662510036E0	4.659116745E0	8.300697327E0	2.657563925E0
3.665196073E0	4.728548527E0	8.331821442E0	2.554613113E0
3.666424805E0	4.778826714E0	8.362946510E0	2.463633537E0
3.669285957E0	4.833893299E0	8.394071579E0	2.379836559E0
3.670915613E0	4.920084476E0	8.437167168E0	2.226607561E0
3.673347688E0	4.939238071E0	8.451532364E0	2.178723574E0
3.674558613E0	4.955997467E0	8.475474358E0	2.097320795E0
3.677402804E0	4.972756863E0	8.499416351E0	2.001552582E0
3.679016151E0	5.001487255E0	8.528146744E0	1.838746905E0
3.681446727E0	5.003881454E0	8.518569946E0	1.666364431E0
3.682651113E0	5.018246651E0	8.475474358E0	1.477222443E0
3.685502304E0	5.054159641E0	8.439560890E0	1.352723956E0
3.687096574E0	5.078101635E0	8.465897560E0	1.312022567E0
3.689531534E0	5.061342239E0	8.537723541E0	1.309628367E0
3.690721728E0	5.037400246E0	8.597578049E0	1.323993564E0
3.693586650E0	5.003881454E0	8.628703117E0	1.345541358E0
3.695235421E0	4.948814869E0	8.628703117E0	1.331176162E0
3.697571113E0	4.922478676E0	8.590395927E0	1.163581967E0
3.698861728E0	4.920084476E0	8.554482460E0	1.027112484E0
3.701705457E0	4.876988888E0	8.650250435E0	9.935936928E-1
3.703288228E0	4.683058739E0	8.793902397E0	9.600749016E-1
3.705742957E0	4.419696331E0	8.856152534E0	1.089361787E0
3.706942344E0	4.316745758E0	8.846575737E0	1.309628367E0
3.709798111E0	4.371812344E0	8.827422142E0	1.477222443E0
3.711387805E0	4.374206543E0	8.848969460E0	1.458068848E0
3.713858727E0	4.266467571E0	8.927978516E0	1.302445769E0
3.715062267E0	4.141968727E0	9.057265282E0	1.036689281E0
3.717913803E0	3.881000996E0	9.162610054E0	8.451532125E-1
3.719503882E0	3.545812607E0	9.186552048E0	8.212111592E-1
3.721974919E0	3.361459255E0	9.157821655E0	9.193734527E-1
3.723263574E0	3.284844637E0	9.093177795E0	1.106121182E0
3.726033457E0	3.172317266E0	8.990227699E0	1.225831270E0
3.727627151E0	3.057395458E0	8.916007042E0	1.125274777E0
3.730077150E0	3.098097086E0	8.846575737E0	9.504981041E-1
3.731291344E0	3.402160645E0	8.734047890E0	8.954314590E-1
3.734131957E0	3.811569214E0	8.583212852E0	9.768342972E-1
3.735719382E0	4.316745758E0	8.307879448E0	1.235408068E0
3.738019690E0	4.434061527E0	8.221688271E0	1.326387763E0
3.739403728E0	4.584896088E0	8.087613106E0	1.498770237E0
3.742248919E0	4.649539471E0	7.977479935E0	1.702277422E0
3.743579613E0	4.623203278E0	7.874529362E0	1.932120800E0
3.746358880E0	4.472368717E0	7.788338184E0	2.205059767E0
3.747596613E0	4.276044369E0	7.680599213E0	2.573766708E0
3.750447726E0	4.084507942E0	7.551311970E0	3.119644880E0
3.752035344E0	4.000710964E0	7.515398979E0	3.409343243E0
3.754524303E0	3.916913986E0	7.510610580E0	3.658340216E0
3.755752613E0	3.840299606E0	7.529764175E0	3.869029999E0
3.758580342E0	3.787626982E0	7.548917770E0	4.027047157E0
3.760281536E0	3.744531393E0	7.580042362E0	4.118026733E0
3.762642034E0	3.694253206E0	7.620744228E0	4.163516521E0
3.763864074E0	3.608062029E0	7.661445618E0	4.175487995E0
3.766696919E0	3.476380825E0	7.711723804E0	4.158728123E0
3.768270382E0	3.282450438E0	7.773972988E0	4.146757126E0
3.770725072E0	3.033453465E0	7.831433773E0	4.134786129E0
3.771936421E0	2.798821688E0	7.864952564E0	4.082113743E0
3.774779188E0	2.628833532E0	7.884106159E0	3.981557369E0
3.776389882E0	2.497152328E0	7.896077156E0	3.835511208E0
3.778697190E0	2.418143749E0	7.922413349E0	3.663128614E0
3.780243651E0	2.360682964E0	7.955932140E0	3.478775024E0
3.782910380E0	2.310404539E0	7.982268333E0	3.275267839E0
3.784427459E0	2.296039343E0	8.013393402E0	3.050212860E0
3.786948380E0	2.260126352E0	8.034940720E0	2.825158119E0
3.788258228E0	2.219424963E0	8.061277390E0	2.588132143E0
3.791003111E0	2.188300371E0	8.101978302E0	2.358288765E0
3.792582459E0	2.135627985E0	8.169015884E0	2.142810583E0
3.795065457E0	2.039859772E0	8.236053467E0	1.946485996E0
3.796286267E0	1.910573006E0	8.269572258E0	1.759738207E0
3.799119726E0	1.774103403E0	8.310274124E0	1.582567334E0
3.800797767E0	1.570596337E0	8.427590370E0	1.338358760E0
3.803194495E0	1.505952835E0	8.473079681E0	1.259350061E0
3.804378113E0	1.359906554E0	8.552088737E0	1.113303781E0
3.807248995E0	1.199495077E0	8.621520042E0	9.959878922E-1
3.808897151E0	9.744400978E-1	8.786720276E0	8.643068075E-1
3.811278342E0	8.978256583E-1	8.853757858E0	8.212111592E-1
3.812564921E0	7.422025204E-1	8.971074104E0	7.517793179E-1
3.815333918E0	5.793967843E-1	9.071630478E0	7.038952708E-1
3.816984421E0	3.711012602E-1	9.232041359E0	6.584054828E-1
3.819281651E0	2.681505978E-1	9.358934402E0	6.512228847E-1
3.820606420E0	2.178723514E-1	9.421183586E0	6.512228847E-1
3.823450265E0	2.633621916E-2	9.591172218E0	6.871358752E-1
3.824827767E0	-1.077390760E-1	9.703699112E0	7.326257229E-1
3.827564842E0	-2.250549644E-1	9.828198433E0	7.852981687E-1
3.828808344E0	-3.447650373E-1	9.962273598E0	8.212111592E-1
3.831654418E0	-4.525041282E-1	1.008677197E1	8.762778044E-1
3.833233305E0	-5.386953950E-1	1.019451046E1	9.528923035E-1
3.835716303E0	-6.153098345E-1	1.031422138E1	1.036689281E0
3.836940728E0	-6.847416759E-1	1.043393135E1	1.125274777E0
3.839771765E0	-7.374141216E-1	1.054406452E1	1.213860273E0
3.841341344E0	-7.996633649E-1	1.065898609E1	1.307234168E0
3.843834611E0	-9.097966552E-1	1.076672459E1	1.410184860E0
3.845047113E0	-1.019929886E0	1.086488724E1	1.517923832E0
3.847889841E0	-1.103726983E0	1.095107841E1	1.620874524E0
3.849488574E0	-1.161187768E0	1.102051067E1	1.721431017E0
3.851968688E0	-1.216254473E0	1.108754826E1	1.824381709E0
3.853187728E0	-1.271321058E0	1.115219116E1	1.917755604E0
3.856025495E0	-1.312022567E0	1.120965195E1	2.001552582E0
3.857643574E0	-1.319205165E0	1.125514221E1	2.082955360E0
3.859898574E0	-1.347935557E0	1.128626728E1	2.171540976E0
3.861289420E0	-1.412579060E0	1.130781460E1	2.255337954E0
3.864142957E0	-1.482010841E0	1.129823780E1	2.324769735E0
3.865725767E0	-1.575384736E0	1.124556541E1	2.401384354E0
3.868187572E0	-1.606509328E0	1.121683502E1	2.418143749E0
3.869409882E0	-1.671152830E0	1.113782597E1	2.451662540E0
3.872243572E0	-1.740584612E0	1.105163479E1	2.485181332E0
3.873855767E0	-1.824381709E0	1.089601231E1	2.518700123E0
3.876319111E0	-1.850717902E0	1.084094524E1	2.518700123E0
3.877530344E0	-1.896207690E0	1.072602367E1	2.506729126E0
3.880374111E0	-1.929726601E0	1.060391903E1	2.470816135E0
3.881939228E0	-1.963245392E0	1.042195988E1	2.410961151E0
3.884436495E0	-1.960851192E0	1.029267311E1	2.384624958E0
3.885628997E0	-1.958456993E0	1.016817474E1	2.336740971E0
3.888491880E0	-1.956062794E0	1.004367638E1	2.276885748E0
3.890070267E0	-1.946485996E0	9.931148529E0	2.200271368E0
3.892521764E0	-1.922544003E0	9.835380554E0	2.128445387E0
3.893737036E0	-1.893813491E0	9.756371498E0	2.061407566E0
3.896577187E0	-1.872265697E0	9.672574997E0	2.001552582E0
3.898213690E0	-1.857900500E0	9.583989143E0	1.956062794E0
3.900488305E0	-1.843535304E0	9.500192642E0	1.924938202E0
3.901870497E0	-1.824381709E0	9.423578262E0	1.903390408E0
3.904708841E0	-1.798045516E0	9.351752281E0	1.893813491E0
3.906086113E0	-1.769315004E0	9.294290543E0	1.893813491E0
3.908828034E0	-1.740584612E0	9.224859238E0	1.891419291E0
3.910052997E0	-1.702277422E0	9.153033257E0	1.884236693E0
3.912916803E0	-1.654393315E0	9.093177795E0	1.879448295E0
3.914468920E0	-1.630451322E0	9.042900085E0	1.884236693E0
3.916977187E0	-1.613691926E0	9.023746490E0	1.893813491E0
3.918175844E0	-1.580173135E0	9.028534889E0	1.886630893E0
3.921031149E0	-1.539471745E0	9.054870605E0	1.865083098E0
3.922596844E0	-1.510741234E0	9.085995674E0	1.833958507E0
3.925104995E0	-1.462857246E0	9.121908188E0	1.795651317E0
3.926302690E0	-1.403002143E0	9.162610054E0	1.769315004E0
3.929159803E0	-1.355118155E0	9.196128845E0	1.759738207E0
3.930722843E0	-1.295263171E0	9.272743225E0	1.738190413E0
3.933188149E0	-1.273715258E0	9.313444138E0	1.726219416E0
3.934382767E0	-1.218648672E0	9.397241592E0	1.709460020E0
3.937242956E0	-1.158793569E0	9.464279175E0	1.709460020E0
3.938856997E0	-1.058237195E0	9.533711433E0	1.728613615E0
3.941125343E0	-1.022324085E0	9.545681953E0	1.742978811E0
3.942508497E0	-9.409212470E-1	9.567230225E0	1.771709204E0
3.945358033E0	-8.475474119E-1	9.588777542E0	1.793257117E0
3.946876190E0	-7.062895298E-1	9.634267807E0	1.817199111E0
3.949412841E0	-6.105214357E-1	9.682151794E0	1.829170108E0
3.950618690E0	-5.147533417E-1	9.730035782E0	1.838746905E0
3.953467533E0	-4.141969085E-1	9.777919769E0	1.865083098E0
3.955235151E0	-3.112462163E-1	9.825803757E0	1.900996208E0
3.957529033E0	-2.178723514E-1	9.883264542E0	1.936909199E0
3.958726074E0	-1.221042871E-1	9.945513725E0	1.965639591E0
3.961583533E0	-1.197100803E-2	9.993397713E0	2.011129379E0
3.963266997E0	1.197100878E-1	1.005564690E1	2.061407566E0
3.965644995E0	2.561795712E-1	1.013944435E1	2.104503393E0
3.966893190E0	4.022258818E-1	1.024957752E1	2.138022184E0
3.969699341E0	5.219359994E-1	1.040520096E1	2.149993181E0
3.971297767E0	5.722141862E-1	1.056561184E1	2.166752577E0
3.973742033E0	5.506663918E-1	1.072123528E1	2.207453966E0
3.974944805E0	6.703764796E-1	1.098699188E1	2.176329374E0
3.977796802E0	9.026140571E-1	1.133415127E1	2.085349798E0
3.979404959E0	1.127668977E0	1.166933918E1	1.970427990E0
3.981736151E0	1.328781962E0	1.197100830E1	1.848323703E0
3.983066843E0	1.503558636E0	1.223915863E1	1.733402014E0
3.985913879E0	1.659181833E0	1.250012684E1	1.613691926E0
3.987249382E0	1.764526606E0	1.275151825E1	1.482010841E0
3.990041572E0	1.704671621E0	1.294066048E1	1.393425345E0
3.991413574E0	1.599326730E0	1.310346603E1	1.307234168E0
3.994131995E0	1.740584612E0	1.336682796E1	1.163581967E0
3.995883651E0	2.159569979E0	1.377863121E1	7.254431248E-1
3.998208456E0	2.329558372E0	1.387200451E1	4.501099288E-1
3.999408920E0	2.664746523E0	1.397256088E1	-3.591302410E-2
4.002263687E0	2.894589901E0	1.400129128E1	-1.484405100E-1
4.003894690E0	3.033453465E0	1.393904209E1	-4.788403399E-3
4.006323610E0	3.069366693E0	1.391270638E1	3.351882473E-2
4.007556920E0	3.117250681E0	1.386242771E1	8.379705995E-2
4.010377802E0	3.021482468E0	1.367568016E1	1.101332754E-1
4.012002574E0	2.949656487E0	1.347935581E1	7.422025502E-2
4.014406918E0	2.925714493E0	1.327824306E1	-1.675941236E-2
4.015605305E0	2.954444885E0	1.310107136E1	-1.077390760E-1
4.018461725E0	2.887407303E0	1.289517021E1	-1.292868853E-1
4.020163228E0	2.750937700E0	1.256477070E1	-7.900865376E-2
4.022350767E0	2.650381327E0	1.207874775E1	-1.651999205E-1
4.023732882E0	2.607285738E0	1.149935055E1	-4.237737060E-1
4.026592648E0	2.547430515E0	1.089601231E1	-7.565677166E-1
4.028067036E0	2.434903145E0	1.031900978E1	-1.031900883E0
4.030672187E0	2.298433542E0	9.842563629E0	-1.094150186E0
4.031897613E0	2.164358377E0	9.545681953E0	-9.504981041E-1
4.034727341E0	1.994369984E0	9.397241592E0	-7.445967197E-1
4.036313613E0	1.714248419E0	9.284713745E0	-6.009446383E-1
4.038788879E0	1.309628367E0	9.124302864E0	-6.057330370E-1
4.039987497E0	7.158663273E-1	8.911218643E0	-9.457096457E-1
4.042842495E0	-1.029506698E-1	8.611943245E0	-1.640028119E0
4.044463805E0	-9.481038451E-1	8.176198959E0	-2.437297344E0
4.046916687E0	-1.570596337E0	7.637503624E0	-2.983175278E0
4.048147728E0	-1.704671621E0	7.117961884E0	-2.911349297E0
4.050970610E0	-1.271321058E0	6.756437302E0	-2.147598982E0
4.052638882E0	-3.830722570E-1	6.615179062E0	-9.624691010E-1
4.054999456E0	7.613561153E-1	6.643909931E0	3.351882398E-1
4.056323959E0	1.841141105E0	6.816292286E0	1.532289028E0
4.059054687E0	2.657563925E0	7.086836815E0	2.420537949E0
4.060674305E0	3.433285236E0	7.515398979E0	3.248931646E0
4.062911305E0	3.610456228E0	7.654263020E0	3.428496838E0
4.064280766E0	3.859453201E0	7.900865555E0	3.672705412E0
4.067137187E0	3.991134167E0	8.090007782E0	3.751713991E0
4.068588305E0	3.993528366E0	8.233659744E0	3.655946016E0
4.071210956E0	3.907337189E0	8.343792915E0	3.440467834E0
4.072414151E0	3.794809580E0	8.422801971E0	3.160346270E0
4.075265341E0	3.643975019E0	8.492233276E0	2.865859509E0
4.076838074E0	3.411737442E0	8.588001251E0	2.430114746E0
4.079325148E0	3.344699860E0	8.611943245E0	2.286462545E0
4.080531420E0	3.236960649E0	8.650250435E0	1.982398987E0
4.083379264E0	3.134010077E0	8.695740700E0	1.522712231E0
4.084966228E0	3.138798475E0	8.719682693E0	1.218648672E0
4.087440110E0	3.186682463E0	8.736441612E0	9.241618514E-1
4.088643959E0	3.268085241E0	8.762778282E0	6.344634295E-1
4.091494302E0	3.320757866E0	8.793902397E0	3.423708379E-1
4.093121305E0	3.323152065E0	8.832210541E0	5.746084079E-2
4.095537302E0	3.280056238E0	8.870517731E0	-1.771709323E-1
4.096913266E0	3.244143248E0	8.896853447E0	-3.615244627E-1
4.099590956E0	3.256114244E0	8.925583839E0	-5.171475410E-1
4.101182766E0	3.342305660E0	8.954314232E0	-6.464344859E-1
4.103471843E0	3.462015629E0	8.985439301E0	-7.541735172E-1
4.104900228E0	3.581725836E0	9.009381294E0	-8.427590132E-1
4.107671494E0	3.679888010E0	9.023746490E0	-8.786720037E-1
4.109119728E0	3.761290789E0	9.035717010E0	-8.738836050E-1
4.111734725E0	3.845088005E0	9.047688484E0	-8.571242094E-1
4.112935228E0	3.907337189E0	9.064447403E0	-8.259995580E-1
4.115788571E0	3.926490784E0	9.083600998E0	-7.829039693E-1
4.117414036E0	3.909731388E0	9.100360870E0	-7.278373241E-1
4.119864302E0	3.878606796E0	9.129091263E0	-6.655880809E-1
4.121060728E0	3.847482204E0	9.157821655E0	-6.153098345E-1
4.123917687E0	3.794809580E0	9.193734169E0	-5.889736414E-1
4.125568343E0	3.734954596E0	9.227252960E0	-5.698199868E-1
4.127977610E0	3.694253206E0	9.251194954E0	-5.434837937E-1
4.129181997E0	3.696647406E0	9.267954826E0	-5.195417404E-1
4.132030879E0	3.785232782E0	9.260771751E0	-5.410895944E-1
4.133610497E0	4.163516521E0	9.176975250E0	-5.554547906E-1
4.136059110E0	4.343081951E0	9.133879662E0	-5.267243981E-1
4.137325497E0	4.707000732E0	9.033323288E0	-4.285621047E-1
4.140113340E0	5.018246651E0	8.942343712E0	-2.992752194E-1
4.141695766E0	5.303156853E0	8.868123055E0	-1.388636976E-1
4.143977959E0	5.334281445E0	8.865729332E0	-1.149216816E-1
4.145366228E0	5.281609058E0	8.870517731E0	-9.576806426E-2
4.148210648E0	5.066130638E0	8.892065048E0	-7.182604820E-2
4.149545805E0	4.802768707E0	8.911218643E0	-1.915361360E-2
4.152322571E0	4.611232281E0	8.913613319E0	7.182605099E-3
4.153591997E0	4.558559895E0	8.887276649E0	2.154781483E-2
4.156411840E0	4.577713490E0	8.829815865E0	4.548983276E-2
4.157999343E0	4.525041103E0	8.808267593E0	6.703764945E-2
4.160440494E0	4.474762917E0	8.789113998E0	9.337386489E-2
4.161645343E0	4.362235546E0	8.801085472E0	1.316810995E-1
4.164495302E0	4.118026733E0	8.860940933E0	1.675941199E-1
4.166098613E0	3.792415380E0	8.956708908E0	1.556231081E-1
4.168539763E0	3.519476414E0	9.062053680E0	8.379705995E-2
4.169757151E0	3.342305660E0	9.150638580E0	-3.830722719E-2
4.172595071E0	3.232172251E0	9.217676163E0	-1.316810995E-1
4.174166343E0	3.148375273E0	9.282320023E0	-1.436520964E-1
4.176623956E0	3.066972494E0	9.339780807E0	-1.149216816E-1
4.177864997E0	2.966415882E0	9.404424667E0	-1.819593310E-1
4.180678994E0	2.908955097E0	9.430760384E0	-3.687070608E-1
4.182345305E0	2.971204281E0	9.404424667E0	-5.219359994E-1
4.184592074E0	3.078943491E0	9.346963882E0	-5.770025849E-1
4.185950420E0	3.181894064E0	9.308655739E0	-5.674257874E-1
4.188794956E0	3.239354849E0	9.291896820E0	-5.506663918E-1
4.190381266E0	3.303998232E0	9.287108421E0	-5.410895944E-1
4.192822109E0	3.378218651E0	9.279925346E0	-5.219359994E-1
4.194045536E0	3.447650433E0	9.270348549E0	-5.147533417E-1
4.196876725E0	3.488351822E0	9.277531624E0	-5.147533417E-1
4.198444651E0	3.502717018E0	9.303867340E0	-5.219359994E-1
4.200936532E0	3.502717018E0	9.342175484E0	-5.434837937E-1
4.202129343E0	3.505111217E0	9.387664795E0	-5.626373887E-1
4.204990532E0	3.519476414E0	9.442731857E0	-5.674257874E-1
4.206570959E0	3.526659012E0	9.500192642E0	-5.722141862E-1
4.209052648E0	3.502717018E0	9.567230225E0	-5.746083856E-1
4.210262113E0	3.447650433E0	9.627084732E0	-5.698199868E-1
4.213110648E0	3.342305660E0	9.679757118E0	-5.578489900E-1
4.214690305E0	3.095702887E0	9.782708168E0	-5.482721925E-1
4.217153302E0	2.997540474E0	9.813833237E0	-5.434837937E-1
4.218405151E0	2.803610086E0	9.868899345E0	-5.506663918E-1
4.221207494E0	2.633621931E0	9.919178009E0	-5.698199868E-1
4.222802805E0	2.410961151E0	9.993397713E0	-5.913678408E-1
4.225202151E0	2.343923569E0	1.001733971E1	-5.937620401E-1
4.226484189E0	2.224213362E0	1.005325317E1	-5.961562395E-1
4.229323878E0	2.109291792E0	1.008677197E1	-6.033388376E-1
4.230731805E0	1.968033791E0	1.012029076E1	-6.105214357E-1
4.233433878E0	1.896207690E0	1.013465595E1	-6.129156351E-1
4.234831074E0	1.819593310E0	1.013465595E1	-6.057330370E-1
4.237523148E0	1.747767210E0	1.012268448E1	-5.937620401E-1
4.239241151E0	1.678335428E0	1.011550236E1	-5.841852427E-1
4.241599225E0	1.608903527E0	1.010113716E1	-5.722141862E-1
4.242827036E0	1.546654344E0	1.007719517E1	-5.578489900E-1
4.245653801E0	1.505952835E0	1.005804157E1	-5.315127969E-1
4.247288843E0	1.455674648E0	1.004607010E1	-5.075707436E-1
4.249714455E0	1.403002143E0	1.003649330E1	-4.860229492E-1
4.250937036E0	1.367089152E0	1.002931118E1	-4.644751251E-1
4.253768032E0	1.338358760E0	1.001733971E1	-4.429273009E-1
4.255347305E0	1.304839969E0	1.000297451E1	-4.022258818E-1
4.257795340E0	1.273715258E0	9.993397713E0	-3.591302633E-1
4.259004728E0	1.230619669E0	9.976638794E0	-3.184288144E-1
4.261848878E0	1.170764685E0	9.964667320E0	-2.801215947E-1
4.263474036E0	1.113303781E0	9.957485199E0	-2.418143749E-1
4.265774536E0	1.058237195E0	9.945513725E0	-1.963245422E-1
4.267175382E0	9.864110947E-1	9.938331604E0	-1.532289088E-1
4.269977571E0	9.193734527E-1	9.928754807E0	-1.101332754E-1
4.271635497E0	8.595184088E-1	9.909601212E0	-6.703764945E-2
4.274029532E0	7.948749661E-1	9.880870819E0	-3.351882473E-2
4.275262420E0	7.230489254E-1	9.866505623E0	-4.788403399E-3
4.278083186E0	6.464344859E-1	9.856928825E0	3.112462163E-2
4.279672074E0	5.363011956E-1	9.828198433E0	7.661445439E-2
