"Time (s)"	"Gyroscope x (rad/s)"	"Gyroscope y (rad/s)"	"Gyroscope z (rad/s)"
1.224976900E-2	2.556634694E-2	3.669835925E-1	-9.960222989E-2
1.506027900E-2	2.556634694E-2	3.669835925E-1	-9.960222989E-2
1.641373100E-2	2.556634694E-2	3.669835925E-1	-9.960222989E-2
1.914993300E-2	2.556634694E-2	3.669835925E-1	-9.960222989E-2
2.061703900E-2	2.556634694E-2	3.669835925E-1	-9.960222989E-2
2.323935600E-2	2.556634694E-2	3.669835925E-1	-9.960222989E-2
2.486026900E-2	2.556634694E-2	3.669835925E-1	-9.960222989E-2
2.732243300E-2	2.556634694E-2	3.669835925E-1	-9.960222989E-2
2.856326900E-2	2.556634694E-2	3.669835925E-1	-9.960222989E-2
3.138370200E-2	2.556634694E-2	3.669835925E-1	-9.960222989E-2
3.299334600E-2	2.556634694E-2	3.669835925E-1	-9.960222989E-2
3.541274100E-2	2.556634694E-2	3.669835925E-1	-9.960222989E-2
3.666830800E-2	2.556634694E-2	3.669835925E-1	-9.960222989E-2
3.946889400E-2	2.556634694E-2	3.669835925E-1	-9.960222989E-2
4.109046200E-2	2.556634694E-2	3.669835925E-1	-9.960222989E-2
4.339992300E-2	2.556634694E-2	3.669835925E-1	-9.960222989E-2
4.487653900E-2	-2.737729549E-1	6.838997602E-1	-1.139832959E-1
4.758566400E-2	-2.609897852E-1	6.657902598E-1	-1.193096191E-1
4.931753900E-2	-2.567287385E-1	6.482134461E-1	-1.278317273E-1
5.161231700E-2	-2.588592768E-1	6.439523697E-1	-1.283643693E-1
5.287676900E-2	-2.663161159E-1	6.386260390E-1	-1.331580579E-1
5.566758700E-2	-2.780340314E-1	6.354302764E-1	-1.358212233E-1
5.734607700E-2	-3.115898669E-1	6.380934119E-1	-1.416801661E-1
5.972847100E-2	-3.339604139E-1	6.391586661E-1	-1.454086006E-1
6.098853900E-2	-3.643204570E-1	6.402239203E-1	-1.480717659E-1
6.378320200E-2	-3.920173049E-1	6.370281577E-1	-1.518001854E-1
6.542157700E-2	-4.170510471E-1	6.285060048E-1	-1.587243974E-1
6.784477900E-2	-4.479437172E-1	6.135923266E-1	-1.661812514E-1
6.909742300E-2	-4.687163532E-1	5.858954787E-1	-1.763012707E-1
7.189997100E-2	-4.889563918E-1	5.512743592E-1	-1.906823367E-1
7.355088500E-2	-5.049353242E-1	5.038700700E-1	-2.066612989E-1
7.597720200E-2	-5.182511806E-1	4.548679292E-1	-2.189118415E-1
7.723946200E-2	-5.251753926E-1	3.984089196E-1	-2.375539690E-1
8.003216300E-2	-5.283711553E-1	3.392867148E-1	-2.551308274E-1
8.166438500E-2	-5.294364095E-1	2.737729549E-1	-2.743056118E-1
8.405469200E-2	-5.320996046E-1	1.997370869E-1	-2.940129936E-1
8.535384600E-2	-5.305017233E-1	1.246359423E-1	-3.036003709E-1
8.814874000E-2	-5.283711553E-1	5.006742850E-2	-3.115898669E-1
8.954230800E-2	-5.161206126E-1	-2.183792181E-2	-3.142530024E-1
9.225839400E-2	-5.022721887E-1	-9.534116834E-2	-3.110572100E-1
9.356250000E-2	-4.852279723E-1	-1.677791476E-1	-3.051982522E-1
9.634885600E-2	-4.649879336E-1	-2.327602804E-1	-2.966761589E-1
9.809292300E-2	-4.426173866E-1	-2.966761589E-1	-2.918824553E-1
1.004250860E-1	-4.186489284E-1	-3.515372574E-1	-2.865561247E-1
1.016800000E-1	-3.936152160E-1	-3.941478431E-1	-2.876214087E-1
1.044805860E-1	-3.627225459E-1	-4.319647253E-1	-2.934803665E-1
1.061810000E-1	-3.185140789E-1	-4.649879336E-1	-3.126551211E-1
1.085425480E-1	-3.020024598E-1	-4.703142643E-1	-3.217098713E-1
1.097958080E-1	-2.695119083E-1	-4.793690145E-1	-3.435477912E-1
1.125976630E-1	-2.348908186E-1	-4.783037305E-1	-3.675162494E-1
1.142271150E-1	-1.917476058E-1	-4.697816372E-1	-4.037352204E-1
1.166277400E-1	-1.747033745E-1	-4.644553065E-1	-4.149205089E-1
1.178836920E-1	-1.475391239E-1	-4.463458061E-1	-4.394215941E-1
1.206837020E-1	-1.123853996E-1	-4.250405133E-1	-4.623247683E-1
1.224037310E-1	-6.657902896E-2	-3.781688809E-1	-4.809668958E-1
1.246580770E-1	-3.728425503E-2	-3.403519988E-1	-4.916195571E-1
1.260408460E-1	-9.587380104E-3	-2.998719513E-1	-4.937500656E-1
1.288152020E-1	2.077265643E-2	-2.471413612E-1	-4.921521842E-1
1.304255000E-1	4.740426689E-2	-1.933455020E-1	-4.921521842E-1
1.328572790E-1	7.723167539E-2	-1.374191195E-1	-4.910869002E-1
1.341903080E-1	1.054611802E-1	-7.989483327E-2	-4.862932265E-1
1.369125860E-1	1.326254308E-1	-1.864212751E-2	-4.873584807E-1
1.385614230E-1	1.619201899E-1	4.154531285E-2	-4.900216460E-1
1.409740480E-1	1.912149638E-1	9.587380290E-2	-4.942827225E-1
1.422974230E-1	2.183792144E-1	1.448759735E-1	-5.017395616E-1
1.450298940E-1	2.428802997E-1	1.805623323E-1	-5.155879855E-1
1.466692690E-1	2.668487430E-1	2.103897333E-1	-5.262406468E-1
1.491082400E-1	2.908172011E-1	2.284992188E-1	-5.438175201E-1
1.503604230E-1	3.153182864E-1	2.402171344E-1	-5.576659441E-1
1.531694320E-1	3.296993375E-1	2.354234457E-1	-5.736449361E-1
1.547847690E-1	3.344930410E-1	2.183792144E-1	-5.874933600E-1
1.571985480E-1	3.254382908E-1	1.805623323E-1	-5.997439027E-1
1.584917310E-1	3.083940744E-1	1.315601617E-1	-6.093312502E-1
1.612545480E-1	2.876214087E-1	7.989483327E-2	-6.210491657E-1
1.631047690E-1	2.668487430E-1	2.503371425E-2	-6.327670813E-1
1.653165860E-1	2.359560728E-1	-4.048004746E-2	-6.476807594E-1
1.666828080E-1	1.928128600E-1	-1.342233270E-1	-6.625944972E-1
1.693725090E-1	1.336906850E-1	-2.663161159E-1	-6.807039976E-1
1.707952310E-1	5.432848632E-2	-4.261057973E-1	-6.956176758E-1
1.734950860E-1	-2.876213938E-2	-5.938849449E-1	-6.961503029E-1
1.748568080E-1	-1.145159304E-1	-7.526093125E-1	-6.913566589E-1
1.775857400E-1	-1.986718178E-1	-9.049421549E-1	-6.844323874E-1
1.793861920E-1	-3.179814517E-1	-1.119060278E0	-6.881608367E-1
1.816485480E-1	-3.563309610E-1	-1.188835144E0	-6.950850487E-1
1.829218080E-1	-4.362258017E-1	-1.324123740E0	-7.147924304E-1
1.857046250E-1	-5.480785370E-1	-1.511077642E0	-7.547398806E-1
1.873718850E-1	-6.221144199E-1	-1.617071390E0	-7.850999236E-1
1.897658170E-1	-6.828345060E-1	-1.711347342E0	-8.143946528E-1
1.910964620E-1	-7.376956344E-1	-1.788046360E0	-8.415589333E-1
1.938211250E-1	-7.819041014E-1	-1.854625463E0	-8.628641963E-1
1.954573080E-1	-8.229168057E-1	-1.912682295E0	-8.836368918E-1
1.978655860E-1	-8.559399843E-1	-1.965945601E0	-8.980179429E-1
1.991923850E-1	-8.836368918E-1	-2.015480280E0	-9.086706042E-1
2.019222010E-1	-8.996158242E-1	-2.056493044E0	-9.171926975E-1
2.037179620E-1	-9.108011127E-1	-2.087918282E0	-9.198558331E-1
2.059739230E-1	-9.097358584E-1	-2.107093096E0	-9.241169095E-1
2.072701920E-1	-9.012137055E-1	-2.117213011E0	-9.289106131E-1
2.100386630E-1	-8.863000274E-1	-2.124137402E0	-9.363674521E-1
2.117278080E-1	-8.660600185E-1	-2.117745638E0	-9.406285286E-1
2.141204320E-1	-8.447546959E-1	-2.096440554E0	-9.486179948E-1
2.154973080E-1	-8.191883564E-1	-2.060221434E0	-9.523464441E-1
2.181762010E-1	-7.914915085E-1	-2.011219263E0	-9.576727748E-1
2.199241920E-1	-7.669904232E-1	-1.952629805E0	-9.582054019E-1
2.222522780E-1	-7.435545921E-1	-1.883920193E0	-9.608685374E-1
2.235266920E-1	-7.291735411E-1	-1.816275954E0	-9.544769526E-1
2.263072400E-1	-7.169229984E-1	-1.747566342E0	-9.496832490E-1
2.279411540E-1	-7.110640407E-1	-1.677791476E0	-9.454222322E-1
2.303677780E-1	-7.121292949E-1	-1.611745119E0	-9.363674521E-1
2.315950770E-1	-7.185208797E-1	-1.552090287E0	-9.289106131E-1
2.344225480E-1	-7.318366766E-1	-1.497761846E0	-9.219864011E-1
2.360654620E-1	-7.616640925E-1	-1.422128081E0	-9.092032313E-1
2.384507400E-1	-7.712514400E-1	-1.399224877E0	-9.028116465E-1
2.397045380E-1	-7.957525253E-1	-1.363538504E0	-8.953547478E-1
2.425056240E-1	-8.186557293E-1	-1.339037418E0	-8.868326545E-1
2.443348460E-1	-8.596684337E-1	-1.323058486E0	-8.857674003E-1
2.465118080E-1	-8.724516034E-1	-1.321460605E0	-8.863000274E-1
2.480595000E-1	-8.980179429E-1	-1.336906910E0	-8.873652816E-1
2.506367010E-1	-9.235842824E-1	-1.356614232E0	-8.884305358E-1
2.520834230E-1	-9.624664187E-1	-1.409344912E0	-8.942894936E-1
2.547537400E-1	-9.896306992E-1	-1.456749201E0	-8.964200616E-1
2.562125770E-1	-1.016794920E0	-1.518001795E0	-8.916263580E-1
2.588440470E-1	-1.043426514E0	-1.585646152E0	-8.905611038E-1
2.606087690E-1	-1.067394972E0	-1.659149408E0	-8.889631629E-1
2.629056240E-1	-1.092428684E0	-1.735848427E0	-8.841695189E-1
2.642086540E-1	-1.116397142E0	-1.814145327E0	-8.820389509E-1
2.669615090E-1	-1.139300346E0	-1.889779091E0	-8.847021461E-1
2.686517310E-1	-1.156877160E0	-1.965412974E0	-8.863000274E-1
2.710377780E-1	-1.174986720E0	-2.031991959E0	-8.953547478E-1
2.723770000E-1	-1.187769890E0	-2.084189892E0	-9.081379771E-1
2.750941240E-1	-1.202683568E0	-2.131594181E0	-9.161274433E-1
2.768841150E-1	-1.215999365E0	-2.173139572E0	-9.257147908E-1
2.791253550E-1	-1.227184653E0	-2.198705912E0	-9.326390028E-1
2.806835380E-1	-1.237837315E0	-2.216815233E0	-9.369000793E-1
2.831810860E-1	-1.245294094E0	-2.218413115E0	-9.315737486E-1
2.849045000E-1	-1.254881501E0	-2.212021589E0	-9.299758673E-1
2.872431630E-1	-1.255946755E0	-2.201369047E0	-9.262474179E-1
2.885246150E-1	-1.258077264E0	-2.182194233E0	-9.171926975E-1
2.912990090E-1	-1.258610010E0	-2.158225775E0	-9.129316211E-1
2.929085770E-1	-1.254881501E0	-2.141714096E0	-9.033442736E-1
2.953279320E-1	-1.253816247E0	-2.128398418E0	-8.910937309E-1
2.967943850E-1	-1.244228840E0	-2.116680384E0	-8.751147389E-1
2.993834320E-1	-1.241033077E0	-2.111354113E0	-8.591358066E-1
3.011411150E-1	-1.223988891E0	-2.130528927E0	-8.298410177E-1
3.034458550E-1	-1.212270975E0	-2.150768995E0	-8.261125684E-1
3.047147310E-1	-1.190433025E0	-2.201901674E0	-8.117315173E-1
3.075021630E-1	-1.177117229E0	-2.250903845E0	-7.941546440E-1
3.091442310E-1	-1.154214025E0	-2.327602863E0	-7.595335841E-1
3.115647010E-1	-1.149420381E0	-2.351038694E0	-7.456851006E-1
3.128205000E-1	-1.135571957E0	-2.394714594E0	-7.131945491E-1
3.156273930E-1	-1.126517177E0	-2.428270340E0	-6.775081754E-1
3.172895000E-1	-1.114799261E0	-2.475674629E0	-6.231797338E-1
3.196717400E-1	-1.115331888E0	-2.490055561E0	-6.040049195E-1
3.210828080E-1	-1.113201380E0	-2.517220020E0	-5.709817410E-1
3.237272780E-1	-1.119592905E0	-2.556634665E0	-5.230448246E-1
3.253945770E-1	-1.132376075E0	-2.584864140E0	-4.926848114E-1
3.277878160E-1	-1.149420381E0	-2.608832598E0	-4.633900523E-1
3.292146540E-1	-1.165931940E0	-2.633866310E0	-4.346278906E-1
3.318430860E-1	-1.185106754E0	-2.652508497E0	-4.037352204E-1
3.332360000E-1	-1.204814076E0	-2.668487549E0	-3.728425503E-1
3.359491630E-1	-1.220260382E0	-2.681803226E0	-3.392867148E-1
3.372605380E-1	-1.235706806E0	-2.697782278E0	-3.067961633E-1
3.400394700E-1	-1.253283620E0	-2.713761091E0	-2.663161159E-1
3.417000770E-1	-1.262338400E0	-2.730272770E0	-2.295644879E-1
3.441151620E-1	-1.278849959E0	-2.745186567E0	-1.874865443E-1
3.453917690E-1	-1.291100502E0	-2.761165380E0	-1.416801661E-1
3.481713550E-1	-1.300155282E0	-2.783535957E0	-9.693906456E-2
3.498680000E-1	-1.303883672E0	-2.817091942E0	-6.072007492E-2
3.522009320E-1	-1.304416299E0	-2.861300230E0	-2.716424316E-2
3.534881150E-1	-1.306014180E0	-2.911900282E0	-7.989482954E-3
3.562560860E-1	-1.306546807E0	-2.965163708E0	7.456851192E-3
3.578982690E-1	-1.307612062E0	-3.017361641E0	1.917476021E-2
3.602852780E-1	-1.306546807E0	-3.058906794E0	2.503371425E-2
3.617351540E-1	-1.308677435E0	-3.097256422E0	3.249056637E-2
3.643404320E-1	-1.312405825E0	-3.128681660E0	3.834952042E-2
3.660065000E-1	-1.320395350E0	-3.167031288E0	4.527373984E-2
3.683209230E-1	-1.325721622E0	-3.178216457E0	4.900216311E-2
3.697638460E-1	-1.339037418E0	-3.200054407E0	4.527373984E-2
3.724705470E-1	-1.350222707E0	-3.219761848E0	3.941478580E-2
3.741351540E-1	-1.367799520E0	-3.249056578E0	2.556634694E-2
3.765201240E-1	-1.373658538E0	-3.259176493E0	2.024002373E-2
3.778432690E-1	-1.384311199E0	-3.277818680E0	5.326322280E-3
3.805750090E-1	-1.393898487E0	-3.296460867E0	-7.989482954E-3
3.823072690E-1	-1.403485894E0	-3.324157715E0	-4.261057824E-2
3.846358550E-1	-1.404551148E0	-3.330016613E0	-5.379585549E-2
3.859048080E-1	-1.409344912E0	-3.335343122E0	-7.989483327E-2
3.886912390E-1	-1.411475420E0	-3.339604139E0	-1.198422536E-1
3.903516150E-1	-1.417866945E0	-3.333212376E0	-1.507349163E-1
3.927679700E-1	-1.416801691E0	-3.321494579E0	-1.757686287E-1
3.940246540E-1	-1.415736437E0	-3.295928240E0	-2.077265680E-1
3.968235470E-1	-1.415736437E0	-3.259176493E0	-2.322276533E-1
3.984614230E-1	-1.413073301E0	-3.219229221E0	-2.599245310E-1
4.008540080E-1	-1.400822759E0	-3.185140610E0	-2.881540358E-1
4.021704610E-1	-1.389637470E0	-3.143062830E0	-3.121224940E-1
4.049098160E-1	-1.381647944E0	-3.097256422E0	-3.307646215E-1
4.065196150E-1	-1.374191165E0	-3.048254251E0	-3.408846259E-1
4.089693550E-1	-1.362473249E0	-2.998719454E0	-3.515372574E-1
4.102397310E-1	-1.353418469E0	-2.944391012E0	-3.542004228E-1
4.130248160E-1	-1.334776402E0	-2.893790960E0	-3.520699143E-1
4.145735770E-1	-1.315601587E0	-2.843723536E0	-3.504720032E-1
4.171418550E-1	-1.300687909E0	-2.803243399E0	-3.488741219E-1
4.185068460E-1	-1.279382586E0	-2.771818161E0	-3.424825370E-1
4.212315850E-1	-1.262871027E0	-2.741990805E0	-3.334277868E-1
4.229161150E-1	-1.241033077E0	-2.722283363E0	-3.286340833E-1
4.252919700E-1	-1.221858382E0	-2.706836939E0	-3.185140789E-1
4.265490000E-1	-1.200553060E0	-2.701510668E0	-3.067961633E-1
4.293467010E-1	-1.175519347E0	-2.697782278E0	-2.966761589E-1
4.309330380E-1	-1.139300346E0	-2.700445414E0	-2.775014043E-1
4.334092780E-1	-1.129180312E0	-2.702575922E0	-2.732403278E-1
4.346648080E-1	-1.106809735E0	-2.712695837E0	-2.631203234E-1
4.374648540E-1	-1.088700294E0	-2.735066414E0	-2.572613657E-1
4.395204610E-1	-1.070590734E0	-2.790460348E0	-2.567287385E-1
4.414933930E-1	-1.067394972E0	-2.813896179E0	-2.593919039E-1
4.427611920E-1	-1.062068701E0	-2.863430977E0	-2.652508616E-1
4.455485080E-1	-1.058872819E0	-2.923618317E0	-2.700445354E-1
4.473913080E-1	-1.066329718E0	-3.017361641E0	-2.743056118E-1
4.495792690E-1	-1.070590734E0	-3.050384760E0	-2.753708661E-1
4.509088080E-1	-1.083373904E0	-3.111637592E0	-2.806971967E-1
4.536671620E-1	-1.113734007E0	-3.201119661E0	-2.849582434E-1
4.553375000E-1	-1.141963482E0	-3.263437748E0	-2.966761589E-1
4.576990470E-1	-1.172323585E0	-3.336408377E0	-3.099919558E-1
4.589864610E-1	-1.204814076E0	-3.427488327E0	-3.328951299E-1
4.617555080E-1	-1.237304688E0	-3.523894787E0	-3.589941263E-1
4.634394610E-1	-1.264468908E0	-3.624029636E0	-4.026699662E-1
4.658331240E-1	-1.294296265E0	-3.717240334E0	-4.490089715E-1
4.670983840E-1	-1.319329977E0	-3.819505692E0	-4.799016416E-1
4.698896620E-1	-1.352353215E0	-3.918575287E0	-5.028048158E-1
4.715172310E-1	-1.382180691E0	-4.008590221E0	-5.278385282E-1
4.739522390E-1	-1.405083776E0	-4.084756374E0	-5.528722405E-1
4.753817690E-1	-1.417866945E0	-4.138019562E0	-5.816344023E-1
4.780089310E-1	-1.428519607E0	-4.185956478E0	-6.167881489E-1
4.796752690E-1	-1.441302776E0	-4.224838734E0	-6.471481323E-1
4.820390470E-1	-1.451422811E0	-4.253601074E0	-6.727145314E-1
4.834533460E-1	-1.453020692E0	-4.271710396E0	-6.870955825E-1
4.860947770E-1	-1.454618573E0	-4.263720989E0	-6.934871674E-1
4.879375380E-1	-1.448227048E0	-4.250937939E0	-6.865629554E-1
4.901715470E-1	-1.433845997E0	-4.228034496E0	-6.769755483E-1
4.914561150E-1	-1.412008047E0	-4.194478989E0	-6.551376581E-1
4.942283930E-1	-1.382180691E0	-4.148139954E0	-6.253102422E-1
4.956833840E-1	-1.349157453E0	-4.085289001E0	-5.837649107E-1
4.983440470E-1	-1.310807943E0	-4.009655476E0	-5.352953672E-1
4.997605770E-1	-1.269262552E0	-3.916444778E0	-4.830974340E-1
5.024350470E-1	-1.220793009E0	-3.814712048E0	-4.324973822E-1
5.041715000E-1	-1.155811906E0	-3.645867586E0	-3.446130455E-1
5.064970850E-1	-1.137702465E0	-3.586745501E0	-3.142530024E-1
5.078175770E-1	-1.102016091E0	-3.472762108E0	-2.588592768E-1
5.105536620E-1	-1.073786616E0	-3.359844208E0	-2.039981484E-1
5.122369610E-1	-1.032773852E0	-3.175020695E0	-1.267664731E-1
5.146303540E-1	-1.019458055E0	-3.107908964E0	-1.001348570E-1
5.159225380E-1	-9.981527925E-1	-2.971022606E0	-4.953479767E-2
5.186871620E-1	-9.683253765E-1	-2.763295889E0	1.225054078E-2
5.204838460E-1	-9.518138170E-1	-2.621615887E0	5.113269389E-2
5.227171620E-1	-9.358348250E-1	-2.466619730E0	9.054747969E-2
5.239900380E-1	-9.235842824E-1	-2.299373388E0	1.390170157E-1
5.267731230E-1	-9.161274433E-1	-2.129996300E0	1.778991669E-1
5.285537310E-1	-9.118663669E-1	-1.956358194E0	2.183792144E-1
5.308337390E-1	-9.070726633E-1	-1.786448479E0	2.567287385E-1
5.322455380E-1	-9.049421549E-1	-1.626126170E0	2.918824553E-1
5.348890080E-1	-9.012137055E-1	-1.478054404E0	3.243730366E-1
5.366134610E-1	-9.038769007E-1	-1.348624825E0	3.584614992E-1
5.389457390E-1	-9.017463326E-1	-1.240500450E0	3.866910040E-1
5.402490770E-1	-9.060074091E-1	-1.155811906E0	4.106594622E-1
5.430014310E-1	-9.065400362E-1	-1.090298176E0	4.335626364E-1
5.447143840E-1	-9.081379771E-1	-1.050350785E0	4.601942301E-1
5.470619690E-1	-9.054747820E-1	-1.025849700E0	4.761732221E-1
5.483564610E-1	-9.081379771E-1	-1.024784446E0	4.889563918E-1
5.511174690E-1	-9.139968753E-1	-1.042361259E0	4.974785149E-1
5.528280770E-1	-9.139968753E-1	-1.074319243E0	4.969458580E-1
5.551461620E-1	-9.193232059E-1	-1.120658159E0	4.862932265E-1
5.564943840E-1	-9.241169095E-1	-1.169127703E0	4.639226794E-1
5.592015850E-1	-9.257147908E-1	-1.210140467E0	4.388889670E-1
5.608595380E-1	-9.310411215E-1	-1.252218366E0	4.159857631E-1
5.632460080E-1	-9.406285286E-1	-1.305481553E0	3.941478431E-1
5.646413460E-1	-9.576727748E-1	-1.360342741E0	3.723099232E-1
5.673015850E-1	-9.736517072E-1	-1.416801691E0	3.515372574E-1
5.690857310E-1	-9.890980721E-1	-1.461010218E0	3.323625028E-1
5.713589610E-1	-1.005609632E0	-1.495631337E0	3.089267015E-1
5.727513840E-1	-1.022653818E0	-1.521197677E0	2.865561247E-1
5.754199310E-1	-1.046089649E0	-1.540372372E0	2.604571581E-1
5.771181150E-1	-1.069525480E0	-1.553155541E0	2.391518652E-1
5.795224690E-1	-1.091896057E0	-1.560612440E0	2.189118415E-1
5.808629610E-1	-1.119060278E0	-1.559014559E0	1.901497096E-1
5.836130850E-1	-1.147822499E0	-1.555286050E0	1.608549356E-1
5.852943840E-1	-1.195226669E0	-1.544100881E0	1.065264493E-1
5.876905080E-1	-1.225054145E0	-1.531317711E0	5.805691332E-2
5.889298460E-1	-1.253283620E0	-1.511610270E0	1.384843793E-2
5.917464690E-1	-1.282578349E0	-1.489772320E0	-3.515372798E-2
5.934944230E-1	-1.304416299E0	-1.463140726E0	-8.628641814E-2
5.958090460E-1	-1.321460605E0	-1.446629167E0	-1.363538504E-1
5.971473840E-1	-1.330515265E0	-1.443433285E0	-1.826928556E-1
5.998658540E-1	-1.330515265E0	-1.440770149E0	-2.226402760E-1
6.014981150E-1	-1.334776402E0	-1.433845997E0	-2.657834888E-1
6.038963540E-1	-1.328384757E0	-1.425856471E0	-3.105245829E-1
6.051854610E-1	-1.314003706E0	-1.408812284E0	-3.563309610E-1
6.079531610E-1	-1.297492146E0	-1.385376453E0	-4.202468395E-1
6.097133070E-1	-1.285241604E0	-1.357679605E0	-5.012069345E-1
6.119168070E-1	-1.278317332E0	-1.318264723E0	-5.805691481E-1
6.133054610E-1	-1.266066790E0	-1.269795179E0	-6.711165905E-1
6.160868150E-1	-1.261273146E0	-1.210140467E0	-7.621967196E-1
6.177082300E-1	-1.247424722E0	-1.150485635E0	-8.479505181E-1
6.201130080E-1	-1.231445670E0	-1.083373904E0	-9.289106131E-1
6.214088460E-1	-1.216531992E0	-1.021588564E0	-1.012001276E0
6.241692770E-1	-1.194161415E0	-9.645969868E-1	-1.087635040E0
6.259605000E-1	-1.173921466E0	-9.108011127E-1	-1.166997194E0
6.282310840E-1	-1.162203550E0	-8.660600185E-1	-1.254348874E0
6.295150770E-1	-1.149953008E0	-8.452873230E-1	-1.349690080E0
6.322870460E-1	-1.146757245E0	-8.511462808E-1	-1.459412336E0
6.340042300E-1	-1.145691872E0	-8.772453070E-1	-1.568601966E0
6.363644310E-1	-1.152083516E0	-8.894958496E-1	-1.676193595E0
6.377918840E-1	-1.154214025E0	-8.857674003E-1	-1.789644241E0
6.404603920E-1	-1.144626617E0	-8.735168576E-1	-1.891909719E0
6.421299610E-1	-1.122256160E0	-8.506136537E-1	-2.026133060E0
6.444907000E-1	-1.115331888E0	-8.426241875E-1	-2.063949823E0
6.457988840E-1	-1.099352956E0	-8.282431364E-1	-2.134789944E0
6.485473150E-1	-1.084439158E0	-8.080030680E-1	-2.199771166E0
6.503056920E-1	-1.053546548E0	-7.605988383E-1	-2.290318489E0
6.526109690E-1	-1.041296005E0	-7.376956344E-1	-2.321743965E0
6.539646540E-1	-1.008272767E0	-7.073355913E-1	-2.366484880E0
6.566673920E-1	-9.411611557E-1	-6.631271243E-1	-2.404834509E0
6.586273070E-1	-8.878979087E-1	-6.508765817E-1	-2.420813560E0
6.607137380E-1	-8.372978568E-1	-6.317018270E-1	-2.402704000E0
6.620779230E-1	-7.749798894E-1	-6.013417840E-1	-2.376072407E0
6.647699300E-1	-7.094660997E-1	-5.922870636E-1	-2.368083000E0
6.666141150E-1	-6.530070901E-1	-5.459480286E-1	-2.345712423E0
6.688328150E-1	-5.709817410E-1	-5.475459099E-1	-2.353169203E0
6.701931920E-1	-4.751079381E-1	-5.741775632E-1	-2.368615627E0
6.728885460E-1	-3.797667921E-1	-5.928196907E-1	-2.373941898E0
6.746240380E-1	-2.561961114E-1	-6.684534550E-1	-2.390985966E0
6.769505460E-1	-1.454086006E-1	-6.817692518E-1	-2.351571321E0
6.782831150E-1	-3.728425596E-3	-7.510114312E-1	-2.326004982E0
6.810054690E-1	1.257012039E-1	-7.781757116E-1	-2.280731201E0
6.826726920E-1	2.460760921E-1	-7.994809747E-1	-2.214684725E0
6.850477770E-1	3.792341352E-1	-8.564726114E-1	-2.158758402E0
6.863505770E-1	4.793690145E-1	-8.490157723E-1	-2.068210840E0
6.891027000E-1	6.061354876E-1	-9.166600704E-1	-1.992044568E0
6.907748070E-1	6.886934638E-1	-9.038769007E-1	-1.884985447E0
6.931640070E-1	7.856325507E-1	-9.390306473E-1	-1.792840123E0
6.944778840E-1	8.687231541E-1	-9.438242912E-1	-1.682052612E0
6.972190460E-1	9.331716895E-1	-9.086706042E-1	-1.560079813E0
6.987894610E-1	1.014664412E0	-9.225190282E-1	-1.465271235E0
7.012737770E-1	1.056742311E0	-8.548747301E-1	-1.351820588E0
7.025689230E-1	1.098287702E0	-7.861651778E-1	-1.226652026E0
7.053294300E-1	1.155811906E0	-7.568703890E-1	-1.140898228E0
7.070728460E-1	1.159007788E0	-5.896238685E-1	-9.635316730E-1
7.094058530E-1	1.163268805E0	-5.454154015E-1	-8.980179429E-1
7.107121150E-1	1.168062449E0	-4.255731404E-1	-7.962851524E-1
7.134616230E-1	1.131310821E0	-2.189118415E-1	-6.700513363E-1
7.152532690E-1	1.072188616E0	1.054611802E-1	-4.841626883E-1
7.175239690E-1	1.058340192E0	2.066612989E-1	-4.340952635E-1
7.188374230E-1	1.015197039E0	4.378236830E-1	-3.499393761E-1
7.215802380E-1	9.502158761E-1	7.318366766E-1	-2.396845073E-1
7.235026920E-1	8.554073572E-1	1.170725584E0	-5.592638254E-2
7.256106990E-1	8.293083906E-1	1.310275316E0	7.456851192E-3
7.270038460E-1	7.712514400E-1	1.569667220E0	1.054611802E-1
7.296663530E-1	6.961503029E-1	1.900431752E0	2.194444835E-1
7.315230380E-1	6.599313021E-1	2.069808722E0	2.769687474E-1
7.336586530E-1	6.391586661E-1	2.173672199E0	3.344930410E-1
7.350489230E-1	6.396912932E-1	2.230131149E0	3.797667921E-1
7.377991610E-1	6.620618701E-1	2.230131149E0	4.117247164E-1
7.399010380E-1	6.977482438E-1	2.173672199E0	4.330300093E-1
7.419412380E-1	7.456851006E-1	2.062884569E0	4.447479248E-1
7.434895380E-1	7.973504663E-1	1.931324482E0	4.351605177E-1
7.460320840E-1	8.548747301E-1	1.789644241E0	4.095941782E-1
7.477113460E-1	9.219864011E-1	1.644235730E0	3.749730885E-1
7.500931990E-1	9.912285805E-1	1.489772320E0	3.334277868E-1
7.514116150E-1	1.063666582E0	1.342765808E0	2.844256163E-1
7.541494690E-1	1.131310821E0	1.220793009E0	2.386192381E-1
7.557963070E-1	1.189367771E0	1.133973956E0	1.874865443E-1
7.582272760E-1	1.233043551E0	1.084439158E0	1.358212233E-1
7.597267690E-1	1.261805773E0	1.062068701E0	7.989483327E-2
7.622835070E-1	1.273523688E0	1.077515006E0	1.065264456E-2
7.639609230E-1	1.266599417E0	1.110538244E0	-6.125270575E-2
7.663134300E-1	1.244761467E0	1.167529821E0	-1.304948926E-1
7.676275770E-1	1.214934111E0	1.253816247E0	-2.002697140E-1
7.703699300E-1	1.185106754E0	1.357679605E0	-2.599245310E-1
7.723834230E-1	1.137169838E0	1.530784965E0	-3.435477912E-1
7.744048840E-1	1.121723413E0	1.591505051E0	-3.664509654E-1
7.757015770E-1	1.091896057E0	1.694303155E0	-4.165183902E-1
7.784907760E-1	1.065797091E0	1.787513733E0	-4.617921412E-1
7.801820000E-1	1.039165497E0	1.908953905E0	-5.432848930E-1
7.825209300E-1	1.031175971E0	1.941977143E0	-5.752428174E-1
7.838450380E-1	1.017327547E0	1.986185551E0	-6.391586661E-1
7.865770840E-1	1.005077004E0	2.011751890E0	-7.025418878E-1
7.882933840E-1	9.933590889E-1	2.028263569E0	-7.893609405E-1
7.906374300E-1	9.906959534E-1	2.018143415E0	-8.447546959E-1
7.919045380E-1	9.827064872E-1	1.971804500E0	-8.937568665E-1
7.946933530E-1	9.720538259E-1	1.903095007E0	-9.475527406E-1
7.963172690E-1	9.566074610E-1	1.835450649E0	-9.922938347E-1
7.987557380E-1	9.384979606E-1	1.774730563E0	-1.036502361E0
8.001376920E-1	9.187905788E-1	1.717738986E0	-1.074319243E0
8.028170070E-1	8.900284767E-1	1.662877798E0	-1.099885583E0
8.046731150E-1	8.490157723E-1	1.605886221E0	-1.119060278E0
8.068620450E-1	7.973504663E-1	1.563275576E0	-1.112668753E0
8.081149230E-1	7.472830415E-1	1.544633508E0	-1.119592905E0
8.109186610E-1	6.966829300E-1	1.528121829E0	-1.170725584E0
8.129278070E-1	6.625944972E-1	1.486576557E0	-1.252750993E0
8.149817760E-1	6.423544884E-1	1.415203810E0	-1.346494317E0
8.162884610E-1	6.317018270E-1	1.329450011E0	-1.432780743E0
8.190381220E-1	6.317018270E-1	1.243696213E0	-1.495631337E0
8.204539610E-1	6.386260390E-1	1.157409787E0	-1.531850338E0
8.231684680E-1	6.546050310E-1	1.072188616E0	-1.552090287E0
8.245138840E-1	6.716492176E-1	9.901633263E-1	-1.561145067E0
8.272590450E-1	6.913566589E-1	9.182579517E-1	-1.580852509E0
8.290294230E-1	7.115966678E-1	8.436894417E-1	-1.605886221E0
8.313342380E-1	7.376956344E-1	7.621967196E-1	-1.643703103E0
8.326424610E-1	7.611314654E-1	6.753776670E-1	-1.682585239E0
8.353906990E-1	7.861651778E-1	5.986786485E-1	-1.723597884E0
8.371406150E-1	8.277105093E-1	4.894890189E-1	-1.785915852E0
8.394524680E-1	8.426241875E-1	4.601942301E-1	-1.807221174E0
8.407453840E-1	8.623315692E-1	4.101268053E-1	-1.842907548E0
8.435085840E-1	8.687231541E-1	3.834952116E-1	-1.830657005E0
8.452281530E-1	8.815063238E-1	3.664509654E-1	-1.836515903E0
8.475391220E-1	8.852347732E-1	3.536677957E-1	-1.859419107E0
8.488498460E-1	9.012137055E-1	3.281014562E-1	-1.922269702E0
8.515952370E-1	9.193232059E-1	3.009372056E-1	-1.979261398E0
8.534508460E-1	9.374327064E-1	2.519350350E-1	-2.052232027E0
8.556716990E-1	9.544769526E-1	2.178465873E-1	-2.103364706E0
8.570738840E-1	9.768475294E-1	1.805623323E-1	-2.155030012E0
8.597276610E-1	1.002413869E0	1.565938741E-1	-2.203499556E0
8.614445760E-1	1.024784446E0	1.438107044E-1	-2.251436472E0
8.638101610E-1	1.049285531E0	1.496696621E-1	-2.295112371E0
8.650933070E-1	1.065264463E0	1.635181010E-1	-2.349440813E0
8.678665070E-1	1.077515006E0	2.013349831E-1	-2.407497644E0
8.694851150E-1	1.095091820E0	2.205097377E-1	-2.486327171E0
8.719285840E-1	1.106277108E0	2.258360684E-1	-2.584864140E0
8.732133840E-1	1.121723413E0	2.535329461E-1	-2.680737972E0
8.759849680E-1	1.145159245E0	3.004045784E-1	-2.761165380E0
8.777043840E-1	1.163801432E0	3.728425503E-1	-2.851712942E0
8.800623530E-1	1.204814076E0	4.671184719E-1	-2.964098454E0
8.813271150E-1	1.249555230E0	5.576659441E-1	-3.090332270E0
8.841178140E-1	1.294828892E0	6.471481323E-1	-3.226686001E0
8.857940380E-1	1.347559571E0	7.046724558E-1	-3.362507343E0
8.881473140E-1	1.410410166E0	7.291735411E-1	-3.496730566E0
8.895783070E-1	1.488707066E0	7.520766854E-1	-3.634149790E0
8.922029300E-1	1.576058745E0	7.941546440E-1	-3.773699284E0
8.938445760E-1	1.662877798E0	8.527442217E-1	-3.905259609E0
8.962646990E-1	1.758219004E0	9.134642482E-1	-4.039482594E0
8.976060380E-1	1.857821226E0	9.800432920E-1	-4.166249275E0
9.003204300E-1	1.962749720E0	1.057807565E0	-4.287156582E0
9.018421920E-1	2.065547705E0	1.099352956E0	-4.404335976E0
9.044375070E-1	2.171009064E0	1.094026566E0	-4.524710655E0
9.058991920E-1	2.282861710E0	1.114266634E0	-4.663727760E0
9.085286220E-1	2.403769255E0	1.160073042E0	-4.834702969E0
9.101878460E-1	2.600843191E0	1.204814076E0	-5.110073566E0
9.125914680E-1	2.666889668E0	1.211738348E0	-5.200088501E0
9.138800760E-1	2.806971788E0	1.219727755E0	-5.376922131E0
9.166483910E-1	3.013100624E0	1.178182483E0	-5.613943577E0
9.183188460E-1	3.148921728E0	1.133973956E0	-5.738579750E0
9.207115450E-1	3.276220798E0	1.113734007E0	-5.833920956E0
9.220833460E-1	3.396595716E0	1.088167667E0	-5.911152363E0
9.247682370E-1	3.498328447E0	1.045557022E0	-5.961752415E0
9.268496150E-1	3.591006517E0	9.757822156E-1	-5.996906281E0
9.287903910E-1	3.661846638E0	8.085356951E-1	-6.028331757E0
9.306032300E-1	3.718305588E0	6.178534031E-1	-6.058691502E0
9.328465060E-1	3.757187843E0	4.474110603E-1	-6.067746162E0
9.346725380E-1	3.774231911E0	2.801645398E-1	-6.053897858E0
9.367874230E-1	3.767307758E0	1.368864775E-1	-6.022472382E0
9.382520380E-1	3.734817266E0	6.391586736E-3	-5.986786366E0
9.409631600E-1	3.684217215E0	-1.560612470E-1	-5.940979958E0
9.425964230E-1	3.598995924E0	-2.775014043E-1	-5.848301888E0
9.450172760E-1	3.490871668E0	-3.131877482E-1	-5.686914444E0
9.463121920E-1	3.348658800E0	-2.881540358E-1	-5.495166779E0
9.490726220E-1	3.166498661E0	-1.858886480E-1	-5.263471603E0
9.507432300E-1	2.940662622E0	-1.278317347E-2	-5.016862869E0
9.531484290E-1	2.686064243E0	2.103897333E-1	-4.745220661E0
9.544367300E-1	2.414421797E0	3.755057156E-1	-4.493285656E0
9.572045830E-1	2.137453079E0	5.086637735E-1	-4.226436615E0
9.588829230E-1	1.835983276E0	6.455502510E-1	-3.957990170E0
9.612682370E-1	1.551025033E0	7.307714224E-1	-3.722033978E0
9.625661530E-1	1.278849959E0	7.590008974E-1	-3.486610651E0
9.653303520E-1	1.015197039E0	7.659251690E-1	-3.251187086E0
9.670241920E-1	6.391586661E-1	7.009440064E-1	-2.932672977E0
9.693601990E-1	5.283711553E-1	6.546050310E-1	-2.838929892E0
9.706654610E-1	3.211772442E-1	5.406216979E-1	-2.675944328E0
9.734163910E-1	1.358212233E-1	4.111920893E-1	-2.520948410E0
9.753567690E-1	-1.059938148E-1	2.050634027E-1	-2.343049288E0
9.774863070E-1	-1.677791476E-1	1.219727769E-1	-2.300971270E0
9.787941920E-1	-2.604571581E-1	-5.858954415E-2	-2.227468014E0
9.815502750E-1	-3.344930410E-1	-2.577939928E-1	-2.174737453E0
9.830774610E-1	-3.957457542E-1	-5.262406468E-1	-2.118278265E0
9.856850060E-1	-4.149205089E-1	-6.609966159E-1	-2.079396248E0
9.871050760E-1	-4.117247164E-1	-7.504788041E-1	-2.042644501E0
9.897756600E-1	-3.984089196E-1	-7.898935676E-1	-1.992044568E0
9.913899990E-1	-3.765709996E-1	-7.898935676E-1	-1.929726601E0
9.938365830E-1	-3.446130455E-1	-7.637946010E-1	-1.855158091E0
9.953460380E-1	-3.115898669E-1	-7.297061682E-1	-1.766741157E0
9.978925830E-1	-2.854908705E-1	-6.881608367E-1	-1.673530459E0
9.996286530E-1	-2.561961114E-1	-6.530070901E-1	-1.564873457E0
1.001970583E0	-2.348908186E-1	-6.301039457E-1	-1.456749201E0
1.003469461E0	-2.093244642E-1	-6.162554622E-1	-1.351287961E0
1.006027083E0	-1.944107562E-1	-6.173207760E-1	-1.252218366E0
1.007791153E0	-1.954760253E-1	-6.466155052E-1	-1.163268805E0
1.010057391E0	-2.205097377E-1	-7.009440064E-1	-1.080710769E0
1.011392230E0	-2.588592768E-1	-7.717841268E-1	-1.009338021E0
1.014113506E0	-2.988066673E-1	-8.372978568E-1	-9.443569183E-1
1.015795153E0	-3.265035450E-1	-8.969526887E-1	-8.719189763E-1
1.018084307E0	-3.446130455E-1	-9.566074610E-1	-7.994809747E-1
1.019483461E0	-3.632551730E-1	-1.019990683E0	-7.206513882E-1
1.022232275E0	-3.792341352E-1	-1.090298176E0	-6.524744630E-1
1.023845538E0	-3.968110085E-1	-1.157942414E0	-5.826996565E-1
1.026268352E0	-4.165183902E-1	-1.229847789E0	-5.129248500E-1
1.027696615E0	-4.356931746E-1	-1.316666842E0	-4.511395097E-1
1.030324391E0	-4.543353021E-1	-1.423193336E0	-3.909520507E-1
1.032198153E0	-4.703142643E-1	-1.619734645E0	-3.062635362E-1
1.034387198E0	-4.751079381E-1	-1.686846256E0	-2.817624509E-1
1.035773269E0	-4.788363874E-1	-1.817873836E0	-2.300971150E-1
1.038443429E0	-4.751079381E-1	-1.929193974E0	-1.864212751E-1
1.040143846E0	-4.559331834E-1	-2.074602604E0	-1.432780623E-1
1.042503698E0	-4.468784332E-1	-2.119343519E0	-1.342233270E-1
1.043807576E0	-4.229099751E-1	-2.193912029E0	-1.278317273E-1
1.046559544E0	-4.000068009E-1	-2.261023760E0	-1.283643693E-1
1.048324846E0	-3.627225459E-1	-2.359560728E0	-1.310275346E-1
1.050602852E0	-3.328951299E-1	-2.414954424E0	-1.422128081E-1
1.051901576E0	-2.993393242E-1	-2.465554476E0	-1.576591432E-1
1.054658621E0	-2.647182047E-1	-2.509230375E0	-1.821602285E-1
1.056296576E0	-2.316950262E-1	-2.554504156E0	-2.077265680E-1
1.058721429E0	-1.981391907E-1	-2.600310564E0	-2.386192381E-1
1.059956846E0	-1.571265012E-1	-2.630137920E0	-2.785666585E-1
1.062777467E0	-1.235706806E-1	-2.658367395E0	-3.142530024E-1
1.064244153E0	-7.989483327E-2	-2.683933735E0	-3.552657068E-1
1.066881391E0	-4.154531285E-2	-2.710565329E0	-4.053331316E-1
1.068244269E0	-6.924218964E-3	-2.741458178E0	-4.500742257E-1
1.070971429E0	3.249056637E-2	-2.752643347E0	-5.129248500E-1
1.072737884E0	6.657902896E-2	-2.762230635E0	-5.763080716E-1
1.075048006E0	9.693906456E-2	-2.756904364E0	-6.444849968E-1
1.076344422E0	1.257012039E-1	-2.722283363E0	-7.259777188E-1
1.079104237E0	1.571265012E-1	-2.666889668E0	-8.122641444E-1
1.080871961E0	1.853560209E-1	-2.601375818E0	-9.049421549E-1
1.083166967E0	2.205097377E-1	-2.508165121E0	-1.001881242E0
1.084521192E0	2.588592768E-1	-2.403236628E0	-1.103081346E0
1.087223160E0	2.977414131E-1	-2.306830168E0	-1.193628788E0
1.089153538E0	3.440804183E-1	-2.202966928E0	-1.276186824E0
1.091252813E0	3.920173049E-1	-2.094842434E0	-1.358212233E0
1.092656999E0	4.548679292E-1	-1.994707704E0	-1.444498658E0
1.095309044E0	5.273059011E-1	-1.912682295E0	-1.538774490E0
1.097103884E0	6.391586661E-1	-1.835983276E0	-1.696966290E0
1.099386390E0	6.764429212E-1	-1.827461123E0	-1.750229478E0
1.100827422E0	7.366303802E-1	-1.830124378E0	-1.857821226E0
1.103442506E0	7.781757116E-1	-1.836515903E0	-1.956890821E0
1.105056115E0	7.952198982E-1	-1.831189632E0	-2.088450909E0
1.107521275E0	8.053399324E-1	-1.847168565E0	-2.134257317E0
1.108914615E0	8.149272799E-1	-1.931324482E0	-2.244512320E0
1.111578352E0	8.314388990E-1	-2.049568892E0	-2.355832338E0
1.113278999E0	8.623315692E-1	-2.278068066E0	-2.512958765E0
1.115641583E0	8.820389509E-1	-2.441053391E0	-2.631735802E0
1.116907538E0	9.076052904E-1	-2.622148514E0	-2.764894009E0
1.119698429E0	9.209211469E-1	-2.814961433E0	-2.934803486E0
1.121319038E0	9.203884602E-1	-3.006176233E0	-3.115365982E0
1.123774967E0	9.065400362E-1	-3.189401865E0	-3.291667223E0
1.125056269E0	8.863000274E-1	-3.352387190E0	-3.452522039E0
1.127831852E0	8.681905270E-1	-3.502056837E0	-3.600061178E0
1.129498845E0	8.362326026E-1	-3.630421162E0	-3.730023384E0
1.131862621E0	8.000136018E-1	-3.746535063E0	-3.841343641E0
1.133138538E0	7.621967196E-1	-3.866909981E0	-3.935619593E0
1.135918390E0	7.158577442E-1	-3.995806932E0	-4.012851238E0
1.137567922E0	6.732471585E-1	-4.123106003E0	-4.100203037E0
1.139919038E0	6.412891746E-1	-4.245079041E0	-4.190217972E0
1.141407153E0	6.231797338E-1	-4.373443127E0	-4.284493446E0
1.144034659E0	6.269081235E-1	-4.512460232E0	-4.388889790E0
1.145446653E0	6.455502510E-1	-4.629106522E0	-4.500209808E0
1.148146236E0	6.721818447E-1	-4.714327812E0	-4.602475166E0
1.149475692E0	7.009440064E-1	-4.750014305E0	-4.702610016E0
1.152236659E0	7.414240837E-1	-4.741492271E0	-4.792092323E0
1.153851384E0	7.904262543E-1	-4.681837082E0	-4.887433529E0
1.156299544E0	8.420915604E-1	-4.569984436E0	-4.984372616E0
1.157963153E0	9.065400362E-1	-4.402205467E0	-5.083974838E0
1.160355044E0	9.768475294E-1	-4.185956478E0	-5.186772823E0
1.161963499E0	1.080710769E0	-3.784352064E0	-5.338572979E0
1.164416967E0	1.118527651E0	-3.625094891E0	-5.383846760E0
1.165635192E0	1.201618314E0	-3.275688171E0	-5.470665455E0
1.168472698E0	1.284176350E0	-2.890595198E0	-5.547364712E0
1.170095115E0	1.414671183E0	-2.279665947E0	-5.650162697E0
1.172518890E0	1.457281828E0	-2.067678213E0	-5.679990292E0
1.173812153E0	1.552090287E0	-1.636778831E0	-5.726328850E0
1.176574313E0	1.647964120E0	-1.203216195E0	-5.763080597E0
1.178297576E0	1.794970632E0	-5.464806557E-1	-5.789179802E0
1.180637621E0	1.892974973E0	-1.182443574E-1	-5.787049294E0
1.181917461E0	1.986185551E0	3.046656251E-1	-5.766808987E0
1.184692313E0	2.074069977E0	7.110640407E-1	-5.723665714E0
1.186258769E0	2.157160521E0	1.091896057E0	-5.670935154E0
1.188764390E0	2.233859539E0	1.457814455E0	-5.600627899E0
1.190061307E0	2.303101778E0	1.813612700E0	-5.513276100E0
1.192819967E0	2.364886999E0	2.152366877E0	-5.406749725E0
1.194494922E0	2.413889170E0	2.470880985E0	-5.287440300E0
1.196897698E0	2.458097696E0	2.781938076E0	-5.149488449E0
1.198117922E0	2.493784189E0	3.097789049E0	-4.987035751E0
1.200952890E0	2.511893511E0	3.402987242E0	-4.805408001E0
1.202566076E0	2.522546291E0	3.694869757E0	-4.617921352E0
1.205015313E0	2.515089273E0	3.979828119E0	-4.422977924E0
1.206303499E0	2.497512579E0	4.258927345E0	-4.219512463E0
1.209070736E0	2.458630323E0	4.533765316E0	-4.010720730E0
1.210696576E0	2.406432390E0	4.801679611E0	-3.795537233E0
1.213101044E0	2.332929134E0	5.065332413E0	-3.568103313E0
1.214358999E0	2.239718437E0	5.316734791E0	-3.340136766E0
1.217157121E0	2.128398418E0	5.559615135E0	-3.100984812E0
1.218812038E0	1.993109822E0	5.790245056E0	-2.866094112E0
1.221145153E0	1.840776920E0	6.011819839E0	-2.629072666E0
1.222537653E0	1.668204188E0	6.219013691E0	-2.389920712E0
1.225290928E0	1.482848167E0	6.406500340E0	-2.148105860E0
1.226683038E0	1.277252078E0	6.574812412E0	-1.912682295E0
1.229429544E0	1.055144429E0	6.722884178E0	-1.677791476E0
1.230807307E0	8.207862377E-1	6.848052502E0	-1.450357556E0
1.233521159E0	5.752428174E-1	6.943393707E0	-1.227184653E0
1.235438769E0	1.896170676E-1	7.031278133E0	-9.070726633E-1
1.237583198E0	-7.190535218E-2	7.039267540E0	-6.998787522E-1
1.238906384E0	-3.318298757E-1	7.002515793E0	-5.075985193E-1
1.241640236E0	-5.965480804E-1	6.853911400E0	-3.227751255E-1
1.243331038E0	-8.548747301E-1	6.511961460E0	-1.283643693E-1
1.245719390E0	-1.104679227E0	6.034723282E0	6.870955974E-2
1.247031461E0	-1.335309029E0	5.486644745E0	2.577939928E-1
1.249775851E0	-1.550492406E0	4.912467003E0	4.340952635E-1
1.251537692E0	-1.742772698E0	4.307396889E0	5.986786485E-1
1.253806351E0	-1.902029634E0	3.668238163E0	7.451524734E-1
1.255085307E0	-2.031991959E0	3.016829014E0	8.751147389E-1
1.257862505E0	-2.125735283E0	2.356364965E0	9.859022498E-1
1.259490961E0	-2.183259487E0	1.700162053E0	1.077515006E0
1.261861807E0	-2.213619471E0	1.050883412E0	1.152083516E0
1.263268692E0	-2.211488962E0	4.202468395E-1	1.213336229E0
1.265981659E0	-2.183259487E0	-1.890844405E-1	1.261805773E0
1.267570538E0	-2.131594181E0	-7.733820081E-1	1.294828892E0
1.270011197E0	-2.060221434E0	-1.334776402E0	1.317199469E0
1.271368461E0	-1.969141364E0	-1.855690718E0	1.331580520E0
1.274067236E0	-1.867408633E0	-2.337190151E0	1.330515265E0
1.275733692E0	-1.755555868E0	-2.776079178E0	1.329450011E0
1.278130351E0	-1.635713577E0	-3.172890186E0	1.319862604E0
1.279433768E0	-1.505751252E0	-3.515905380E0	1.304948926E0
1.282186159E0	-1.376854300E0	-3.813646793E0	1.285241604E0
1.283843268E0	-1.248489976E0	-4.063451290E0	1.262871027E0
1.286249159E0	-1.120658159E0	-4.269579887E0	1.241565704E0
1.287561230E0	-9.912285805E-1	-4.432565212E0	1.214401484E0
1.290311467E0	-8.623315692E-1	-4.560929775E0	1.187237263E0
1.291994845E0	-6.748450398E-1	-4.685565472E0	1.141430855E0
1.294357351E0	-6.119944453E-1	-4.712197304E0	1.125984550E0
1.295729768E0	-4.857605994E-1	-4.740959644E0	1.088167667E0
1.298414082E0	-3.627225459E-1	-4.735633373E0	1.053546548E0
1.300084961E0	-1.763012707E-1	-4.672782421E0	9.960222840E-1
1.302400615E0	-1.134506613E-1	-4.639226913E0	9.725864530E-1
1.303752422E0	5.326322280E-3	-4.549211979E0	9.294432402E-1
1.306532428E0	1.166464612E-1	-4.438424587E0	8.863000274E-1
1.308095961E0	2.695119083E-1	-4.238154411E0	8.138620257E-1
1.310662582E0	3.589941263E-1	-4.083691120E0	7.675230503E-1
1.311936115E0	4.319647253E-1	-3.919640541E0	7.179882526E-1
1.314753890E0	4.958806038E-1	-3.743871927E0	6.689860821E-1
1.316382115E0	5.518069863E-1	-3.556385279E0	6.178534031E-1
1.318831851E0	5.944175720E-1	-3.361442089E0	5.683186054E-1
1.320075268E0	6.263754964E-1	-3.155845881E0	5.198490620E-1
1.322888274E0	6.487460732E-1	-2.944923639E0	4.719121456E-1
1.324472345E0	6.551376581E-1	-2.728142262E0	4.223773479E-1
1.326951005E0	6.540724039E-1	-2.504969358E0	3.744404614E-1
1.328168153E0	6.487460732E-1	-2.272209167E0	3.291667104E-1
1.331006928E0	6.423544884E-1	-2.017610788E0	2.854908705E-1
1.332651576E0	6.471481323E-1	-1.730522156E0	2.391518652E-1
1.335038236E0	6.604639888E-1	-1.418932199E0	1.981391907E-1
1.336444845E0	6.796387434E-1	-1.091896057E0	1.576591432E-1
1.339094082E0	6.950850487E-1	-7.515440583E-1	1.193096191E-1
1.340737384E0	7.084008455E-1	-4.063983858E-1	8.309062570E-2
1.343023192E0	7.147924304E-1	-6.924218684E-2	5.273059011E-2
1.344411307E0	7.004113793E-1	2.508697808E-1	2.396845073E-2
1.347226659E0	6.647250056E-1	5.374259353E-1	1.597896684E-3
1.348956345E0	6.056028605E-1	7.882956862E-1	-1.278317347E-2
1.351303005E0	5.267732739E-1	1.000815988E0	-2.556634694E-2
1.352633153E0	4.287689328E-1	1.172856212E0	-2.982740477E-2
1.355358774E0	3.195793331E-1	1.315601587E0	-3.195793182E-2
1.356967115E0	1.518001854E-1	1.462608099E0	-1.704423130E-2
1.359422120E0	9.534116834E-2	1.499359727E0	-1.171790902E-2
1.360657691E0	-5.326322280E-3	1.557416677E0	8.522115648E-3
1.363478043E0	-1.001348570E-1	1.596298814E0	3.142530099E-2
1.365096730E0	-2.173139453E-1	1.622930408E0	7.882957160E-2
1.367554774E0	-2.860234976E-1	1.614408255E0	1.145159304E-1
1.368835538E0	-3.137203753E-1	1.604820848E0	1.326254308E-1
1.371610889E0	-3.973436356E-1	1.552090287E0	1.954760253E-1
1.373231576E0	-4.415521026E-1	1.500424981E0	2.444781959E-1
1.375640466E0	-4.809668958E-1	1.437041759E0	2.897519469E-1
1.377111538E0	-5.086637735E-1	1.366201639E0	3.398193717E-1
1.379696851E0	-5.294364095E-1	1.293763638E0	3.882888854E-1
1.381284345E0	-5.427522659E-1	1.219195127E0	4.356931746E-1
1.383655268E0	-5.566006899E-1	1.140898228E0	4.873584807E-1
1.384961961E0	-5.677859783E-1	1.054611802E0	5.310343504E-1
1.387813966E0	-5.805691481E-1	9.629990458E-1	5.784385800E-1
1.389154730E0	-5.954828262E-1	8.612663150E-1	6.221144199E-1
1.391928582E0	-6.103965044E-1	7.600662112E-1	6.631271243E-1
1.393193615E0	-6.263754964E-1	6.588660479E-1	7.062703371E-1
1.396019466E0	-6.380934119E-1	5.667206645E-1	7.462177277E-1
1.397623961E0	-6.476807594E-1	4.841626883E-1	7.920241356E-1
1.400081505E0	-6.546050310E-1	3.984089196E-1	8.325041533E-1
1.401348345E0	-6.631271243E-1	3.142530024E-1	8.713863492E-1
1.404137274E0	-6.721818447E-1	2.284992188E-1	9.092032313E-1
1.405713461E0	-6.807039976E-1	1.400822699E-1	9.459548593E-1
1.408201812E0	-6.908239722E-1	4.900216311E-2	9.789780378E-1
1.409401845E0	-7.014766335E-1	-4.846953228E-2	1.011468649E0
1.412258812E0	-7.089334726E-1	-1.507349163E-1	1.037034988E0
1.413867730E0	-7.206513882E-1	-3.004045784E-1	1.067394972E0
1.416303697E0	-7.206513882E-1	-3.510046303E-1	1.075917125E0
1.417575576E0	-7.217166424E-1	-4.468784332E-1	1.087635040E0
1.420359928E0	-7.105314136E-1	-5.395564437E-1	1.094026566E0
1.422133038E0	-6.849650741E-1	-6.556702852E-1	1.092961311E0
1.424242153E0	-6.737797856E-1	-6.924219131E-1	1.088167667E0
1.425689115E0	-6.471481323E-1	-7.526093125E-1	1.076449752E0
1.428477466E0	-6.135923266E-1	-8.069378138E-1	1.061003447E0
1.429963038E0	-5.512743592E-1	-8.681905270E-1	1.029045463E0
1.432527428E0	-5.305017233E-1	-8.868326545E-1	1.015729666E0
1.433852038E0	-4.910869002E-1	-9.177253246E-1	9.928264618E-1
1.436583504E0	-4.218447208E-1	-9.470201135E-1	9.464874864E-1
1.438177653E0	-3.781688809E-1	-9.645969868E-1	9.108011127E-1
1.440660389E0	-3.371562064E-1	-9.757822156E-1	8.719189763E-1
1.441916422E0	-2.966761589E-1	-9.859022498E-1	8.351673484E-1
1.444716389E0	-2.577939928E-1	-9.901633263E-1	7.936220169E-1
1.446373884E0	-2.215750068E-1	-9.912285805E-1	7.467503548E-1
1.448779351E0	-1.906823367E-1	-9.912285805E-1	7.004113793E-1
1.450037691E0	-1.624528319E-1	-9.896306992E-1	6.567355394E-1
1.452835351E0	-1.384843737E-1	-9.906959534E-1	6.125270724E-1
1.454529653E0	-1.209075153E-1	-9.906959534E-1	5.709817410E-1
1.456865043E0	-1.065264493E-1	-9.917612076E-1	5.358279943E-1
1.458111076E0	-9.374327213E-2	-9.906959534E-1	5.017395616E-1
1.460921197E0	-8.415589482E-2	-9.880327582E-1	4.772384763E-1
1.462540499E0	-7.510114461E-2	-9.736517072E-1	4.548679292E-1
1.464849845E0	-6.444849819E-2	-9.566074610E-1	4.378236830E-1
1.466251845E0	-5.486112088E-2	-9.326390028E-1	4.207794666E-1
1.469022389E0	-4.420847446E-2	-8.990831971E-1	4.074636400E-1
1.470437038E0	-3.462109342E-2	-8.612663150E-1	3.962783813E-1
1.473135197E0	-2.396845073E-2	-8.170578480E-1	3.856257200E-1
1.474403576E0	-1.544633508E-2	-7.669904232E-1	3.824299276E-1
1.477226274E0	-6.391586736E-3	-7.153250575E-1	3.829625845E-1
1.478842614E0	1.065264456E-3	-6.370281577E-1	3.893541694E-1
1.481288697E0	4.793690052E-3	-6.109291911E-1	3.909520507E-1
1.482532730E0	5.858954508E-3	-5.571333170E-1	3.994741738E-1
1.485345312E0	5.326322280E-3	-5.060006380E-1	4.101268053E-1
1.487079691E0	-3.728425596E-3	-4.383563101E-1	4.271710515E-1
1.489422274E0	-7.989482954E-3	-4.218447208E-1	4.367584288E-1
1.490652691E0	-1.810949668E-2	-3.968110085E-1	4.452805519E-1
1.493478620E0	-2.769687586E-2	-3.712446690E-1	4.420847595E-1
1.495337076E0	-3.834952042E-2	-3.334277868E-1	4.186489284E-1
1.497508120E0	-4.367584363E-2	-3.259709179E-1	4.069310129E-1
1.498828922E0	-6.231797114E-2	-3.371562064E-1	3.898867965E-1
1.501563350E0	-9.374327213E-2	-4.175836742E-1	3.542004228E-1
1.503215114E0	-1.118527651E-1	-4.894890189E-1	3.339604139E-1
1.505567576E0	-1.251685768E-1	-5.544701219E-1	3.078614175E-1
1.506879961E0	-1.395496428E-1	-5.880259871E-1	2.924150825E-1
1.509681812E0	-1.464738697E-1	-5.784385800E-1	2.881540358E-1
1.511391076E0	-1.608549356E-1	-5.560680628E-1	2.828277051E-1
1.513722696E0	-1.858886480E-1	-5.555354357E-1	2.748382390E-1
1.514977922E0	-2.284992188E-1	-6.013417840E-1	2.769687474E-1
1.517778966E0	-2.817624509E-1	-6.791061163E-1	2.865561247E-1
1.519510768E0	-3.371562064E-1	-7.574030161E-1	3.046656251E-1
1.521841620E0	-3.787015080E-1	-8.127967715E-1	3.169161677E-1
1.523099076E0	-4.127899706E-1	-8.394283652E-1	3.254382908E-1
1.525897350E0	-4.452805519E-1	-8.511462808E-1	3.323625028E-1
1.527595230E0	-4.713795185E-1	-8.463526368E-1	3.408846259E-1
1.529959966E0	-4.932174385E-1	-8.250473142E-1	3.392867148E-1
1.531257961E0	-5.145227313E-1	-7.920241356E-1	3.355582952E-1
1.534016081E0	-5.315669775E-1	-7.499461770E-1	3.376888335E-1
1.535629307E0	-5.459480286E-1	-7.025418878E-1	3.344930410E-1
1.538060235E0	-5.613943934E-1	-6.476807594E-1	3.371562064E-1
1.539354499E0	-5.736449361E-1	-5.837649107E-1	3.312972486E-1
1.542116543E0	-5.837649107E-1	-5.161206126E-1	3.291667104E-1
1.543744961E0	-5.933523178E-1	-4.431500137E-1	3.265035450E-1
1.546113153E0	-6.018744111E-1	-3.675162494E-1	3.233077526E-1
1.547600691E0	-6.114618182E-1	-2.924150825E-1	3.201119602E-1
1.550233966E0	-6.167881489E-1	-2.167813182E-1	3.222424984E-1
1.551636230E0	-6.231797338E-1	-1.390170157E-1	3.222424984E-1
1.554335235E0	-6.231797338E-1	-6.231797114E-2	3.222424984E-1
1.555749076E0	-6.215817928E-1	1.118527725E-2	3.275688291E-1
1.558425235E0	-6.189186573E-1	7.829693705E-2	3.350256681E-1
1.560060191E0	-6.072007418E-1	1.565938741E-1	3.446130455E-1
1.562501773E0	-6.024070382E-1	1.763012707E-1	3.478088379E-1
1.563729076E0	-5.933523178E-1	2.066612989E-1	3.542004228E-1
1.566556889E0	-5.741775632E-1	2.306297570E-1	3.632551730E-1
1.568305614E0	-5.608617067E-1	2.364887148E-1	3.659183383E-1
1.570585504E0	-5.448827744E-1	2.364887148E-1	3.669835925E-1
1.571809499E0	-5.246427655E-1	2.306297570E-1	3.664509654E-1
1.574640773E0	-5.049353242E-1	2.189118415E-1	3.669835925E-1
1.576292961E0	-4.804342687E-1	2.039981484E-1	3.680488765E-1
1.578669158E0	-4.585963488E-1	1.885518134E-1	3.685815036E-1
1.579931345E0	-4.330300093E-1	1.699096859E-1	3.669835925E-1
1.582724196E0	-4.095941782E-1	1.507349163E-1	3.701793849E-1
1.584397499E0	-3.893541694E-1	1.288969964E-1	3.680488765E-1
1.586683691E0	-3.675162494E-1	1.054611802E-1	3.696467578E-1
1.588050961E0	-3.510046303E-1	8.042746782E-2	3.728425503E-1
1.590854081E0	-3.387540877E-1	4.793690145E-2	3.771036267E-1
1.592399884E0	-3.302319944E-1	1.118527725E-2	3.813646734E-1
1.594905696E0	-3.249056637E-1	-2.237055451E-2	3.845604658E-1
1.596179191E0	-3.249056637E-1	-5.592638254E-2	3.866910040E-1
1.598961081E0	-3.211772442E-1	-8.841694891E-2	3.888215125E-1
1.600580384E0	-3.270362020E-1	-1.166464612E-1	3.888215125E-1
1.603022350E0	-3.318298757E-1	-1.507349163E-1	3.909520507E-1
1.604330307E0	-3.398193717E-1	-1.736381054E-1	3.920173049E-1
1.607077312E0	-3.515372574E-1	-1.949433982E-1	3.914846778E-1
1.608702191E0	-3.611246645E-1	-2.178465873E-1	3.893541694E-1
1.611154158E0	-3.760383427E-1	-2.327602804E-1	3.872236311E-1
1.612418576E0	-3.904194236E-1	-2.508697808E-1	3.824299276E-1
1.615209235E0	-4.032025933E-1	-2.652508616E-1	3.792341352E-1
1.616879461E0	-4.277036786E-1	-2.817624509E-1	3.728425503E-1
1.619238581E0	-4.351605177E-1	-2.892192900E-1	3.675162494E-1
1.620672076E0	-4.484763443E-1	-2.998719513E-1	3.627225459E-1
1.623294658E0	-4.655205607E-1	-3.078614175E-1	3.579288721E-1
1.624971114E0	-4.857605994E-1	-3.190467060E-1	3.494067490E-1
1.627253499E0	-4.921521842E-1	-3.217098713E-1	3.456783295E-1
1.628702499E0	-5.049353242E-1	-3.296993375E-1	3.371562064E-1
1.631412773E0	-5.166532397E-1	-3.355582952E-1	3.275688291E-1
1.632804653E0	-5.305017233E-1	-3.339604139E-1	3.195793331E-1
1.635529581E0	-5.315669775E-1	-3.233077526E-1	3.057309091E-1
1.636900576E0	-5.331648588E-1	-3.030677438E-1	2.945456207E-1
1.639619696E0	-5.336974859E-1	-2.854908705E-1	2.876214087E-1
1.641223384E0	-5.368933082E-1	-2.684466541E-1	2.817624509E-1
1.643679773E0	-5.390238166E-1	-2.551308274E-1	2.817624509E-1
1.645092653E0	-5.422195792E-1	-2.508697808E-1	2.796319127E-1
1.647735658E0	-5.427522659E-1	-2.503371537E-1	2.721750736E-1
1.649342307E0	-5.422195792E-1	-2.519350350E-1	2.695119083E-1
1.651797311E0	-5.416869521E-1	-2.567287385E-1	2.599245310E-1
1.653070961E0	-5.342301130E-1	-2.577939928E-1	2.498045117E-1
1.655854273E0	-5.283711553E-1	-2.593919039E-1	2.455434501E-1
1.657539422E0	-5.214469433E-1	-2.604571581E-1	2.391518652E-1
1.659899927E0	-5.102616549E-1	-2.599245310E-1	2.402171344E-1
1.661191961E0	-5.001416802E-1	-2.609897852E-1	2.455434501E-1
1.663955619E0	-4.894890189E-1	-2.647182047E-1	2.476739883E-1
1.665559807E0	-4.783037305E-1	-2.711097896E-1	2.545982003E-1
1.668016960E0	-4.660531878E-1	-2.854908705E-1	2.561961114E-1
1.669365537E0	-4.548679292E-1	-2.998719513E-1	2.615224123E-1
1.672072581E0	-4.431500137E-1	-3.190467060E-1	2.647182047E-1
1.673564114E0	-4.314320982E-1	-3.424825370E-1	2.641855776E-1
1.676118157E0	-4.154531360E-1	-3.616572917E-1	2.663161159E-1
1.677421768E0	-3.994741738E-1	-3.893541694E-1	2.615224123E-1
1.680174311E0	-3.840278387E-1	-4.175836742E-1	2.572613657E-1
1.681792614E0	-3.552657068E-1	-4.617921412E-1	2.482066154E-1
1.684250888E0	-3.456783295E-1	-4.756405652E-1	2.418150306E-1
1.685606191E0	-3.259709179E-1	-5.086637735E-1	2.354234457E-1
1.688306080E0	-3.078614175E-1	-5.416869521E-1	2.210423797E-1
1.689910653E0	-2.769687474E-1	-5.848301649E-1	2.013349831E-1
1.692368119E0	-2.663161159E-1	-6.002765298E-1	1.922802329E-1
1.693641614E0	-2.418150306E-1	-6.279733777E-1	1.747033745E-1
1.696423465E0	-2.205097377E-1	-6.530070901E-1	1.560612470E-1
1.698084460E0	-1.880191714E-1	-6.865629554E-1	1.267664731E-1
1.700452773E0	-1.794970632E-1	-6.961503029E-1	1.171790883E-1
1.701741460E0	-1.571265012E-1	-7.105314136E-1	9.800432622E-2
1.704508119E0	-1.379517466E-1	-7.259777188E-1	7.989483327E-2
1.706153884E0	-1.107875034E-1	-7.387608886E-1	5.379585549E-2
1.708533960E0	-9.480853379E-2	-7.446198463E-1	3.408846259E-2
1.709848537E0	-8.309062570E-2	-7.467503548E-1	1.970739290E-2
1.712640350E0	-7.563377917E-2	-7.446198463E-1	5.858954508E-3
1.714148076E0	-6.444849819E-2	-7.382282615E-1	-7.456851192E-3
1.716752311E0	-5.965480953E-2	-7.334345579E-1	-2.130528912E-2
1.718255114E0	-6.125270575E-2	-7.281082273E-1	-3.195793182E-2
1.720843965E0	-6.072007492E-2	-7.206513882E-1	-4.261057824E-2
1.722613537E0	-6.711166352E-2	-7.126619220E-1	-4.953479767E-2
1.724905465E0	-7.190535218E-2	-7.057377100E-1	-5.539375171E-2
1.726171768E0	-8.255799860E-2	-7.456851006E-1	-6.338323653E-2
1.728961965E0	-1.017327532E-1	-9.118663669E-1	-7.297061384E-2
1.730603999E0	-1.390170157E-1	-1.217597246E0	-7.776430249E-2
1.733038734E0	-1.704423130E-1	-1.569667220E0	-7.936219871E-2
1.734365845E0	-1.810949594E-1	-1.920671821E0	-6.551376730E-2
1.737095580E0	-1.757686287E-1	-2.252501726E0	-4.420847446E-2
1.738873384E0	-1.587243974E-1	-2.556634665E0	-1.970739290E-2
1.741126157E0	-1.464738697E-1	-2.819755077E0	2.663161140E-3
1.742516807E0	-1.379517466E-1	-3.047721624E0	2.503371425E-2
1.745182003E0	-1.379517466E-1	-3.243730307E0	4.154531285E-2
1.746790691E0	-1.502022892E-1	-3.489273787E0	6.072007492E-2
1.749090576E0	-1.544633508E-1	-3.564907551E0	6.711166352E-2
1.750513768E0	-1.688444167E-1	-3.700196028E0	7.563377917E-2
1.753298580E0	-1.794970632E-1	-3.807787895E0	8.681905270E-2
1.755115460E0	-1.970739216E-1	-3.918575287E0	1.022653878E-1
1.757335772E0	-2.002697140E-1	-3.938282728E0	1.113201380E-1
1.758570576E0	-2.109223604E-1	-3.959588051E0	1.235706806E-1
1.761390772E0	-2.183792144E-1	-3.936684847E0	1.304948926E-1
1.763007537E0	-2.247707993E-1	-3.838680506E0	1.400822699E-1
1.765453157E0	-2.306297570E-1	-3.794471979E0	1.454086006E-1
1.766683307E0	-2.311623842E-1	-3.679955959E0	1.512675583E-1
1.769508734E0	-2.338255495E-1	-3.460511684E0	1.592570394E-1
1.771113422E0	-2.322276533E-1	-3.291134596E0	1.608549356E-1
1.773571426E0	-2.306297570E-1	-3.124420643E0	1.624528319E-1
1.774835114E0	-2.327602804E-1	-2.964631081E0	1.640507281E-1
1.777632311E0	-2.364887148E-1	-2.806439161E0	1.597896665E-1
1.779414268E0	-2.434129268E-1	-2.656769514E0	1.518001854E-1
1.781677695E0	-2.492718846E-1	-2.522546291E0	1.379517466E-1
1.782915653E0	-2.524676621E-1	-2.409628153E0	1.230380461E-1
1.785733272E0	-2.567287385E-1	-2.313754320E0	1.022653878E-1
1.787421883E0	-2.588592768E-1	-2.234924793E0	7.563377917E-2
1.789671614E0	-2.556634545E-1	-2.158225775E0	4.527373984E-2
1.791025999E0	-2.407497615E-1	-2.091114044E0	1.225054078E-2
1.793851888E0	-2.071939409E-1	-2.029861450E0	-2.716424316E-2
1.795373807E0	-1.512675583E-1	-1.964880347E0	-6.391586363E-2
1.797920426E0	-9.480853379E-2	-1.870071769E0	-1.027980223E-1
1.799240268E0	-3.781688958E-2	-1.728391528E0	-1.342233270E-1
1.801975118E0	8.522115648E-3	-1.548361897E0	-1.640507281E-1
1.803761307E0	4.900216311E-2	-1.337439537E0	-1.858886480E-1
1.806050772E0	8.681905270E-2	-1.115331888E0	-2.045307755E-1
1.807263691E0	1.299622655E-1	-8.889631629E-1	-2.125202566E-1
1.810105849E0	1.741707325E-1	-6.636597514E-1	-2.157160491E-1
1.811839537E0	2.221076339E-1	-4.452805519E-1	-2.093244642E-1
1.814165311E0	2.748382390E-1	-2.380866110E-1	-1.986718178E-1
1.815406076E0	3.249056637E-1	-5.006742850E-2	-1.800296903E-1
1.818220080E0	3.744404614E-1	1.230380461E-1	-1.549959779E-1
1.819857691E0	4.394215941E-1	3.547330499E-1	-1.017327532E-1
1.822250003E0	4.591289759E-1	4.266384244E-1	-8.309062570E-2
1.823492230E0	4.948153496E-1	5.550028086E-1	-3.408846259E-2
1.826305541E0	5.262406468E-1	6.657902598E-1	1.864212751E-2
1.827980691E0	5.587311983E-1	8.042746782E-1	1.033306494E-1
1.830382311E0	5.661880374E-1	8.442220688E-1	1.336906850E-1
1.831620922E0	5.725796223E-1	9.155948162E-1	1.858886480E-1
1.834438041E0	5.693838596E-1	9.731190801E-1	2.290318608E-1
1.836018460E0	5.534048676E-1	1.032773852E0	2.806971967E-1
1.838479118E0	5.443501472E-1	1.045557022E0	2.966761589E-1
1.839758883E0	5.225121975E-1	1.059405446E0	3.201119602E-1
1.842534541E0	4.756405652E-1	1.051416039E0	3.456783295E-1
1.844173960E0	4.394215941E-1	1.026914954E0	3.573962152E-1
1.846596541E0	4.021373391E-1	9.880327582E-1	3.632551730E-1
1.847862114E0	3.611246645E-1	9.289106131E-1	3.643204570E-1
1.850652234E0	3.137203753E-1	8.607336879E-1	3.627225459E-1
1.852350845E0	2.689792812E-1	7.840346098E-1	3.605920076E-1
1.854729272E0	2.231729031E-1	7.014766335E-1	3.573962152E-1
1.856031845E0	1.805623323E-1	6.173207760E-1	3.515372574E-1
1.858785195E0	1.400822699E-1	5.262406468E-1	3.451456726E-1
1.860382114E0	1.017327532E-1	4.372910559E-1	3.392867148E-1
1.862813887E0	7.030745596E-2	3.515372574E-1	3.312972486E-1
1.864155845E0	3.515372798E-2	2.631203234E-1	3.249056637E-1
1.866869387E0	2.130528912E-3	1.842907518E-1	3.163835406E-1
1.868531653E0	-2.130528912E-2	1.182443574E-1	3.030677438E-1
1.870885999E0	-4.474110901E-2	6.178534031E-2	2.945456207E-1
1.872190845E0	-7.190535218E-2	5.858954508E-3	2.881540358E-1
1.874986503E0	-9.534116834E-2	-3.728425503E-2	2.790992856E-1
1.876647076E0	-1.107875034E-1	-7.243798673E-2	2.721750736E-1
1.879030618E0	-1.304948926E-1	-1.006674916E-1	2.647182047E-1
1.880349268E0	-1.539307088E-1	-1.278317273E-1	2.615224123E-1
1.883085810E0	-1.640507281E-1	-1.390170157E-1	2.530003190E-1
1.884942806E0	-1.747033745E-1	-1.384843737E-1	2.439455539E-1
1.887147887E0	-1.885518134E-1	-1.448759735E-1	2.322276533E-1
1.888411691E0	-2.029328793E-1	-1.416801661E-1	2.231729031E-1
1.891204003E0	-2.077265680E-1	-1.278317273E-1	2.098570913E-1
1.893015653E0	-2.205097377E-1	-1.038632840E-1	1.858886480E-1
1.895265810E0	-2.226402760E-1	-9.693906456E-2	1.778991669E-1
1.896498845E0	-2.205097377E-1	-7.084008306E-2	1.587243974E-1
1.899320772E0	-2.173139453E-1	-3.302319720E-2	1.384843737E-1
1.900943614E0	-2.098570913E-1	1.331580617E-2	9.321063757E-2
1.903363657E0	-2.109223604E-1	2.237055451E-2	8.149272949E-2
1.904707345E0	-2.082591951E-1	4.740426689E-2	6.018744037E-2
1.907418580E0	-1.954760253E-1	8.575379103E-2	3.249056637E-2
1.909018460E0	-1.784317940E-1	1.486043930E-1	-1.438106969E-2
1.911354883E0	-1.704423130E-1	1.677791476E-1	-3.249056637E-2
1.912750191E0	-1.608549356E-1	1.816275865E-1	-6.391586363E-2
1.915533503E0	-1.560612470E-1	1.880191714E-1	-9.587380290E-2
1.917060345E0	-1.438107044E-1	2.082591951E-1	-1.310275346E-1
1.919576041E0	-1.304948926E-1	2.311623842E-1	-1.688444167E-1
1.920829191E0	-1.219727769E-1	2.487392575E-1	-2.098570913E-1
1.923631118E0	-1.107875034E-1	2.556634545E-1	-2.402171344E-1
1.925269806E0	-1.049285457E-1	2.524676621E-1	-2.711097896E-1
1.927708080E0	-9.853696078E-2	2.460760921E-1	-2.934803665E-1
1.928969422E0	-9.693906456E-2	2.370213419E-1	-3.110572100E-1
1.931763464E0	-9.640643001E-2	2.306297570E-1	-3.217098713E-1
1.933379922E0	-9.640643001E-2	2.205097377E-1	-3.355582952E-1
1.935825387E0	-9.587380290E-2	2.119876295E-1	-3.403519988E-1
1.937069114E0	-9.960222989E-2	2.008023560E-1	-3.446130455E-1
1.939884233E0	-1.012001261E-1	1.864212751E-1	-3.472762108E-1
1.941521883E0	-1.070590764E-1	1.794970632E-1	-3.462109566E-1
1.943914156E0	-1.113201380E-1	1.715075821E-1	-3.467435837E-1
1.945187191E0	-1.150485575E-1	1.688444167E-1	-3.435477912E-1
1.947968964E0	-1.219727769E-1	1.688444167E-1	-3.392867148E-1
1.949592306E0	-1.193096191E-1	1.720402092E-1	-3.254382908E-1
1.951930037E0	-1.225054115E-1	1.826928556E-1	-3.126551211E-1
1.953376230E0	-1.241033077E-1	1.949433982E-1	-3.020024598E-1
1.956099156E0	-1.235706806E-1	2.130528986E-1	-2.934803665E-1
1.957482499E0	-1.246359423E-1	2.316950262E-1	-2.780340314E-1
1.960218426E0	-1.209075153E-1	2.524676621E-1	-2.631203234E-1
1.961530730E0	-1.203748807E-1	2.695119083E-1	-2.498045117E-1
1.964307618E0	-1.187769845E-1	2.913498282E-1	-2.391518652E-1
1.965930960E0	-1.203748807E-1	3.281014562E-1	-2.183792144E-1
1.968368156E0	-1.209075153E-1	3.371562064E-1	-2.087918371E-1
1.969628806E0	-1.219727769E-1	3.584614992E-1	-1.944107562E-1
1.972422387E0	-1.251685768E-1	3.824299276E-1	-1.778991669E-1
1.974091076E0	-1.304948926E-1	4.165183902E-1	-1.555286050E-1
1.976498118E0	-1.320927888E-1	4.330300093E-1	-1.427454352E-1
1.977767691E0	-1.384843737E-1	4.500742257E-1	-1.288969964E-1
1.980552656E0	-1.470064968E-1	4.671184719E-1	-1.193096191E-1
1.982163653E0	-1.523328125E-1	4.868258536E-1	-1.086569726E-1
1.984582387E0	-1.560612470E-1	4.996090233E-1	-1.012001261E-1
1.985970845E0	-1.667138934E-1	5.065332651E-1	-9.321063757E-2
1.988637695E0	-1.736381054E-1	5.097290277E-1	-8.948221803E-2
1.990459422E0	-1.832254827E-1	5.091964006E-1	-8.096009493E-2
1.992632653E0	-1.933455020E-1	5.049353242E-1	-8.362326026E-2
1.994075229E0	-2.013349831E-1	5.001416802E-1	-8.468852192E-2
1.996752964E0	-2.093244642E-1	4.953479767E-1	-9.108011425E-2
1.998436922E0	-2.130528986E-1	4.942827225E-1	-9.693906456E-2
2.000807964E0	-2.135855258E-1	5.017395616E-1	-1.038632840E-1
2.002246268E0	-2.119876295E-1	5.086637735E-1	-1.118527651E-1
2.004862887E0	-2.055960447E-1	5.182511806E-1	-1.166464612E-1
2.006535653E0	-2.013349831E-1	5.267732739E-1	-1.203748807E-1
2.008922810E0	-1.912149638E-1	5.358279943E-1	-1.299622655E-1
2.010262191E0	-1.816275865E-1	5.438175201E-1	-1.326254308E-1
2.012977618E0	-1.699096859E-1	5.470132828E-1	-1.400822699E-1
2.014676383E0	-1.560612470E-1	5.528722405E-1	-1.518001854E-1
2.017039079E0	-1.390170157E-1	5.688512325E-1	-1.741707325E-1
2.018338999E0	-1.187769845E-1	5.816344023E-1	-1.917476058E-1
2.021094195E0	-1.012001261E-1	5.944175720E-1	-2.162486911E-1
2.022863229E0	-7.669904083E-2	6.066681147E-1	-2.450108230E-1
2.025138579E0	-4.900216311E-2	6.151902080E-1	-2.604571581E-1
2.026424883E0	-2.343581803E-2	6.162554622E-1	-2.545982003E-1
2.029193848E0	5.326322280E-4	6.061354876E-1	-2.183792144E-1
2.030971268E0	2.769687586E-2	5.773733258E-1	-1.352885813E-1
2.033255771E0	3.621899337E-2	5.672533512E-1	-1.059938148E-1
2.034554114E0	5.539375171E-2	5.438175201E-1	-4.953479767E-2
2.037311271E0	7.669904083E-2	5.305017233E-1	-1.597896684E-3
2.038875114E0	1.102548689E-1	5.012069345E-1	5.379585549E-2
2.041375041E0	1.161138266E-1	4.873584807E-1	7.243798673E-2
2.042722114E0	1.278317273E-1	4.490089715E-1	1.081243455E-1
2.045430079E0	1.342233270E-1	4.090615511E-1	1.358212233E-1
2.047350037E0	1.358212233E-1	3.627225459E-1	1.576591432E-1
2.049505502E0	1.390170157E-1	3.451456726E-1	1.597896665E-1
2.051058345E0	1.422128081E-1	3.456783295E-1	1.496696621E-1
2.053560694E0	1.411475390E-1	3.542004228E-1	1.315601617E-1
2.055481499E0	1.395496428E-1	3.632551730E-1	1.134506613E-1
2.057621271E0	1.294296384E-1	3.712446690E-1	9.640643001E-2
2.058904076E0	1.219727769E-1	3.882888854E-1	8.202536404E-2
2.061675771E0	1.123853996E-1	4.202468395E-1	6.924218684E-2
2.063331960E0	1.097222418E-1	4.692489803E-1	5.006742850E-2
2.065737041E0	1.012001261E-1	5.086637735E-1	4.367584363E-2
2.067037845E0	9.054747969E-2	5.512743592E-1	3.941478580E-2
2.069791964E0	7.989483327E-2	6.013417840E-1	3.568635881E-2
2.071572768E0	7.616640627E-2	6.540724039E-1	3.408846259E-2
2.073794576E0	7.297061384E-2	7.137271762E-1	2.769687586E-2
2.075379537E0	7.084008306E-2	7.771103978E-1	2.343581803E-2
2.077924040E0	6.657902896E-2	8.309062719E-1	1.757686399E-2
2.079449614E0	6.231797114E-2	8.793758154E-1	1.651159860E-2
2.081966694E0	5.006742850E-2	9.065400362E-1	1.278317347E-2
2.083454806E0	4.101268202E-2	9.251821637E-1	1.171790902E-2
2.086021233E0	2.663161233E-2	9.358348250E-1	1.171790902E-2
2.087689460E0	1.384843793E-2	9.353021979E-1	1.384843793E-2
2.090080156E0	0.000000000E0	9.283779860E-1	1.544633508E-2
2.091349960E0	-1.544633508E-2	9.139968753E-1	2.130528912E-2
2.094135233E0	-2.876213938E-2	9.006810784E-1	2.077265643E-2
2.095777076E0	-4.261057824E-2	8.703210354E-1	1.597896591E-2
2.098210117E0	-4.793690145E-2	8.591358066E-1	1.491370238E-2
2.099480614E0	-5.219795927E-2	8.378304839E-1	1.012001187E-2
2.102268925E0	-5.858954415E-2	8.090683818E-1	1.597896684E-3
2.103968076E0	-6.391586363E-2	7.590008974E-1	-9.054748341E-3
2.106298348E0	-6.338323653E-2	7.424893379E-1	-1.225054078E-2
2.107601999E0	-6.231797114E-2	7.158577442E-1	-2.290318534E-2
2.110353079E0	-5.912217870E-2	6.870955825E-1	-3.089267015E-2
2.112132845E0	-5.166532472E-2	6.482134461E-1	-4.207794741E-2
2.114374306E0	-4.900216311E-2	6.322344542E-1	-4.633900523E-2
2.115683383E0	-4.207794741E-2	6.045376062E-1	-5.326322466E-2
2.118468540E0	-3.355583176E-2	5.523396134E-1	-5.912217870E-2
2.119888345E0	-2.822950855E-2	5.038700700E-1	-6.018744037E-2
2.122511117E0	-2.929477207E-2	4.468784332E-1	-5.326322466E-2
2.123775037E0	-2.929477207E-2	3.813646734E-1	-5.060006306E-2
2.126565925E0	-3.408846259E-2	3.073287904E-1	-3.781688958E-2
2.128252845E0	-3.834952042E-2	2.231729031E-1	-2.396845073E-2
2.130595656E0	-4.474110901E-2	1.390170157E-1	-9.587380104E-3
2.131948499E0	-5.166532472E-2	5.592638254E-2	5.326322280E-3
2.134651848E0	-5.592638254E-2	-2.450108156E-2	1.917476021E-2
2.136431691E0	-6.072007492E-2	-1.017327532E-1	3.462109342E-2
2.138714002E0	-6.498113275E-2	-1.731054783E-1	4.527373984E-2
2.139961499E0	-6.870955974E-2	-2.364887148E-1	5.645901710E-2
2.142770233E0	-7.403588295E-2	-2.902845740E-1	6.125270575E-2
2.144524806E0	-7.723167539E-2	-3.376888335E-1	6.391586363E-2
2.146814848E0	-7.563377917E-2	-3.723099232E-1	6.817692518E-2
2.148129345E0	-7.297061384E-2	-3.872236311E-1	6.018744037E-2
2.150871271E0	-6.764429063E-2	-3.941478431E-1	5.592638254E-2
2.152603422E0	-6.285060197E-2	-3.925499618E-1	5.379585549E-2
2.154820922E0	-5.912217870E-2	-3.866910040E-1	5.273059011E-2
2.156269460E0	-5.592638254E-2	-3.739078343E-1	5.166532472E-2
2.158988348E0	-4.953479767E-2	-3.536677957E-1	5.006742850E-2
2.160721768E0	-4.793690145E-2	-3.334277868E-1	5.113269389E-2
2.163026732E0	-4.527373984E-2	-3.073287904E-1	5.166532472E-2
2.164323960E0	-4.633900523E-2	-2.801645398E-1	5.432848632E-2
2.167081579E0	-3.994741663E-2	-2.503371537E-1	5.539375171E-2
2.168758999E0	-4.154531285E-2	-2.215750068E-1	5.486112088E-2
2.171157579E0	-4.633900523E-2	-1.986718178E-1	5.486112088E-2
2.172423691E0	-5.273059011E-2	-1.789644361E-1	5.486112088E-2
2.175212579E0	-5.912217870E-2	-1.656486243E-1	5.592638254E-2
2.177036537E0	-7.297061384E-2	-1.491370201E-1	5.858954415E-2
2.179274079E0	-7.776430249E-2	-1.432780623E-1	5.752427876E-2
2.180648268E0	-8.681905270E-2	-1.326254308E-1	6.072007492E-2
2.183329771E0	-9.640643001E-2	-1.214401498E-1	6.072007492E-2
2.185010922E0	-1.081243455E-1	-1.086569726E-1	6.072007492E-2
2.187360271E0	-1.102548689E-1	-1.033306494E-1	5.965480953E-2
2.188926845E0	-1.198422536E-1	-9.906959534E-2	5.432848632E-2
2.191416463E0	-1.267664731E-1	-9.214537591E-2	5.645901710E-2
2.193133960E0	-1.331580579E-1	-9.214537591E-2	5.486112088E-2
2.195379422E0	-1.347559541E-1	-8.841694891E-2	6.604639441E-2
2.196767729E0	-1.358212233E-1	-8.149272949E-2	6.924218684E-2
2.199548809E0	-1.342233270E-1	-8.149272949E-2	8.042746782E-2
2.201001652E0	-1.278317273E-1	-8.096009493E-2	9.853696078E-2
2.203669617E0	-1.235706806E-1	-8.309062570E-2	1.075917110E-1
2.205096999E0	-1.198422536E-1	-8.415589482E-2	1.118527651E-1
2.207759078E0	-1.155811921E-1	-9.054747969E-2	1.129180342E-1
2.209517460E0	-1.081243455E-1	-1.012001261E-1	1.118527651E-1
2.211821271E0	-1.001348570E-1	-1.187769845E-1	1.049285457E-1
2.213104460E0	-9.693906456E-2	-1.470064968E-1	9.960222989E-2
2.215875040E0	-8.894958347E-2	-1.725728363E-1	8.788431436E-2
2.217492537E0	-8.309062570E-2	-2.055960447E-1	7.776430249E-2
2.219951463E0	-7.936219871E-2	-2.460760921E-1	7.403588295E-2
2.221282883E0	-7.350324839E-2	-2.844256163E-1	6.285060197E-2
2.224007001E0	-6.764429063E-2	-3.233077526E-1	5.166532472E-2
2.225684075E0	-6.285060197E-2	-3.675162494E-1	4.207794741E-2
2.228036617E0	-6.125270575E-2	-4.191815555E-1	3.408846259E-2
2.229498537E0	-6.338323653E-2	-4.708468914E-1	2.237055451E-2
2.232092963E0	-6.072007492E-2	-5.235774517E-1	1.704423130E-2
2.233875768E0	-6.924218684E-2	-5.874933600E-1	2.290318534E-2
2.236096768E0	-8.255799860E-2	-6.562029123E-1	2.183792181E-2
2.237546729E0	-8.681905270E-2	-7.190535069E-1	2.130528912E-2
2.240211694E0	-9.214537591E-2	-7.648598552E-1	2.130528912E-2
2.241856152E0	-5.379585549E-2	-7.041398287E-1	7.456851192E-3
2.244262732E0	-3.994741663E-2	-6.865629554E-1	7.989482954E-3
2.245548229E0	-2.609897964E-2	-6.540724039E-1	8.522115648E-3
2.248318501E0	-5.326322280E-3	-6.237123609E-1	1.118527725E-2
2.250025999E0	1.225054078E-2	-5.763080716E-1	2.450108156E-2
2.252381540E0	1.810949668E-2	-5.629922748E-1	2.556634694E-2
2.253748037E0	2.716424316E-2	-5.379585624E-1	3.781688958E-2
2.256437271E0	3.355583176E-2	-5.171858668E-1	4.527373984E-2
2.258206229E0	3.675162420E-2	-4.932174385E-1	6.604639441E-2
2.260498809E0	3.462109342E-2	-4.841626883E-1	8.522115648E-2
2.261759652E0	2.822950855E-2	-4.830974340E-1	1.081243455E-1
2.264557809E0	1.651159860E-2	-4.921521842E-1	1.320927888E-1
2.266223152E0	3.195793368E-3	-5.113269091E-1	1.592570394E-1
2.268601694E0	-1.065264456E-2	-5.289037824E-1	1.810949594E-1
2.269926345E0	-2.396845073E-2	-5.454154015E-1	2.013349831E-1
2.272656847E0	-3.728425503E-2	-5.661880374E-1	2.205097377E-1
2.274286960E0	-4.953479767E-2	-5.912217498E-1	2.354234457E-1
2.276692999E0	-5.965480953E-2	-6.167881489E-1	2.519350350E-1
2.278093652E0	-7.137271762E-2	-6.428871155E-1	2.620550692E-1
2.280773463E0	-7.669904083E-2	-6.695187092E-1	2.641855776E-1
2.282154345E0	-8.362326026E-2	-6.982808709E-1	2.657834888E-1
2.284883617E0	-9.054747969E-2	-7.307714224E-1	2.641855776E-1
2.286234691E0	-9.161274135E-2	-7.664577961E-1	2.604571581E-1
2.288973578E0	-9.640643001E-2	-8.032094240E-1	2.492718846E-1
2.290682345E0	-9.587380290E-2	-8.399610519E-1	2.418150306E-1
2.293048424E0	-9.800432622E-2	-8.809736967E-1	2.263686955E-1
2.294284152E0	-1.022653878E-1	-9.198558331E-1	2.173139453E-1
2.297103463E0	-9.800432622E-2	-9.587380290E-1	2.082591951E-1
2.298726691E0	-1.022653878E-1	-9.960222840E-1	2.008023560E-1
2.301165232E0	-1.033306494E-1	-1.030110717E0	1.949433982E-1
2.302446345E0	-1.054611802E-1	-1.056742311E0	1.874865443E-1
2.305219809E0	-1.054611802E-1	-1.080178142E0	1.864212751E-1
2.306873922E0	-1.091896072E-1	-1.112668753E0	1.821602285E-1
2.309250309E0	-1.081243455E-1	-1.121723413E0	1.842907518E-1
2.310525114E0	-1.155811921E-1	-1.138235092E0	1.848233789E-1
2.313305232E0	-1.182443574E-1	-1.156344533E0	1.858886480E-1
2.315059498E0	-1.310275346E-1	-1.168595076E0	1.848233789E-1
2.317345806E0	-1.336906850E-1	-1.171258211E0	1.874865443E-1
2.318720806E0	-1.374191195E-1	-1.168062449E0	1.832254827E-1
2.321436270E0	-1.470064968E-1	-1.154746652E0	1.640507281E-1
2.322987729E0	-1.496696621E-1	-1.135039330E0	1.560612470E-1
2.325488693E0	-1.486043930E-1	-1.103081346E0	1.411475390E-1
2.326806537E0	-1.470064968E-1	-1.064731836E0	1.246359423E-1
2.329544501E0	-1.416801661E-1	-1.018925428E0	1.086569726E-1
2.331313422E0	-1.352885813E-1	-9.661948681E-1	8.788431436E-2
2.333606463E0	-1.235706806E-1	-9.060074091E-1	6.711166352E-2
2.334883768E0	-1.145159304E-1	-8.415589333E-1	4.633900523E-2
2.337662578E0	-9.800432622E-2	-7.733820081E-1	1.704423130E-2
2.339410037E0	-8.202536404E-2	-7.062703371E-1	-9.587380104E-3
2.341740924E0	-6.338323653E-2	-6.396912932E-1	-3.355583176E-2
2.343005306E0	-4.580637068E-2	-5.773733258E-1	-5.858954415E-2
2.345796770E0	-2.716424316E-2	-5.219795704E-1	-8.149272949E-2
2.347467037E0	-1.225054078E-2	-4.756405652E-1	-1.027980223E-1
2.349826001E0	1.597896684E-3	-4.335626364E-1	-1.214401498E-1
2.351105845E0	1.704423130E-2	-4.016047120E-1	-1.347559541E-1
2.353882270E0	3.249056637E-2	-3.760383427E-1	-1.475391239E-1
2.355731152E0	4.207794741E-2	-3.584614992E-1	-1.549959779E-1
2.357850152E0	5.592638254E-2	-3.392867148E-1	-1.704423130E-1
2.359318229E0	6.764429063E-2	-3.249056637E-1	-1.773665249E-1
2.362000693E0	8.149272949E-2	-3.110572100E-1	-1.912149638E-1
2.363705998E0	9.267801046E-2	-2.956108749E-1	-2.029328793E-1
2.366127155E0	1.081243455E-1	-2.785666585E-1	-2.157160491E-1
2.367476152E0	1.209075153E-1	-2.588592768E-1	-2.258360684E-1
2.370217616E0	1.384843737E-1	-2.354234457E-1	-2.348908186E-1
2.372128037E0	1.629854590E-1	-1.853560209E-1	-2.561961114E-1
2.374279424E0	1.731054783E-1	-1.672465205E-1	-2.631203234E-1
2.375548691E0	1.922802329E-1	-1.257012039E-1	-2.769687474E-1
2.378336039E0	2.098570913E-1	-7.882957160E-2	-2.940129936E-1
2.379997383E0	2.343581766E-1	-7.989482954E-3	-3.121224940E-1
2.382399693E0	2.418150306E-1	1.651159860E-2	-3.206445873E-1
2.383765037E0	2.556634545E-1	6.444849819E-2	-3.312972486E-1
2.386455578E0	2.732403278E-1	1.315601617E-1	-3.478088379E-1
2.388136460E0	2.833603323E-1	1.736381054E-1	-3.542004228E-1
2.390499885E0	2.860234976E-1	2.109223604E-1	-3.579288721E-1
2.391784306E0	2.929477394E-1	2.439455539E-1	-3.600593805E-1
2.394555616E0	2.924150825E-1	2.769687474E-1	-3.579288721E-1
2.396475806E0	2.961435318E-1	3.030677438E-1	-3.557983339E-1
2.398571729E0	2.934803665E-1	3.249056637E-1	-3.510046303E-1
2.399956152E0	2.881540358E-1	3.451456726E-1	-3.440804183E-1
2.402673462E0	2.817624509E-1	3.605920076E-1	-3.371562064E-1
2.404262075E0	2.721750736E-1	3.675162494E-1	-3.334277868E-1
2.406714693E0	2.620550692E-1	3.717772961E-1	-3.291667104E-1
2.408032960E0	2.524676621E-1	3.739078343E-1	-3.265035450E-1
2.410770039E0	2.412824035E-1	3.696467578E-1	-3.190467060E-1
2.412429922E0	2.290318608E-1	3.637878001E-1	-3.121224940E-1
2.414846770E0	2.151834220E-1	3.573962152E-1	-3.099919558E-1
2.416142729E0	1.997370869E-1	3.483414650E-1	-3.057309091E-1
2.418901770E0	1.848233789E-1	3.371562064E-1	-3.014698327E-1
2.420507998E0	1.699096859E-1	3.227751255E-1	-2.966761589E-1
2.422963001E0	1.549959779E-1	3.051982522E-1	-2.897519469E-1
2.424246152E0	1.384843737E-1	2.790992856E-1	-2.801645398E-1
2.427020924E0	1.257012039E-1	2.530003190E-1	-2.684466541E-1
2.428740037E0	1.081243455E-1	2.258360684E-1	-2.609897852E-1
2.431050001E0	9.321063757E-2	1.917476058E-1	-2.460760921E-1
2.432302268E0	7.776430249E-2	1.565938741E-1	-2.316950262E-1
2.435105270E0	6.285060197E-2	1.161138266E-1	-2.215750068E-1
2.436736845E0	3.941478580E-2	5.379585549E-2	-1.992044598E-1
2.439180770E0	3.462109342E-2	3.195793182E-2	-1.890844405E-1
2.440459537E0	2.183792181E-2	-1.384843793E-2	-1.709749401E-1
2.443235654E0	9.587380104E-3	-5.699164793E-2	-1.512675583E-1
2.444636075E0	-2.130528912E-3	-1.006674916E-1	-1.384843737E-1
2.447355039E0	-1.544633508E-2	-1.438107044E-1	-1.262338310E-1
2.448683229E0	-2.609897964E-2	-1.789644361E-1	-1.123853996E-1
2.451445270E0	-3.195793182E-2	-2.237055302E-1	-9.161274135E-2
2.453140575E0	-3.728425503E-2	-2.471413612E-1	-7.936219871E-2
2.455506116E0	-3.728425503E-2	-2.609897852E-1	-6.870955974E-2
2.456797345E0	-3.515372798E-2	-2.684466541E-1	-5.752427876E-2
2.459561077E0	-3.195793182E-2	-2.748382390E-1	-4.207794741E-2
2.461218037E0	-2.343581803E-2	-2.705771625E-1	-3.089267015E-2
2.463637001E0	-2.024002373E-2	-2.684466541E-1	-1.438106969E-2
2.464907768E0	-1.384843793E-2	-2.615224123E-1	-1.597896684E-3
2.467691808E0	-6.391586736E-3	-2.641855776E-1	9.587380104E-3
2.469336806E0	-1.065264456E-3	-2.620550692E-1	2.450108156E-2
2.471720616E0	3.728425596E-3	-2.657834888E-1	3.941478580E-2
2.473086575E0	1.118527725E-2	-2.775014043E-1	5.060006306E-2
2.475775154E0	1.917476021E-2	-2.908172011E-1	6.711166352E-2
2.477395037E0	2.609897964E-2	-3.062635362E-1	7.776430249E-2
2.479835385E0	3.728425503E-2	-3.153182864E-1	8.894958347E-2
2.481175345E0	4.793690145E-2	-3.243730366E-1	1.006674916E-1
2.483889693E0	6.178534031E-2	-3.302319944E-1	1.118527651E-1
2.485416998E0	7.190535218E-2	-3.371562064E-1	1.219727769E-1
2.487932231E0	8.681905270E-2	-3.414172530E-1	1.358212233E-1
2.489426960E0	1.043959185E-1	-3.435477912E-1	1.454086006E-1
2.491987347E0	1.203748807E-1	-3.456783295E-1	1.496696621E-1
2.493653345E0	1.342233270E-1	-3.611246645E-1	1.544633508E-1
2.496048424E0	1.496696621E-1	-3.749730885E-1	1.528654546E-1
2.497445306E0	1.640507281E-1	-3.888215125E-1	1.507349163E-1
2.500103423E0	1.752360016E-1	-4.026699662E-1	1.491370201E-1
2.501783729E0	1.874865443E-1	-4.143878818E-1	1.518001854E-1
2.504131962E0	1.890844405E-1	-4.127899706E-1	1.544633508E-1
2.505459921E0	1.986718178E-1	-4.143878818E-1	1.613875628E-1
2.508185923E0	2.008023560E-1	-4.053331316E-1	1.693770438E-1
2.509861383E0	2.114549875E-1	-3.755057156E-1	1.805623323E-1
2.512229577E0	2.157160491E-1	-3.637878001E-1	1.805623323E-1
2.513759691E0	2.237055302E-1	-3.312972486E-1	1.853560209E-1
2.516284500E0	2.327602804E-1	-2.929477394E-1	1.858886480E-1
2.518007345E0	2.514024079E-1	-2.210423797E-1	1.784317940E-1
2.520239729E0	2.551308274E-1	-1.933455020E-1	1.763012707E-1
2.521608691E0	2.705771625E-1	-1.384843737E-1	1.624528319E-1
2.524400346E0	2.822950780E-1	-5.965480953E-2	1.331580579E-1
2.525931037E0	2.902845740E-1	-1.864212751E-2	1.161138266E-1
2.528511270E0	2.902845740E-1	1.757686399E-2	9.321063757E-2
2.529795614E0	2.876214087E-1	4.687163606E-2	7.403588295E-2
2.532599308E0	2.817624509E-1	7.084008306E-2	5.752427876E-2
2.534387768E0	2.727077007E-1	9.267801046E-2	4.314320907E-2
2.536675693E0	2.604571581E-1	1.193096191E-1	2.929477207E-2
2.537949537E0	2.503371537E-1	1.454086006E-1	1.704423130E-2
2.540730462E0	2.391518652E-1	1.720402092E-1	3.728425596E-3
2.542398768E0	2.263686955E-1	2.013349831E-1	-7.456851192E-3
2.544790731E0	2.109223604E-1	2.290318608E-1	-1.864212751E-2
2.546062383E0	1.997370869E-1	2.577939928E-1	-2.822950855E-2
2.548845654E0	1.874865443E-1	2.865561247E-1	-3.515372798E-2
2.550493614E0	1.736381054E-1	3.142530024E-1	-3.994741663E-2
2.552874000E0	1.651159972E-1	3.360909224E-1	-4.527373984E-2
2.554182883E0	1.512675583E-1	3.568635881E-1	-4.633900523E-2
2.556929500E0	1.438107044E-1	3.755057156E-1	-4.580637068E-2
2.558852421E0	1.315601617E-1	3.866910040E-1	-4.953479767E-2
2.560984421E0	1.161138266E-1	3.909520507E-1	-4.846953228E-2
2.562297383E0	1.033306494E-1	3.904194236E-1	-4.420847446E-2
2.565061039E0	9.374327213E-2	3.882888854E-1	-4.420847446E-2
2.566641960E0	7.882957160E-2	3.797667921E-1	-4.580637068E-2
2.569107154E0	6.498113275E-2	3.669835925E-1	-5.113269389E-2
2.570401729E0	4.953479767E-2	3.499393761E-1	-5.486112088E-2
2.573161885E0	3.621899337E-2	3.281014562E-1	-5.965480953E-2
2.574805306E0	1.491370238E-2	2.881540358E-1	-6.604639441E-2
2.577223039E0	6.391586736E-3	2.727077007E-1	-6.977482140E-2
2.578546498E0	-1.171790902E-2	2.375539690E-1	-7.616640627E-2
2.581277615E0	-2.130528912E-2	2.013349831E-1	-8.415589482E-2
2.582974844E0	-4.154531285E-2	1.395496428E-1	-9.321063757E-2
2.585353077E0	-4.687163606E-2	1.182443574E-1	-9.161274135E-2
2.586642037E0	-5.486112088E-2	7.563377917E-2	-9.534116834E-2
2.589412539E0	-6.072007492E-2	1.331580617E-2	-1.001348570E-1
2.591032383E0	-6.231797114E-2	-2.130528912E-2	-1.017327532E-1
2.593439962E0	-5.752427876E-2	-5.592638254E-2	-1.075917110E-1
2.594712806E0	-5.166532472E-2	-8.149272949E-2	-1.123853996E-1
2.597494846E0	-4.101268202E-2	-1.038632840E-1	-1.203748807E-1
2.599101729E0	-2.716424316E-2	-1.235706806E-1	-1.294296384E-1
2.601403921E0	-1.491370238E-2	-1.406149119E-1	-1.416801661E-1
2.602779229E0	1.065264456E-3	-1.597896665E-1	-1.512675583E-1
2.605609615E0	1.810949668E-2	-1.826928556E-1	-1.640507281E-1
2.607057768E0	3.195793182E-2	-2.119876295E-1	-1.757686287E-1
2.609653231E0	4.474110901E-2	-2.444781959E-1	-1.896170676E-1
2.610927268E0	5.539375171E-2	-2.870887816E-1	-1.986718178E-1
2.613708346E0	6.125270575E-2	-3.344930410E-1	-2.071939409E-1
2.615317575E0	6.551376730E-2	-3.882888854E-1	-2.146507949E-1
2.617771308E0	6.764429063E-2	-4.463458061E-1	-2.210423797E-1
2.619008844E0	6.604639441E-2	-4.969458580E-1	-2.284992188E-1
2.621826692E0	5.858954415E-2	-5.475459099E-1	-2.311623842E-1
2.623438768E0	5.539375171E-2	-5.976133347E-1	-2.322276533E-1
2.625888731E0	4.740426689E-2	-6.402239203E-1	-2.284992188E-1
2.627241768E0	4.101268202E-2	-6.737797856E-1	-2.205097377E-1
2.629944346E0	2.982740477E-2	-7.020092607E-1	-2.082591951E-1
2.631572768E0	1.970739290E-2	-7.227819562E-1	-1.912149638E-1
2.633988692E0	6.924218964E-3	-7.355651259E-1	-1.731054783E-1
2.635306652E0	-6.391586736E-3	-7.430219650E-1	-1.507349163E-1
2.638044538E0	-1.917476021E-2	-7.403587699E-1	-1.214401498E-1
2.639681306E0	-3.515372798E-2	-7.297061682E-1	-9.427590668E-2
2.641993267E0	-5.379585549E-2	-7.147924304E-1	-6.072007492E-2
2.643342267E0	-7.190535218E-2	-6.934871674E-1	-2.556634694E-2
2.646162654E0	-9.321063757E-2	-6.657902598E-1	1.012001187E-2
2.647687883E0	-1.251685768E-1	-6.167881489E-1	6.072007492E-2
2.650197423E0	-1.374191195E-1	-5.981460214E-1	7.936219871E-2
2.651482460E0	-1.597896665E-1	-5.597964525E-1	1.097222418E-1
2.654252884E0	-1.832254827E-1	-5.251753926E-1	1.363538504E-1
2.655871306E0	-2.189118415E-1	-4.767058492E-1	1.757686287E-1
2.658331615E0	-2.316950262E-1	-4.628573954E-1	1.842907518E-1
2.659567729E0	-2.577939928E-1	-4.426173866E-1	2.008023560E-1
2.662387192E0	-2.854908705E-1	-4.266384244E-1	2.146507949E-1
2.663986921E0	-3.211772442E-1	-4.213120937E-1	2.215750068E-1
2.666448923E0	-3.483414650E-1	-4.282363057E-1	2.221076339E-1
2.667725575E0	-3.744404614E-1	-4.410194755E-1	2.157160491E-1
2.670503615E0	-3.973436356E-1	-4.601942301E-1	2.082591951E-1
2.672152114E0	-4.207794666E-1	-4.799016416E-1	1.965412945E-1
2.674532769E0	-4.458131790E-1	-5.070658922E-1	1.832254827E-1
2.675836729E0	-4.671184719E-1	-5.379585624E-1	1.693770438E-1
2.678587538E0	-4.878911078E-1	-5.709817410E-1	1.555286050E-1
2.680295114E0	-5.081311464E-1	-6.077333689E-1	1.491370201E-1
2.682626960E0	-5.283711553E-1	-6.487460732E-1	1.363538504E-1
2.683957460E0	-5.480785370E-1	-6.924219131E-1	1.352885813E-1
2.686718423E0	-5.640575290E-1	-7.382282615E-1	1.342233270E-1
2.688121383E0	-5.763080716E-1	-7.893609405E-1	1.352885813E-1
2.690836346E0	-5.906891227E-1	-8.415589333E-1	1.384843737E-1
2.692252306E0	-5.976133347E-1	-8.964200616E-1	1.406149119E-1
2.694926192E0	-5.986786485E-1	-9.486179948E-1	1.454086006E-1
2.696580614E0	-5.986786485E-1	-9.917612076E-1	1.448759735E-1
2.698987846E0	-5.944175720E-1	-1.019990683E0	1.411475390E-1
2.700417498E0	-5.832322836E-1	-1.034904361E0	1.336906850E-1
2.703043461E0	-5.704491138E-1	-1.032241225E0	1.209075153E-1
2.704701152E0	-5.347627401E-1	-9.965549111E-1	1.027980223E-1
2.707120653E0	-5.219795704E-1	-9.779127836E-1	9.374327213E-2
2.708392575E0	-4.948153496E-1	-9.257147908E-1	7.297061384E-2
2.711175384E0	-4.671184719E-1	-8.511462808E-1	4.527373984E-2
2.712824460E0	-4.282363057E-1	-7.089334726E-1	-1.065264456E-2
2.715204807E0	-4.143878818E-1	-6.524744630E-1	-3.355583176E-2
2.716498998E0	-3.936152160E-1	-5.416869521E-1	-7.616640627E-2
2.719260461E0	-3.691141307E-1	-4.287689328E-1	-1.209075153E-1
2.720958460E0	-3.387540877E-1	-2.647182047E-1	-1.842907518E-1
2.723316114E0	-3.265035450E-1	-2.178465873E-1	-2.039981484E-1
2.724658383E0	-3.062635362E-1	-1.230380461E-1	-2.412824035E-1
2.727378346E0	-2.828277051E-1	-7.456851192E-3	-2.865561247E-1
2.728957075E0	-2.679139972E-1	5.006742850E-2	-3.062635362E-1
2.731421461E0	-2.604571581E-1	9.853696078E-2	-3.217098713E-1
2.732686267E0	-2.460760921E-1	1.336906850E-1	-3.323625028E-1
2.735477500E0	-2.391518652E-1	1.555286050E-1	-3.387540877E-1
2.737088383E0	-2.338255495E-1	1.651159972E-1	-3.403519988E-1
2.739540653E0	-2.247707993E-1	1.597896665E-1	-3.414172530E-1
2.740793152E0	-2.199771106E-1	1.347559541E-1	-3.408846259E-1
2.743596307E0	-2.130528986E-1	1.006674916E-1	-3.387540877E-1
2.745223883E0	-2.071939409E-1	5.805691332E-2	-3.387540877E-1
2.747658884E0	-2.008023560E-1	2.130528912E-3	-3.387540877E-1
2.748905998E0	-1.933455020E-1	-5.858954415E-2	-3.371562064E-1
2.751719076E0	-1.784317940E-1	-1.150485575E-1	-3.392867148E-1
2.753388690E0	-1.619201899E-1	-1.688444167E-1	-3.392867148E-1
2.755762923E0	-1.406149119E-1	-2.162486911E-1	-3.392867148E-1
2.757075614E0	-1.182443574E-1	-2.524676621E-1	-3.403519988E-1
2.759819115E0	-8.948221803E-2	-2.865561247E-1	-3.414172530E-1
2.761807421E0	-6.338323653E-2	-3.105245829E-1	-3.371562064E-1
2.763736075E0	-3.888215125E-2	-3.275688291E-1	-3.318298757E-1
2.765130498E0	-1.438106969E-2	-3.414172530E-1	-3.179814517E-1
2.767935807E0	1.065264456E-2	-3.424825370E-1	-3.083940744E-1
2.769304690E0	2.716424316E-2	-3.536677957E-1	-2.945456207E-1
2.772047076E0	4.900216311E-2	-3.520699143E-1	-2.780340314E-1
2.773443229E0	6.764429063E-2	-3.382214606E-1	-2.551308274E-1
2.776137653E0	8.415589482E-2	-3.344930410E-1	-2.306297570E-1
2.777854383E0	9.480853379E-2	-3.462109566E-1	-1.906823367E-1
2.780215653E0	9.906959534E-2	-3.488741219E-1	-1.821602285E-1
2.781516075E0	1.038632840E-1	-3.467435837E-1	-1.704423130E-1
2.784271538E0	1.017327532E-1	-3.573962152E-1	-1.592570394E-1
2.785961037E0	9.960222989E-2	-3.797667921E-1	-1.480717659E-1
2.788332499E0	9.587380290E-2	-3.888215125E-1	-1.464738697E-1
2.789608883E0	8.628641814E-2	-4.175836742E-1	-1.427454352E-1
2.792388115E0	7.456851006E-2	-4.516721368E-1	-1.475391239E-1
2.794052344E0	6.125270575E-2	-4.783037305E-1	-1.480717659E-1
2.796417922E0	4.793690145E-2	-5.091964006E-1	-1.539307088E-1
2.797642306E0	3.302319720E-2	-5.459480286E-1	-1.533980817E-1
2.800474230E0	1.544633508E-2	-5.922870636E-1	-1.544633508E-1
2.802145806E0	2.663161140E-3	-6.322344542E-1	-1.539307088E-1
2.804519652E0	-1.651159860E-2	-6.679208279E-1	-1.464738697E-1
2.806013383E0	-2.609897964E-2	-6.924219131E-1	-1.406149119E-1
2.808606422E0	-3.941478580E-2	-7.169229984E-1	-1.326254308E-1
2.810116075E0	-5.326322466E-2	-7.494135499E-1	-1.145159304E-1
2.812630692E0	-6.604639441E-2	-7.765777707E-1	-9.534116834E-2
2.814088075E0	-7.723167539E-2	-7.978830934E-1	-6.817692518E-2
2.816685768E0	-8.735168725E-2	-8.111988902E-1	-3.941478580E-2
2.818339998E0	-9.693906456E-2	-8.218515515E-1	-1.331580617E-2
2.820745961E0	-1.033306494E-1	-8.245146871E-1	1.544633508E-2
2.822170383E0	-1.081243455E-1	-8.266451955E-1	4.633900523E-2
2.824800768E0	-1.166464612E-1	-8.245146871E-1	7.456851006E-2
2.826459037E0	-1.214401498E-1	-8.175904751E-1	1.043959185E-1
2.828876922E0	-1.251685768E-1	-8.133293986E-1	1.320927888E-1
2.830240575E0	-1.310275346E-1	-8.064051867E-1	1.571265012E-1
2.832931884E0	-1.315601617E-1	-7.914915085E-1	1.880191714E-1
2.834584883E0	-1.315601617E-1	-7.765777707E-1	2.151834220E-1
2.836960461E0	-1.320927888E-1	-7.637946010E-1	2.466087192E-1
2.838392844E0	-1.315601617E-1	-7.499461770E-1	2.748382390E-1
2.841015230E0	-1.257012039E-1	-7.158577442E-1	2.966761589E-1
2.842702883E0	-1.161138266E-1	-6.860303283E-1	3.206445873E-1
2.845022037E0	-1.102548689E-1	-6.476807594E-1	3.366235793E-1
2.846330075E0	-9.587380290E-2	-6.024070382E-1	3.494067490E-1
2.849131268E0	-7.989483327E-2	-5.544701219E-1	3.595267534E-1
2.850507383E0	-6.444849819E-2	-4.990763962E-1	3.707120419E-1
2.853255653E0	-5.006742850E-2	-4.479437172E-1	3.723099232E-1
2.854711883E0	-4.207794741E-2	-3.946804702E-1	3.733751774E-1
2.857345422E0	-3.142530099E-2	-3.531351686E-1	3.739078343E-1
2.859031883E0	-1.491370238E-2	-2.908172011E-1	3.739078343E-1
2.861406845E0	-1.384843793E-2	-2.604571581E-1	3.797667921E-1
2.862663575E0	-9.054748341E-3	-2.258360684E-1	3.866910040E-1
2.865461537E0	-9.054748341E-3	-2.002697140E-1	3.973436356E-1
2.867241075E0	-6.391586736E-3	-1.752360016E-1	4.090615511E-1
2.869522768E0	-7.989482954E-3	-1.427454352E-1	4.143878818E-1
2.870828998E0	-9.054748341E-3	-1.054611802E-1	4.175836742E-1
2.873578114E0	-9.054748341E-3	-8.735168725E-2	4.255731404E-1
2.875363844E0	-1.810949668E-2	-8.096009493E-2	4.410194755E-1
2.877621422E0	-2.290318534E-2	-8.735168725E-2	4.580637217E-1
2.878997306E0	-2.822950855E-2	-8.788431436E-2	4.783037305E-1
2.881676384E0	-2.663161233E-2	-7.243798673E-2	4.799016416E-1
2.883494460E0	-3.462109342E-2	-6.711166352E-2	4.761732221E-1
2.885737653E0	-3.675162420E-2	-6.977482140E-2	4.719121456E-1
2.887352575E0	-4.367584363E-2	-8.894958347E-2	4.708468914E-1
2.889793460E0	-4.474110901E-2	-1.134506613E-1	4.756405652E-1
2.891494113E0	-4.420847446E-2	-1.288969964E-1	4.687163532E-1
2.893831768E0	-4.261057824E-2	-1.454086006E-1	4.575310946E-1
2.895100037E0	-3.781688958E-2	-1.709749401E-1	4.506068528E-1
2.897887614E0	-3.408846259E-2	-2.061286718E-1	4.463458061E-1
2.899553613E0	-2.237055451E-2	-2.247707993E-1	4.356931746E-1
2.901964384E0	-1.171790902E-2	-2.418150306E-1	4.298342168E-1
2.903237767E0	5.326322280E-4	-2.572613657E-1	4.223773479E-1
2.906020422E0	1.810949668E-2	-2.721750736E-1	4.149205089E-1
2.907683152E0	3.462109342E-2	-2.876214087E-1	4.074636400E-1
2.910082307E0	5.219795927E-2	-3.020024598E-1	3.978762627E-1
2.911706960E0	7.243798673E-2	-3.201119602E-1	3.888215125E-1
2.914142576E0	9.214537591E-2	-3.376888335E-1	3.818973005E-1
2.915786037E0	1.235706806E-1	-3.542004228E-1	3.685815036E-1
2.918171883E0	1.363538504E-1	-3.568635881E-1	3.637878001E-1
2.919459844E0	1.597896665E-1	-3.568635881E-1	3.568635881E-1
2.922228383E0	1.757686287E-1	-3.621899188E-1	3.467435837E-1
2.924157267E0	1.997370869E-1	-3.755057156E-1	3.387540877E-1
2.926237960E0	2.002697140E-1	-3.834952116E-1	3.323625028E-1
2.927591037E0	2.050634027E-1	-4.000068009E-1	3.291667104E-1
2.930360653E0	2.098570913E-1	-4.026699662E-1	3.238403797E-1
2.931845613E0	2.061286718E-1	-3.973436356E-1	3.179814517E-1
2.934481383E0	2.034655064E-1	-3.904194236E-1	3.142530024E-1
2.935839613E0	2.055960447E-1	-3.637878001E-1	3.057309091E-1
2.938572691E0	2.039981484E-1	-3.318298757E-1	2.972087860E-1
2.940267383E0	2.018676102E-1	-3.030677438E-1	2.881540358E-1
2.942634999E0	1.970739216E-1	-2.780340314E-1	2.822950780E-1
2.943971460E0	1.922802329E-1	-2.519350350E-1	2.711097896E-1
2.946690999E0	1.880191714E-1	-2.284992188E-1	2.609897852E-1
2.948423537E0	1.805623323E-1	-2.087918371E-1	2.545982003E-1
2.950767153E0	1.720402092E-1	-1.901497096E-1	2.364887148E-1
2.952024190E0	1.651159972E-1	-1.699096859E-1	2.253034264E-1
2.954822999E0	1.592570394E-1	-1.390170157E-1	2.034655064E-1
2.956500306E0	1.518001854E-1	-1.113201380E-1	1.864212751E-1
2.958852883E0	1.390170157E-1	-8.894958347E-2	1.693770438E-1
2.960129460E0	1.283643693E-1	-7.669904083E-2	1.544633508E-1
2.962908691E0	1.225054115E-1	-4.900216311E-2	1.411475390E-1
2.964626190E0	1.150485575E-1	-1.704423130E-2	1.257012039E-1
2.966938806E0	1.049285457E-1	1.597896684E-3	1.113201380E-1
2.968234460E0	9.853696078E-2	1.491370238E-2	1.054611802E-1
2.970994383E0	9.321063757E-2	4.314320907E-2	9.161274135E-2
2.972908652E0	9.321063757E-2	6.764429063E-2	8.096009493E-2
2.975042614E0	9.321063757E-2	9.001484513E-2	6.444849819E-2
2.976491536E0	9.161274135E-2	1.001348570E-1	4.580637068E-2
2.979098306E0	9.214537591E-2	9.108011425E-2	3.462109342E-2
2.980813767E0	9.374327213E-2	7.190535218E-2	4.900216311E-2
2.983159922E0	9.374327213E-2	6.657902896E-2	4.793690145E-2
2.984500383E0	9.267801046E-2	5.752427876E-2	4.101268202E-2
2.987214614E0	9.267801046E-2	5.379585549E-2	2.982740477E-2
2.988989229E0	9.001484513E-2	6.125270575E-2	3.249056637E-2
2.991275999E0	9.427590668E-2	6.338323653E-2	3.462109342E-2
2.992542960E0	9.267801046E-2	7.030745596E-2	3.089267015E-2
2.995330922E0	9.001484513E-2	7.669904083E-2	2.929477207E-2
2.996993498E0	8.096009493E-2	8.575379103E-2	-5.326322280E-4
2.999374268E0	7.936219871E-2	1.081243455E-1	-3.675162420E-2
3.000870036E0	7.350324839E-2	1.267664731E-1	-7.829693705E-2
3.003428729E0	5.965480953E-2	1.368864775E-1	-1.459412277E-1
3.005422460E0	4.474110901E-2	1.438107044E-1	-2.189118415E-1
3.007461075E0	2.290318534E-2	1.416801661E-1	-2.913498282E-1
3.009067075E0	-1.597896684E-3	1.475391239E-1	-3.643204570E-1
3.011546345E0	-3.941478580E-2	1.336906850E-1	-4.426173866E-1
3.013042229E0	-7.137271762E-2	1.251685768E-1	-5.251753926E-1
3.015675575E0	-1.027980223E-1	1.235706806E-1	-5.949501991E-1
3.017057767E0	-1.368864775E-1	1.150485575E-1	-6.487460732E-1
3.019765460E0	-1.672465205E-1	1.166464612E-1	-6.966829300E-1
3.021464306E0	-1.928128600E-1	1.310275346E-1	-7.334345579E-1
3.023841998E0	-2.151834220E-1	1.576591432E-1	-7.568703890E-1
3.025194575E0	-2.231729031E-1	1.949433982E-1	-7.558051348E-1
3.027897421E0	-2.316950262E-1	2.407497615E-1	-7.382282615E-1
3.029492998E0	-2.295644879E-1	2.886866629E-1	-7.036072016E-1
3.031959306E0	-2.284992188E-1	3.339604139E-1	-6.583334208E-1
3.033301690E0	-2.178465873E-1	3.787015080E-1	-6.093312502E-1
3.036014768E0	-2.050634027E-1	4.170510471E-1	-5.619270205E-1
3.037896883E0	-1.885518134E-1	4.447479248E-1	-5.187838078E-1
3.040046191E0	-1.704423130E-1	4.655205607E-1	-4.868258536E-1
3.041339883E0	-1.528654546E-1	4.767058492E-1	-4.687163532E-1
3.044101460E0	-1.395496428E-1	4.830974340E-1	-4.639226794E-1
3.045849267E0	-1.049285457E-1	4.969458580E-1	-4.703142643E-1
3.048177691E0	-9.693906456E-2	4.953479767E-1	-4.735100567E-1
3.049472152E0	-8.415589482E-2	4.783037305E-1	-4.905542731E-1
3.052233498E0	-7.030745596E-2	4.628573954E-1	-5.187838078E-1
3.053807460E0	-4.900216311E-2	4.415521026E-1	-5.842975378E-1
3.056313460E0	-4.261057824E-2	4.372910559E-1	-6.087986231E-1
3.057717421E0	-3.089267015E-2	4.335626364E-1	-6.583334208E-1
3.060368537E0	-5.326322280E-3	4.426173866E-1	-7.270429730E-1
3.062010844E0	1.384843793E-2	4.548679292E-1	-7.643272281E-1
3.064430498E0	3.408846259E-2	4.713795185E-1	-7.872304320E-1
3.065715421E0	5.379585549E-2	4.964132309E-1	-7.973504663E-1
3.068486229E0	7.243798673E-2	5.177185535E-1	-7.962851524E-1
3.070309536E0	9.267801046E-2	5.363606811E-1	-7.808388472E-1
3.072562152E0	1.102548689E-1	5.528722405E-1	-7.584682703E-1
3.073896690E0	1.272991002E-1	5.683186054E-1	-7.265103459E-1
3.076617652E0	1.390170157E-1	5.779059529E-1	-6.876282096E-1
3.078299536E0	1.512675583E-1	5.853627920E-1	-6.466155052E-1
3.080646806E0	1.597896665E-1	5.885586143E-1	-6.056028605E-1
3.081937459E0	1.667138934E-1	5.896238685E-1	-5.699164867E-1
3.084701960E0	1.688444167E-1	5.821670294E-1	-5.310343504E-1
3.086375229E0	1.677791476E-1	5.725796223E-1	-5.054680109E-1
3.088763652E0	1.672465205E-1	5.566006899E-1	-4.809668958E-1
3.089996459E0	1.592570394E-1	5.406216979E-1	-4.612595141E-1
3.092817921E0	1.475391239E-1	5.219795704E-1	-4.506068528E-1
3.094355498E0	1.352885813E-1	4.996090233E-1	-4.420847595E-1
3.096928190E0	1.193096191E-1	4.697816372E-1	-4.367584288E-1
3.098270036E0	1.022653878E-1	4.410194755E-1	-4.308994710E-1
3.101018383E0	8.202536404E-2	4.090615511E-1	-4.261057973E-1
3.102729844E0	4.900216311E-2	3.685815036E-1	-4.122573435E-1
3.105080537E0	3.728425503E-2	3.536677957E-1	-4.063983858E-1
3.106371613E0	1.331580617E-2	3.344930410E-1	-3.930825889E-1
3.109136537E0	-1.065264456E-2	3.126551211E-1	-3.728425503E-1
3.110795498E0	-5.113269389E-2	2.913498282E-1	-3.419498801E-1
3.113199767E0	-6.178534031E-2	2.844256163E-1	-3.328951299E-1
3.114501113E0	-8.735168725E-2	2.743056118E-1	-3.099919558E-1
3.117254767E0	-1.123853996E-1	2.652508616E-1	-2.844256163E-1
3.118904998E0	-1.459412277E-1	2.524676621E-1	-2.455434501E-1
3.121298306E0	-1.565938741E-1	2.508697808E-1	-2.322276533E-1
3.122642613E0	-1.784317940E-1	2.466087192E-1	-2.039981484E-1
3.125353036E0	-2.050634027E-1	2.364887148E-1	-1.629854590E-1
3.126974690E0	-2.215750068E-1	2.274339646E-1	-1.342233270E-1
3.129344459E0	-2.316950262E-1	2.157160491E-1	-1.134506613E-1
3.130742613E0	-2.439455539E-1	2.002697140E-1	-9.001484513E-2
3.133467421E0	-2.514024079E-1	1.832254827E-1	-7.084008306E-2
3.135337883E0	-2.615224123E-1	1.635181010E-1	-4.953479767E-2
3.137518383E0	-2.663161159E-1	1.432780623E-1	-3.195793182E-2
3.138892921E0	-2.663161159E-1	1.241033077E-1	-1.225054078E-2
3.141573152E0	-2.615224123E-1	9.906959534E-2	5.858954508E-3
3.143310498E0	-2.556634545E-1	8.149272949E-2	2.822950855E-2
3.145648998E0	-2.450108230E-1	6.498113275E-2	5.273059011E-2
3.147001613E0	-2.343581766E-1	5.006742850E-2	7.776430249E-2
3.149705075E0	-2.141181529E-1	3.888215125E-2	1.033306494E-1
3.151372267E0	-1.976065636E-1	3.142530099E-2	1.304948926E-1
3.153767536E0	-1.731054783E-1	2.929477207E-2	1.597896665E-1
3.155222421E0	-1.507349163E-1	3.302319720E-2	1.826928556E-1
3.157823036E0	-1.246359423E-1	3.888215125E-2	2.146507949E-1
3.159477344E0	-9.800432622E-2	4.740426689E-2	2.402171344E-1
3.161852383E0	-7.084008306E-2	6.125270575E-2	2.689792812E-1
3.163315998E0	-4.101268202E-2	7.882957160E-2	2.929477394E-1
3.165907498E0	-1.438106969E-2	9.693906456E-2	3.179814517E-1
3.167658498E0	1.331580617E-2	1.193096191E-1	3.424825370E-1
3.169958113E0	4.314320907E-2	1.416801661E-1	3.669835925E-1
3.171277921E0	6.924218684E-2	1.709749401E-1	3.888215125E-1
3.174039882E0	9.534116834E-2	1.986718178E-1	4.042678475E-1
3.175516036E0	1.203748807E-1	2.300971150E-1	4.213120937E-1
3.178159421E0	1.438107044E-1	2.636529505E-1	4.378236830E-1
3.179453882E0	1.688444167E-1	2.972087860E-1	4.468784332E-1
3.182249421E0	1.890844405E-1	3.318298757E-1	4.548679292E-1
3.183865882E0	2.194444835E-1	3.968110085E-1	4.596616030E-1
3.186310805E0	2.300971150E-1	4.175836742E-1	4.633900523E-1
3.187572344E0	2.482066154E-1	4.617921412E-1	4.660531878E-1
3.190366305E0	2.732403278E-1	5.331648588E-1	4.623247683E-1
3.192105267E0	2.929477394E-1	5.880259871E-1	4.564658105E-1
3.194442882E0	3.089267015E-1	6.402239203E-1	4.484763443E-1
3.195718921E0	3.254382908E-1	6.902913451E-1	4.351605177E-1
3.198498652E0	3.398193717E-1	7.387608886E-1	4.207794666E-1
3.200146729E0	3.568635881E-1	7.877630591E-1	4.026699662E-1
3.202528036E0	3.685815036E-1	8.341020942E-1	3.776362538E-1
3.203927613E0	3.813646734E-1	8.745821118E-1	3.605920076E-1
3.206583421E0	3.930825889E-1	9.150621891E-1	3.387540877E-1
3.208198421E0	4.069310129E-1	9.528790712E-1	3.174487948E-1
3.210608921E0	4.223773479E-1	9.933590889E-1	2.993393242E-1
3.212044421E0	4.330300093E-1	1.030110717E0	2.785666585E-1
3.214700728E0	4.452805519E-1	1.062601328E0	2.615224123E-1
3.216259575E0	4.569984376E-1	1.098820329E0	2.412824035E-1
3.218742228E0	4.649879336E-1	1.132376075E0	2.178465873E-1
3.220074306E0	4.740426838E-1	1.168595076E0	1.976065636E-1
3.222798267E0	4.825648069E-1	1.210140467E0	1.672465205E-1
3.224465959E0	4.932174385E-1	1.261273146E0	1.379517466E-1
3.226860190E0	4.985437691E-1	1.310807943E0	1.049285457E-1
3.228126575E0	5.033374429E-1	1.351820588E0	7.456851006E-2
3.230916190E0	5.065332651E-1	1.390702724E0	4.633900523E-2
3.232586190E0	5.107942820E-1	1.428519607E0	1.438106969E-2
3.234978075E0	5.107942820E-1	1.471130252E0	-2.290318534E-2
3.236326498E0	5.161206126E-1	1.516936541E0	-6.178534031E-2
3.239036844E0	5.203816891E-1	1.569134593E0	-1.059938148E-1
3.240785344E0	5.315669775E-1	1.671399951E0	-1.752360016E-1
3.243081651E0	5.400890708E-1	1.727858901E0	-2.029328793E-1
3.244395382E0	5.693838596E-1	1.875398040E0	-2.727077007E-1
3.247137228E0	5.986786485E-1	2.028796196E0	-3.360909224E-1
3.248997421E0	6.354302764E-1	2.191781521E0	-4.048005044E-1
3.251200074E0	6.492787004E-1	2.240251064E0	-4.255731404E-1
3.252523190E0	6.759102941E-1	2.328135490E0	-4.511395097E-1
3.255256074E0	6.993461251E-1	2.405367136E0	-4.719121456E-1
3.256613729E0	7.483482957E-1	2.541188478E0	-4.868258536E-1
3.259367421E0	7.819041014E-1	2.632801056E0	-4.932174385E-1
3.260700382E0	8.186557293E-1	2.732403278E0	-5.054680109E-1
3.263458459E0	8.639294505E-1	2.836266518E0	-5.235774517E-1
3.265145267E0	8.964200616E-1	2.936401367E0	-5.534048676E-1
3.267535344E0	9.267801046E-1	3.027481556E0	-5.880259871E-1
3.268863767E0	9.475527406E-1	3.111637592E0	-6.327670813E-1
3.271591344E0	9.614011645E-1	3.188869238E0	-6.711165905E-1
3.273229036E0	9.432916641E-1	3.242665052E0	-7.036072016E-1
3.275652997E0	8.910937309E-1	3.271959782E0	-7.392935157E-1
3.276957613E0	7.877630591E-1	3.246393442E0	-7.675230503E-1
3.279709805E0	6.327670813E-1	3.157976389E0	-7.861651778E-1
3.281449613E0	4.378236830E-1	3.028014183E0	-7.962851524E-1
3.283739497E0	2.306297570E-1	2.874083519E0	-8.016114831E-1
3.285045382E0	4.048004746E-2	2.700445414E0	-8.090683818E-1
3.287794805E0	-1.326254308E-1	2.506567240E0	-8.175904751E-1
3.289548844E0	-2.652508616E-1	2.285524845E0	-8.239820600E-1
3.291869536E0	-3.696467578E-1	2.037850857E0	-8.293083906E-1
3.293217421E0	-4.367584288E-1	1.774730563E0	-8.202536106E-1
3.295924267E0	-4.921521842E-1	1.490837574E0	-7.898935676E-1
3.297509959E0	-5.278385282E-1	1.201085687E0	-7.526093125E-1
3.299968536E0	-5.651227832E-1	9.060074091E-1	-7.089334726E-1
3.301219805E0	-6.002765298E-1	6.157228351E-1	-6.641923785E-1
3.304023267E0	-6.391586661E-1	3.499393761E-1	-6.173207760E-1
3.305846844E0	-7.030745149E-1	1.225054078E-2	-5.523396134E-1
3.308085267E0	-7.227819562E-1	-7.776430249E-2	-5.320996046E-1
3.309414421E0	-7.637946010E-1	-2.194444835E-1	-5.017395616E-1
3.312140767E0	-7.989483476E-1	-2.993393242E-1	-4.719121456E-1
3.313922536E0	-8.500810266E-1	-2.961435318E-1	-4.426173866E-1
3.316217882E0	-8.575378656E-1	-2.684466541E-1	-4.314320982E-1
3.317452844E0	-8.719189763E-1	-1.704423130E-1	-4.202468395E-1
3.320273036E0	-8.644620776E-1	-3.994741663E-2	-4.058657587E-1
3.321983575E0	-8.207862377E-1	2.024002522E-1	-3.888215125E-1
3.324301382E0	-7.989483476E-1	2.892192900E-1	-3.787015080E-1
3.325570536E0	-7.350324988E-1	4.655205607E-1	-3.701793849E-1
3.328356459E0	-6.013417840E-1	7.478156686E-1	-3.451456726E-1
3.330097305E0	-4.969458580E-1	9.464874864E-1	-3.254382908E-1
3.332319805E0	-3.733751774E-1	1.146757245E0	-3.105245829E-1
3.333642421E0	-2.487392575E-1	1.342233181E0	-2.972087860E-1
3.336442420E0	-1.310275346E-1	1.500957608E0	-2.950782478E-1
3.337927421E0	-3.142530099E-2	1.602690339E0	-2.972087860E-1
3.340559113E0	6.125270575E-2	1.657551527E0	-2.897519469E-1
3.341863575E0	1.400822699E-1	1.670334697E0	-2.838929892E-1
3.344649766E0	2.135855258E-1	1.657551527E0	-2.673813701E-1
3.346359344E0	2.828277051E-1	1.616006136E0	-2.466087192E-1
3.348678997E0	3.467435837E-1	1.556351423E0	-2.189118415E-1
3.349920805E0	4.037352204E-1	1.482315540E0	-1.944107562E-1
3.352734228E0	4.575310946E-1	1.391767979E0	-1.603222936E-1
3.354416382E0	5.070658922E-1	1.290567875E0	-1.331580579E-1
3.356794997E0	5.512743592E-1	1.182976127E0	-1.139832959E-1
3.358081652E0	5.917543769E-1	1.078580260E0	-9.587380290E-2
3.360851420E0	6.332997084E-1	9.811085463E-1	-7.616640627E-2
3.362557805E0	6.711165905E-1	8.942894936E-1	-5.912217870E-2
3.364896036E0	7.105314136E-1	8.197209835E-1	-3.834952042E-2
3.366166421E0	7.494135499E-1	7.472830415E-1	-1.917476021E-2
3.368951612E0	7.813714743E-1	6.700513363E-1	-2.130528912E-3
3.370605575E0	8.143946528E-1	5.752428174E-1	6.924218964E-3
3.372986921E0	8.404936790E-1	4.596616030E-1	1.118527725E-2
3.374378113E0	8.687231541E-1	3.318298757E-1	1.810949668E-2
3.377068343E0	8.974853158E-1	2.103897333E-1	2.876213938E-2
3.378671190E0	9.283779860E-1	1.075917110E-1	5.858954415E-2
3.381122882E0	9.438242912E-1	1.864212751E-2	9.214537591E-2
3.382383190E0	9.475527406E-1	-6.125270575E-2	1.203748807E-1
3.385177882E0	9.347695708E-1	-1.331580579E-1	1.400822699E-1
3.386782805E0	8.889631629E-1	-2.205097377E-1	1.587243974E-1
3.389253805E0	8.660600185E-1	-2.418150306E-1	1.635181010E-1
3.390485459E0	8.133293986E-1	-2.743056118E-1	1.720402092E-1
3.393309343E0	7.099987864E-1	-3.067961633E-1	1.773665249E-1
3.394926805E0	6.290386319E-1	-3.185140789E-1	1.773665249E-1
3.397372112E0	5.278385282E-1	-3.020024598E-1	1.693770438E-1
3.398644152E0	3.914846778E-1	-2.237055302E-1	1.470064968E-1
3.401428728E0	2.109223604E-1	-4.367584363E-2	1.107875034E-1
3.403047152E0	3.089267015E-2	1.731054783E-1	6.444849819E-2
3.405458112E0	-1.139832959E-1	3.169161677E-1	3.781688958E-2
3.406698998E0	-2.141181529E-1	3.755057156E-1	2.396845073E-2
3.409513728E0	-2.838929892E-1	3.920173049E-1	2.343581803E-2
3.411292767E0	-3.398193717E-1	3.898867965E-1	2.556634694E-2
3.413510805E0	-3.834952116E-1	3.760383427E-1	3.036003746E-2
3.415012267E0	-4.245078862E-1	3.643204570E-1	3.355583176E-2
3.417646266E0	-4.591289759E-1	3.472762108E-1	3.941478580E-2
3.419047844E0	-4.916195571E-1	3.312972486E-1	4.420847446E-2
3.421756843E0	-5.198490620E-1	3.142530024E-1	4.793690145E-2
3.423074382E0	-5.443501472E-1	2.945456207E-1	4.740426689E-2
3.425847535E0	-5.651227832E-1	2.769687474E-1	4.900216311E-2
3.427475882E0	-5.832322836E-1	2.593919039E-1	4.740426689E-2
3.429908612E0	-5.965480804E-1	2.412824035E-1	4.793690145E-2
3.431327190E0	-6.077333689E-1	2.284992188E-1	5.113269389E-2
3.433963766E0	-6.114618182E-1	2.162486911E-1	5.113269389E-2
3.435629921E0	-6.135923266E-1	2.050634027E-1	4.101268202E-2
3.438040958E0	-6.135923266E-1	2.013349831E-1	3.462109342E-2
3.439233652E0	-6.119944453E-1	1.938781291E-1	2.130528912E-2
3.442096805E0	-6.061354876E-1	1.842907518E-1	7.989482954E-3
3.443717882E0	-5.960154533E-1	1.725728363E-1	-1.597896591E-2
3.446127228E0	-5.922870636E-1	1.704423130E-1	-2.396845073E-2
3.447377267E0	-5.842975378E-1	1.651159972E-1	-4.314320907E-2
3.450181997E0	-5.736449361E-1	1.619201899E-1	-5.699164793E-2
3.451835998E0	-5.560680628E-1	1.571265012E-1	-8.202536404E-2
3.454111498E0	-5.512743592E-1	1.576591432E-1	-9.427590668E-2
3.455519228E0	-5.395564437E-1	1.571265012E-1	-1.070590764E-1
3.458298381E0	-5.198490620E-1	1.608549356E-1	-1.145159304E-1
3.459907113E0	-5.044026971E-1	1.629854590E-1	-1.230380461E-1
3.462354574E0	-4.932174385E-1	1.656486243E-1	-1.320927888E-1
3.463658690E0	-4.841626883E-1	1.683117896E-1	-1.448759735E-1
3.466409997E0	-4.719121456E-1	1.672465205E-1	-1.603222936E-1
3.468039305E0	-4.639226794E-1	1.661812514E-1	-1.752360016E-1
3.470471651E0	-4.575310946E-1	1.603222936E-1	-1.858886480E-1
3.471816998E0	-4.516721368E-1	1.571265012E-1	-2.024002522E-1
3.474526766E0	-4.431500137E-1	1.544633508E-1	-2.103897333E-1
3.476150844E0	-4.362258017E-1	1.549959779E-1	-2.119876295E-1
3.478588651E0	-4.303668439E-1	1.560612470E-1	-2.146507949E-1
3.479850959E0	-4.261057973E-1	1.576591432E-1	-2.221076339E-1
3.482643881E0	-4.223773479E-1	1.581917703E-1	-2.284992188E-1
3.484271613E0	-4.218447208E-1	1.528654546E-1	-2.338255495E-1
3.486687189E0	-4.207794666E-1	1.475391239E-1	-2.412824035E-1
3.487954998E0	-4.218447208E-1	1.432780623E-1	-2.471413612E-1
3.490742074E0	-4.223773479E-1	1.368864775E-1	-2.545982003E-1
3.492415305E0	-4.223773479E-1	1.310275346E-1	-2.593919039E-1
3.494642382E0	-4.271710515E-1	1.241033077E-1	-2.657834888E-1
3.496034344E0	-4.277036786E-1	1.123853996E-1	-2.700445354E-1
3.498857766E0	-4.346278906E-1	1.012001261E-1	-2.753708661E-1
3.500242882E0	-4.388889670E-1	8.841694891E-2	-2.806971967E-1
3.502968150E0	-4.436826408E-1	7.723167539E-2	-2.913498282E-1
3.504244382E0	-4.468784332E-1	6.817692518E-2	-2.929477394E-1
3.507057804E0	-4.516721368E-1	5.858954415E-2	-2.966761589E-1
3.508688690E0	-4.617921412E-1	4.101268202E-2	-3.030677438E-1
3.511133343E0	-4.644553065E-1	3.355583176E-2	-3.078614175E-1
3.512381998E0	-4.740426838E-1	1.917476021E-2	-3.147856593E-1
3.515188843E0	-4.820321798E-1	-2.663161140E-3	-3.238403797E-1
3.516795498E0	-4.932174385E-1	-3.355583176E-2	-3.414172530E-1
3.519250997E0	-4.974785149E-1	-4.580637068E-2	-3.430151641E-1
3.520548728E0	-5.044026971E-1	-6.924218684E-2	-3.520699143E-1
3.523305843E0	-5.193164349E-1	-1.012001261E-1	-3.637878001E-1
3.524930382E0	-5.241101384E-1	-1.230380461E-1	-3.717772961E-1
3.527334381E0	-5.310343504E-1	-1.432780623E-1	-3.781688809E-1
3.528568882E0	-5.379585624E-1	-1.645833552E-1	-3.787015080E-1
3.531390073E0	-5.454154015E-1	-1.816275865E-1	-3.813646734E-1
3.533039151E0	-5.512743592E-1	-2.018676102E-1	-3.808320463E-1
3.535360267E0	-5.592638254E-1	-2.199771106E-1	-3.797667921E-1
3.536695075E0	-5.645901561E-1	-2.359560728E-1	-3.808320463E-1
3.539522266E0	-5.715143681E-1	-2.540655732E-1	-3.808320463E-1
3.541096882E0	-5.821670294E-1	-2.716424465E-1	-3.813646734E-1
3.543548727E0	-5.896238685E-1	-2.892192900E-1	-3.792341352E-1
3.544816267E0	-6.008091569E-1	-3.062635362E-1	-3.818973005E-1
3.547604343E0	-6.093312502E-1	-3.243730366E-1	-3.834952116E-1
3.549227267E0	-6.194512844E-1	-3.430151641E-1	-3.824299276E-1
3.551666150E0	-6.311691999E-1	-3.568635881E-1	-3.866910040E-1
3.552900382E0	-6.407565475E-1	-3.744404614E-1	-3.882888854E-1
3.555720996E0	-6.524744630E-1	-3.888215125E-1	-3.861583769E-1
3.557382421E0	-6.641923785E-1	-4.053331316E-1	-3.914846778E-1
3.559795958E0	-6.791061163E-1	-4.181163013E-1	-3.888215125E-1
3.561027998E0	-6.913566589E-1	-4.303668439E-1	-3.909520507E-1
3.563853958E0	-7.020092607E-1	-4.426173866E-1	-3.882888854E-1
3.565477190E0	-7.185208797E-1	-4.569984376E-1	-3.856257200E-1
3.567882881E0	-7.318366766E-1	-4.724447727E-1	-3.877562582E-1
3.569123998E0	-7.467503548E-1	-4.873584807E-1	-3.861583769E-1
3.571937150E0	-7.611314654E-1	-5.075985193E-1	-3.856257200E-1
3.573623036E0	-7.696535587E-1	-5.267732739E-1	-3.856257200E-1
3.575944228E0	-7.813714743E-1	-5.502091050E-1	-3.866910040E-1
3.577220344E0	-7.936220169E-1	-5.752428174E-1	-3.856257200E-1
3.580054073E0	-8.032094240E-1	-6.018744111E-1	-3.893541694E-1
3.581481998E0	-8.127967715E-1	-6.311691999E-1	-3.914846778E-1
3.584097496E0	-8.181231022E-1	-6.604639888E-1	-3.962783813E-1
3.585302267E0	-8.245146871E-1	-6.929545403E-1	-4.000068009E-1
3.588152304E0	-8.282431364E-1	-7.249124646E-1	-4.074636400E-1
3.589806113E0	-8.303736448E-1	-7.733820081E-1	-4.186489284E-1
3.592181535E0	-8.298410177E-1	-7.925567627E-1	-4.202468395E-1
3.593414267E0	-8.271778226E-1	-8.277105093E-1	-4.271710515E-1
3.596236765E0	-8.218515515E-1	-8.586031795E-1	-4.340952635E-1
3.597855036E0	-8.154599667E-1	-9.092032313E-1	-4.452805519E-1
3.600297881E0	-8.080030680E-1	-9.406285286E-1	-4.484763443E-1
3.601642459E0	-7.984157205E-1	-9.747169614E-1	-4.564658105E-1
3.604352727E0	-7.856325507E-1	-1.005077004E0	-4.628573954E-1
3.606007767E0	-7.723167539E-1	-1.034904361E0	-4.703142643E-1
3.608395265E0	-7.584682703E-1	-1.060470819E0	-4.740426838E-1
3.609623959E0	-7.456851006E-1	-1.089765549E0	-4.799016416E-1
3.612450035E0	-7.297061682E-1	-1.110538244E0	-4.862932265E-1
3.614162613E0	-7.115966678E-1	-1.131843448E0	-4.900216460E-1
3.616398574E0	-6.966829300E-1	-1.150485635E0	-4.953479767E-1
3.617769267E0	-6.791061163E-1	-1.166997194E0	-4.969458580E-1
3.620566304E0	-6.647250056E-1	-1.177117229E0	-4.980111420E-1
3.622060728E0	-6.466155052E-1	-1.184574127E0	-5.012069345E-1
3.624595573E0	-6.306365728E-1	-1.191498280E0	-5.022721887E-1
3.625833267E0	-6.098638773E-1	-1.197357297E0	-5.038700700E-1
3.628650035E0	-5.938849449E-1	-1.198422551E0	-5.054680109E-1
3.630249344E0	-5.757754445E-1	-1.196292043E0	-5.028048158E-1
3.632726842E0	-5.560680628E-1	-1.192030907E0	-5.044026971E-1
3.634009998E0	-5.374259353E-1	-1.181378245E0	-5.070658922E-1
3.636781842E0	-5.182511806E-1	-1.168062449E0	-5.017395616E-1
3.638365613E0	-5.006743073E-1	-1.152616143E0	-5.028048158E-1
3.640810688E0	-4.777711034E-1	-1.135571957E0	-5.033374429E-1
3.642034805E0	-4.585963488E-1	-1.115331888E0	-5.006743073E-1
3.644865073E0	-4.351605177E-1	-1.090830803E0	-5.054680109E-1
3.646484344E0	-4.143878818E-1	-1.063133955E0	-5.033374429E-1
3.648893342E0	-3.904194236E-1	-1.039165497E0	-5.054680109E-1
3.650132882E0	-3.664509654E-1	-1.009870648E0	-5.054680109E-1
3.652946804E0	-3.451456726E-1	-9.789780378E-1	-5.113269091E-1
3.654568574E0	-3.094593287E-1	-9.267801046E-1	-5.161206126E-1
3.656969344E0	-2.988066673E-1	-9.081379771E-1	-5.209143162E-1
3.658269305E0	-2.759034932E-1	-8.692557812E-1	-5.225121975E-1
3.661076881E0	-2.508697808E-1	-8.239820600E-1	-5.305017233E-1
3.662534113E0	-2.279665917E-1	-7.771103978E-1	-5.358279943E-1
3.665196073E0	-2.039981484E-1	-7.259777188E-1	-5.406216979E-1
3.666444036E0	-1.826928556E-1	-6.711165905E-1	-5.443501472E-1
3.669285957E0	-1.491370201E-1	-5.811017752E-1	-5.539374948E-1
3.670947228E0	-1.283643693E-1	-5.150553584E-1	-5.534048676E-1
3.673347688E0	-1.070590764E-1	-4.458131790E-1	-5.544701219E-1
3.674582690E0	-8.415589482E-2	-3.733751774E-1	-5.587311983E-1
3.677402804E0	-6.498113275E-2	-2.924150825E-1	-5.534048676E-1
3.679040036E0	-5.006742850E-2	-2.024002522E-1	-5.555354357E-1
3.681446727E0	-3.408846259E-2	-1.059938148E-1	-5.512743592E-1
3.682675613E0	-1.864212751E-2	-4.793690052E-3	-5.566006899E-1
3.685502304E0	-1.597896684E-3	9.534116834E-2	-5.528722405E-1
3.687213844E0	1.384843793E-2	1.965412945E-1	-5.475459099E-1
3.689531534E0	3.888215125E-2	3.020024598E-1	-5.422195792E-1
3.690749921E0	5.699164793E-2	4.095941782E-1	-5.336974859E-1
3.693586650E0	8.042746782E-2	5.171858668E-1	-5.235774517E-1
3.695262074E0	9.587380290E-2	6.189186573E-1	-5.155879855E-1
3.697617921E0	1.091896072E-1	7.163903713E-1	-5.049353242E-1
3.698892305E0	1.187769845E-1	7.946872711E-1	-4.964132309E-1
3.701705457E0	1.310275346E-1	8.570052385E-1	-4.804342687E-1
3.703339267E0	1.427454352E-1	9.177253246E-1	-4.548679292E-1
3.705742957E0	1.624528319E-1	9.805759192E-1	-4.319647253E-1
3.706967113E0	1.848233789E-1	1.046089649E0	-4.095941782E-1
3.709798111E0	2.082591951E-1	1.110538244E0	-3.861583769E-1
3.711414036E0	2.215750068E-1	1.162736177E0	-3.616572917E-1
3.713858727E0	2.247707993E-1	1.208542466E0	-3.403519988E-1
3.715085959E0	2.263686955E-1	1.242098331E0	-3.073287904E-1
3.717913803E0	2.215750068E-1	1.266066790E0	-2.753708661E-1
3.719525190E0	2.231729031E-1	1.271925807E0	-2.327602804E-1
3.721974919E0	2.215750068E-1	1.262871027E0	-2.008023560E-1
3.723287497E0	2.157160491E-1	1.222923636E0	-1.619201899E-1
3.726033457E0	2.002697140E-1	1.149953008E0	-1.257012039E-1
3.727654459E0	1.619201899E-1	1.013599157E0	-8.149272949E-2
3.730077150E0	1.491370201E-1	9.704559445E-1	-7.297061384E-2
3.731311651E0	1.257012039E-1	8.825715780E-1	-6.444849819E-2
3.734131957E0	1.043959185E-1	8.133293986E-1	-6.338323653E-2
3.735746536E0	8.575379103E-2	7.286409140E-1	-7.936219871E-2
3.738048959E0	8.362326026E-2	7.084008455E-1	-8.468852192E-2
3.739430651E0	8.255799860E-2	6.801713705E-1	-9.906959534E-2
3.742248919E0	8.841694891E-2	6.641923785E-1	-1.113201380E-1
3.743602113E0	1.257012039E-1	6.780408025E-1	-1.251685768E-1
3.746358880E0	1.645833552E-1	7.115966678E-1	-1.278317273E-1
3.747623921E0	2.178465873E-1	7.643272281E-1	-1.272991002E-1
3.750447726E0	2.801645398E-1	8.351673484E-1	-1.230380461E-1
3.752062651E0	3.520699143E-1	9.225190282E-1	-1.182443574E-1
3.754524303E0	4.367584288E-1	1.026382327E0	-1.107875034E-1
3.755775536E0	5.241101384E-1	1.140898228E0	-1.038632840E-1
3.758580342E0	6.199839115E-1	1.268729925E0	-9.214537591E-2
3.760322997E0	7.179882526E-1	1.406149030E0	-8.255799860E-2
3.762642034E0	8.175904751E-1	1.549959779E0	-6.977482140E-2
3.763887113E0	9.150621891E-1	1.693237901E0	-5.645901710E-2
3.766696919E0	1.015729666E0	1.832254887E0	-3.675162420E-2
3.768293382E0	1.107874990E0	1.961151838E0	-1.118527725E-2
3.770725072E0	1.200020432E0	2.076733112E0	1.597896591E-2
3.771959728E0	1.284708977E0	2.185922623E0	4.420847446E-2
3.774779188E0	1.360875368E0	2.284992218E0	7.137271762E-2
3.776418267E0	1.431182742E0	2.372344017E0	1.033306494E-1
3.778737305E0	1.495098710E0	2.450108290E0	1.225054115E-1
3.780270921E0	1.546764016E0	2.516154528E0	1.459412277E-1
3.782910380E0	1.592037678E0	2.571015835E0	1.640507281E-1
3.784452382E0	1.631452560E0	2.617354870E0	1.741707325E-1
3.786948380E0	1.660214663E0	2.650377989E0	1.842907518E-1
3.788290651E0	1.683650494E0	2.673813820E0	1.901497096E-1
3.791003111E0	1.695901036E0	2.688194752E0	1.922802329E-1
3.792602267E0	1.707618952E0	2.695651770E0	1.954760253E-1
3.795065457E0	1.705488443E0	2.695651770E0	1.965412945E-1
3.796302921E0	1.695368409E0	2.690858126E0	1.944107562E-1
3.799119726E0	1.684715748E0	2.682335854E0	1.944107562E-1
3.800822651E0	1.654355645E0	2.670618057E0	1.954760253E-1
3.803194495E0	1.643170476E0	2.665291786E0	1.965412945E-1
3.804400113E0	1.614408255E0	2.650910616E0	1.986718178E-1
3.807248995E0	1.582983017E0	2.631735802E0	2.039981484E-1
3.808920113E0	1.525991321E0	2.603506327E0	2.055960447E-1
3.811278342E0	1.483380795E0	2.580603123E0	2.103897333E-1
3.812591113E0	1.441302776E0	2.558232546E0	2.157160491E-1
3.815333918E0	1.394963861E0	2.527339935E0	2.205097377E-1
3.817006997E0	1.348092198E0	2.498045206E0	2.253034264E-1
3.819314344E0	1.298557401E0	2.461293459E0	2.274339646E-1
3.820636690E0	1.246359468E0	2.420813560E0	2.295644879E-1
3.823450265E0	1.198955178E0	2.377670288E0	2.338255495E-1
3.824836074E0	1.145159245E0	2.331863880E0	2.375539690E-1
3.827564842E0	1.093493938E0	2.279133320E0	2.386192381E-1
3.828831382E0	1.040230751E0	2.228533268E0	2.412824035E-1
3.831654418E0	9.853696227E-1	2.169943810E0	2.482066154E-1
3.833258420E0	9.411611557E-1	2.111354113E0	2.508697808E-1
3.835716303E0	8.889631629E-1	2.052764654E0	2.535329461E-1
3.836977228E0	8.399610519E-1	1.989381313E0	2.583266199E-1
3.839771765E0	7.925567627E-1	1.925998092E0	2.615224123E-1
3.841362151E0	7.451524734E-1	1.859951735E0	2.689792812E-1
3.843834611E0	7.025418878E-1	1.793372750E0	2.727077007E-1
3.845087113E0	6.609966159E-1	1.723065257E0	2.769687474E-1
3.847889841E0	6.215817928E-1	1.651692510E0	2.854908705E-1
3.849526036E0	5.837649107E-1	1.580319762E0	2.886866629E-1
3.851968688E0	5.475459099E-1	1.505218625E0	2.934803665E-1
3.853215997E0	5.166532397E-1	1.432248116E0	2.988066673E-1
3.856025495E0	4.852279723E-1	1.360875368E0	2.966761589E-1
3.857671959E0	4.463458061E-1	1.255414128E0	3.057309091E-1
3.859925536E0	4.346278906E-1	1.226119399E0	3.073287904E-1
3.861315228E0	4.159857631E-1	1.165399313E0	3.078614175E-1
3.864142957E0	3.914846778E-1	1.111070871E0	3.137203753E-1
3.865744228E0	3.680488765E-1	1.040230751E0	3.233077526E-1
3.868187572E0	3.621899188E-1	1.019458055E0	3.265035450E-1
3.869473805E0	3.478088379E-1	9.789780378E-1	3.355582952E-1
3.872243572E0	3.350256681E-1	9.475527406E-1	3.440804183E-1
3.873883344E0	3.179814517E-1	9.092032313E-1	3.557983339E-1
3.876319111E0	3.099919558E-1	8.905611038E-1	3.659183383E-1
3.877553420E0	3.025351167E-1	8.761799932E-1	3.760383427E-1
3.880374111E0	2.924150825E-1	8.660600185E-1	3.866910040E-1
3.881963844E0	2.844256163E-1	8.596684337E-1	3.914846778E-1
3.884436495E0	2.801645398E-1	8.527442217E-1	3.989415467E-1
3.885672113E0	2.668487430E-1	8.516789079E-1	4.048005044E-1
3.888491880E0	2.572613657E-1	8.468852639E-1	4.095941782E-1
3.890099113E0	2.482066154E-1	8.468852639E-1	4.133225977E-1
3.892521764E0	2.370213419E-1	8.447546959E-1	4.117247164E-1
3.893767459E0	2.300971150E-1	8.410263062E-1	4.106594622E-1
3.896577187E0	2.151834220E-1	8.346347213E-1	4.074636400E-1
3.898245690E0	2.061286718E-1	8.271778226E-1	4.053331316E-1
3.900532228E0	1.949433982E-1	8.197209835E-1	3.984089196E-1
3.901906613E0	1.912149638E-1	8.096010089E-1	3.962783813E-1
3.904708841E0	1.821602285E-1	7.952198982E-1	3.893541694E-1
3.906097690E0	1.773665249E-1	7.813714743E-1	3.818973005E-1
3.908828034E0	1.715075821E-1	7.643272281E-1	3.781688809E-1
3.910059497E0	1.725728363E-1	7.451524734E-1	3.701793849E-1
3.912916803E0	1.720402092E-1	7.211840153E-1	3.627225459E-1
3.914488074E0	1.747033745E-1	6.828345060E-1	3.531351686E-1
3.916977187E0	1.747033745E-1	6.679208279E-1	3.488741219E-1
3.918202190E0	1.800296903E-1	6.375607848E-1	3.446130455E-1
3.921031149E0	1.864212751E-1	6.056028605E-1	3.398193717E-1
3.922615228E0	1.954760253E-1	5.587311983E-1	3.302319944E-1
3.925104995E0	1.986718178E-1	5.416869521E-1	3.328951299E-1
3.926325267E0	2.066612989E-1	5.081311464E-1	3.302319944E-1
3.929159803E0	2.162486911E-1	4.713795185E-1	3.296993375E-1
3.930745805E0	2.348908186E-1	4.181163013E-1	3.323625028E-1
3.933188149E0	2.391518652E-1	3.978762627E-1	3.328951299E-1
3.934405959E0	2.508697808E-1	3.600593805E-1	3.344930410E-1
3.937242956E0	2.705771625E-1	2.972087860E-1	3.376888335E-1
3.938882805E0	2.844256163E-1	2.514024079E-1	3.430151641E-1
3.941151651E0	2.993393242E-1	2.066612989E-1	3.440804183E-1
3.942535113E0	3.121224940E-1	1.571265012E-1	3.472762108E-1
3.945358033E0	3.259709179E-1	1.097222418E-1	3.467435837E-1
3.946894997E0	3.408846259E-1	6.391586363E-2	3.515372574E-1
3.949412841E0	3.573962152E-1	1.704423130E-2	3.526025414E-1
3.950647728E0	3.744404614E-1	-2.982740477E-2	3.579288721E-1
3.953467533E0	3.904194236E-1	-7.456851006E-2	3.605920076E-1
3.955268574E0	4.058657587E-1	-1.203748807E-1	3.632551730E-1
3.957529033E0	4.213120937E-1	-1.656486243E-1	3.680488765E-1
3.958782997E0	4.356931746E-1	-2.087918371E-1	3.701793849E-1
3.961583533E0	4.474110603E-1	-2.524676621E-1	3.728425503E-1
3.963281728E0	4.612595141E-1	-2.934803665E-1	3.701793849E-1
3.965644995E0	4.729774296E-1	-3.360909224E-1	3.728425503E-1
3.966922228E0	4.836300611E-1	-3.760383427E-1	3.739078343E-1
3.969699341E0	4.958806038E-1	-4.090615511E-1	3.760383427E-1
3.971317959E0	5.049353242E-1	-4.399542212E-1	3.877562582E-1
3.973742033E0	5.134574771E-1	-4.708468914E-1	3.941478431E-1
3.974967690E0	5.113269091E-1	-5.049353242E-1	3.936152160E-1
3.977796802E0	5.070658922E-1	-5.464806557E-1	3.978762627E-1
3.979438805E0	4.990763962E-1	-5.837649107E-1	3.941478431E-1
3.981767190E0	4.862932265E-1	-6.215817928E-1	3.925499618E-1
3.983178959E0	4.703142643E-1	-6.604639888E-1	3.861583769E-1
3.985913879E0	4.522047639E-1	-6.988134980E-1	3.802994192E-1
3.987276382E0	4.335626364E-1	-7.286409140E-1	3.797667921E-1
3.990041572E0	4.133225977E-1	-7.558051348E-1	3.840278387E-1
3.991437036E0	3.872236311E-1	-7.787083387E-1	3.834952116E-1
3.994131995E0	3.600593805E-1	-7.973504663E-1	3.723099232E-1
3.995907420E0	2.918824553E-1	-7.914915085E-1	3.451456726E-1
3.998208456E0	2.689792812E-1	-7.813714743E-1	3.318298757E-1
3.999434459E0	2.215750068E-1	-7.664577961E-1	3.009372056E-1
4.002263687E0	1.544633508E-1	-7.526093125E-1	2.492718846E-1
4.003919113E0	1.134506613E-1	-7.451524734E-1	2.119876295E-1
4.006323610E0	7.456851006E-2	-7.339671850E-1	1.763012707E-1
4.007564267E0	3.941478580E-2	-7.121292949E-1	1.448759735E-1
4.010377802E0	4.261057824E-3	-6.828345060E-1	1.107875034E-1
4.012013767E0	-2.982740477E-2	-6.412891746E-1	7.776430249E-2
4.014406918E0	-6.444849819E-2	-5.901564956E-1	4.793690145E-2
4.015631151E0	-9.587380290E-2	-5.438175201E-1	1.704423130E-2
4.018461725E0	-1.283643693E-1	-5.028048158E-1	-7.989482954E-3
4.020193459E0	-1.640507281E-1	-4.889563918E-1	-3.142530099E-2
4.022374651E0	-2.151834220E-1	-5.150553584E-1	-4.527373984E-2
4.023757267E0	-2.817624509E-1	-5.805691481E-1	-5.699164793E-2
4.026592648E0	-3.600593805E-1	-6.796387434E-1	-6.391586363E-2
4.028087497E0	-4.420847595E-1	-7.856325507E-1	-6.551376730E-2
4.030672187E0	-5.134574771E-1	-8.831042051E-1	-6.764429063E-2
4.031915228E0	-5.816344023E-1	-9.677927494E-1	-6.551376730E-2
4.034727341E0	-6.439523697E-1	-1.040230751E0	-6.125270575E-2
4.036340766E0	-7.078682184E-1	-1.102548718E0	-4.900216311E-2
4.038788879E0	-7.850999236E-1	-1.155279279E0	-2.237055451E-2
4.040014574E0	-8.799084425E-1	-1.204814076E0	2.183792181E-2
4.042842495E0	-9.960222840E-1	-1.251685739E0	8.628641814E-2
4.044484728E0	-1.122256160E0	-1.294828892E0	1.576591432E-1
