"Time (s)"	"Linear Acceleration x (m/s^2)"	"Linear Acceleration y (m/s^2)"	"Linear Acceleration z (m/s^2)"
2.323935600E-2	-1.119599342E-1	-1.642024517E-1	-4.787139893E-1
3.138370200E-2	-5.508351326E-2	-5.090117455E-2	2.642822266E-2
3.946889400E-2	-1.698670387E-1	1.832509041E-1	3.378629684E-1
4.758566400E-2	-4.374289513E-2	3.142161369E-1	4.440450668E-1
5.566758700E-2	-1.565694809E-3	3.499450684E-1	-2.452850342E-1
6.378320200E-2	-2.409863472E-2	7.181644440E-2	-1.193028927E0
7.189997100E-2	2.960760593E-1	-4.767417908E-1	-1.149954796E0
8.003216300E-2	4.042932987E-1	-7.269184589E-1	-8.645343781E-1
8.814874000E-2	3.974702358E-1	-8.070342541E-1	-8.366165161E-1
9.634885600E-2	-3.453154564E-1	-8.816995621E-1	-4.764404297E-1
1.044805860E-1	-2.012634277E-1	-8.808107376E-1	-2.377099991E-1
1.125976630E-1	5.913457870E-1	-8.259897232E-1	-1.410064697E-1
1.206837020E-1	7.712750435E-1	-5.978457928E-1	-1.498155594E-1
1.288152020E-1	2.037041187E-1	-3.113825321E-1	-1.088047028E-1
1.369125860E-1	-1.266369820E-1	-9.816122055E-2	-2.366447449E-2
1.450298940E-1	1.355838776E-1	6.933021545E-2	2.820978165E-1
1.531694320E-1	2.316777706E-1	3.344233036E-1	6.184206009E-1
1.612545480E-1	-1.602103710E-1	4.899718761E-1	-1.083288193E-1
1.693725090E-1	-2.117555141E-1	3.603131771E-1	-5.163621902E-1
1.775857400E-1	-9.236160517E-1	-4.159305096E-1	-1.390994072E0
1.857046250E-1	-2.487254143E-2	-2.836961746E-1	-8.641777039E-1
1.938211250E-1	8.330435753E-1	-2.331402302E-1	-4.808015823E-1
2.019222010E-1	6.712086201E-1	-7.941365242E-2	1.918344498E-1
2.100386630E-1	7.142674923E-1	-1.735363007E-1	9.836282730E-1
2.181762010E-1	1.000928164E0	-7.809829712E-2	1.236481667E0
2.263072400E-1	7.704463005E-1	6.943607330E-2	8.009128571E-1
2.344225480E-1	4.074778557E-1	1.515424252E-1	2.078933716E-1
2.425056240E-1	2.396142483E-1	2.819681168E-2	-1.483125687E-1
2.506367010E-1	6.188073158E-1	-2.876541615E-1	6.679630280E-2
2.588440470E-1	4.987785816E-1	-3.663682938E-1	2.272062302E-1
2.669615090E-1	4.799818993E-1	-5.537258387E-1	1.966180801E-1
2.750941240E-1	1.059644222E0	-6.902557611E-1	6.433486938E-2
2.831810860E-1	1.040436506E0	-7.522886992E-1	-1.320724487E-1
2.912990090E-1	9.710228443E-1	-7.330929041E-1	-1.386337280E-1
2.993834320E-1	1.027813196E0	-7.125172615E-1	2.615404129E-1
3.075021630E-1	1.228569031E0	-9.016062021E-1	1.222402573E0
3.156273930E-1	7.211976051E-1	-5.416626930E-1	9.914979935E-1
3.237272780E-1	6.575508118E-1	-7.649905682E-1	6.923236847E-1
3.318430860E-1	8.082227707E-1	-8.429301381E-1	-4.502964020E-2
3.400394700E-1	2.888398170E-1	-6.985586286E-1	-1.177978516E-1
3.481713550E-1	-3.894953728E-1	-4.766861796E-1	-3.386974335E-2
3.562560860E-1	7.528305054E-2	-1.361074209E0	6.450014114E-1
3.643404320E-1	5.018582344E-1	-2.013602018E0	5.818414688E-1
3.724705470E-1	3.928065300E-1	-2.563545465E0	1.033859253E-1
3.805750090E-1	4.790868759E-1	-2.741055489E0	8.822441101E-3
3.886912390E-1	6.096844673E-1	-2.664378166E0	1.859431267E-1
3.968235470E-1	7.781257629E-1	-2.916116714E0	3.345680237E-2
4.049098160E-1	8.143234253E-1	-3.033216238E0	1.955957413E-1
4.130248160E-1	2.772889137E-1	-2.379884243E0	-8.221006393E-2
4.212315850E-1	5.105161667E-2	-1.620285273E0	9.274864197E-2
4.293467010E-1	-2.835454941E-1	-8.513944149E-1	2.629871368E-1
4.374648540E-1	-8.485083580E-1	-1.637351066E-1	4.450964928E-1
4.455485080E-1	-1.278591633E0	6.964145899E-1	3.123755455E-1
4.536671620E-1	-2.360488892E0	1.640064716E0	-1.578330994E-3
4.617555080E-1	-2.537619591E0	1.813480377E0	-5.836920738E-1
4.698896620E-1	-1.886885166E0	2.334351301E0	-3.173379898E-1
4.780089310E-1	-1.536030769E0	2.718733549E0	-1.395359039E-1
4.860947770E-1	-8.219547272E-1	2.676886559E0	1.157183647E-1
4.942283930E-1	-1.091455460E0	1.944010854E0	8.436560631E-1
5.024350470E-1	-1.414944649E0	2.132245541E0	1.068930149E0
5.105536620E-1	-1.567367554E0	2.173228025E0	6.528801918E-1
5.186871620E-1	-1.308126926E0	2.308162451E0	-1.492118835E-2
5.267731230E-1	-1.083057880E0	2.217969656E0	-3.749532700E-1
5.348890080E-1	-1.097501755E0	1.993896604E0	-7.652354240E-1
5.430014310E-1	-1.079715252E0	2.078071117E0	-6.399335861E-1
5.511174690E-1	-1.148213387E0	2.299425125E0	-1.033291817E-1
5.592015850E-1	-1.466941833E-1	2.152607679E0	2.026486397E-1
5.673015850E-1	-3.743963242E-1	1.645997047E0	2.941951752E-1
5.754199310E-1	-7.088809013E-1	1.254702806E0	1.942806244E-1
5.836130850E-1	-8.016090393E-1	1.018114090E0	-2.707705498E-1
5.917464690E-1	-3.109121323E-1	8.484352827E-1	-5.578904152E-1
5.998658540E-1	-4.556016922E-1	7.280603051E-1	-1.905994415E-1
6.079531610E-1	-7.650156021E-1	5.301812291E-1	2.389440536E-1
6.160868150E-1	-1.027173519E0	-6.164571643E-2	2.371487617E-1
6.241692770E-1	-1.389101028E0	-6.290566921E-2	4.202694893E-1
6.322870460E-1	-7.129116058E-1	-1.375085115E0	3.959708214E-1
6.404603920E-1	-5.051612854E-3	-5.937029719E-1	-2.234363556E-2
6.485473150E-1	-1.352125645E0	-3.965457976E-1	4.939565659E-1
6.566673920E-1	-1.789969921E0	-8.410460353E-1	5.168995857E-1
6.647699300E-1	-2.228952408E0	-1.607542753E0	1.865160465E-1
6.728885460E-1	3.493871689E-1	-1.828907371E0	5.964994431E-3
6.810054690E-1	4.165029526E-1	-1.833175778E0	5.224480629E-1
6.891027000E-1	5.747785568E-1	-1.144255996E0	-3.911836147E-1
6.972190460E-1	1.319787979E0	-6.442462802E-1	-1.398503542E0
7.053294300E-1	2.702623367E0	-5.249038935E-1	-2.691470146E0
7.134616230E-1	2.264513016E0	-1.672824144E0	-4.168940544E0
7.215802380E-1	4.514946938E0	-6.263701320E-1	-4.992900848E0
7.296663530E-1	5.183735847E0	3.910752535E-1	-4.792086124E0
7.377991610E-1	3.081497192E0	-1.482613444E0	-1.369992495E0
7.460320840E-1	2.610745430E0	-3.329477310E0	2.966942549E0
7.541494690E-1	2.775588989E0	-4.124654770E0	4.609539509E0
7.622835070E-1	2.791215897E0	-4.828385830E0	2.958402634E0
7.703699300E-1	3.516941071E0	-5.172420979E0	3.564019203E-1
7.784907760E-1	2.516841888E0	-4.579206467E0	-3.844971657E-1
7.865770840E-1	2.719630241E0	-3.567496538E0	9.255647659E-2
7.946933530E-1	2.708667755E0	-2.640891314E0	6.810927391E-1
8.028170070E-1	2.781427383E0	-1.945289373E0	2.762322426E-1
8.109186610E-1	2.167308807E0	-3.272400379E0	-3.997902870E-1
8.190381220E-1	5.130881310E0	-1.070512772E0	7.578091621E-1
8.272590450E-1	2.744100571E0	-9.757702351E-1	1.734877110E0
8.353906990E-1	4.075348854E0	-8.878827095E-1	1.543764114E0
8.435085840E-1	3.433034897E0	-1.201575160E0	8.234634399E-1
8.515952370E-1	3.154949188E0	-2.075910568E-2	2.058758736E-1
8.597276610E-1	2.029665947E0	1.559039593E0	8.208084106E-2
8.678665070E-1	1.158091068E0	2.224842787E0	-4.369945526E-1
8.759849680E-1	2.310680866E0	4.857749939E-1	-1.416721582E0
8.841178140E-1	2.210725307E0	-1.951352119E0	-1.379161596E0
8.922029300E-1	1.802282333E0	-3.209339857E0	-1.010031223E0
9.003204300E-1	2.158768654E0	-5.285371304E0	-5.851130486E-1
9.085286220E-1	2.187974930E0	-5.539268494E0	-7.071371078E-1
9.166483910E-1	3.964161873E0	-5.284725189E0	7.219028473E-1
9.247682370E-1	-2.168779373E-1	-3.133581638E0	2.145524025E-1
9.328465060E-1	-3.329623461E0	-3.316385031E0	-4.258537292E-1
9.409631600E-1	-6.817690849E0	-2.335274458E0	-3.215219975E0
9.490726220E-1	-1.217626190E1	-9.313220978E-1	-8.035268784E0
9.572045830E-1	-1.509183502E1	4.217028141E0	-1.404886723E1
9.653303520E-1	-1.404148674E1	5.828391552E0	-1.232348442E1
9.734163910E-1	-1.051642418E1	7.384529114E0	-7.518981934E0
9.815502750E-1	-5.422580719E0	7.997023106E0	-2.130477667E0
9.897756600E-1	-2.139233112E0	5.965000153E0	1.213025570E0
9.978925830E-1	-2.358416796E0	3.730242729E0	8.998060226E-1
1.006027083E0	-2.150505781E0	1.747971058E0	-2.862486839E-1
1.014113506E0	7.994890213E-2	-5.419220924E-1	-2.643034458E0
1.022232275E0	8.085584641E-2	-1.574356079E0	-2.253527164E0
1.030324391E0	-7.135486603E-2	-1.700142384E0	-2.305496216E0
1.038443429E0	-3.289356232E-1	-2.292925835E0	-1.643418312E0
1.046559544E0	4.144196510E-1	-2.413235664E0	-8.809344769E-1
1.054658621E0	7.622241974E-1	-2.806921005E0	-6.736590862E-1
1.062777467E0	1.127001762E0	-3.244483948E0	-3.029243946E-1
1.079104237E0	2.161196709E0	-3.321058273E0	3.336524963E-2
1.087223160E0	2.726705551E0	-1.731247902E0	6.593811512E-1
1.095309044E0	1.813222885E0	-3.118791580E-1	1.965521574E0
1.103442506E0	2.767301559E0	-6.637015343E-1	3.083745480E0
1.111578352E0	3.310813904E0	-2.951558590E0	9.543702602E-1
1.119698429E0	3.847881317E0	-3.454951286E0	1.428438663E0
1.127831852E0	5.200654030E0	-4.203347683E0	-1.108704329E0
1.135918390E0	1.768976212E0	-2.696307659E0	-2.404073954E0
1.144034659E0	1.089725018E0	-3.018990040E0	-1.239412308E0
1.152236659E0	9.632568359E-1	-3.321824074E0	1.505717516E0
1.160355044E0	6.364853382E-1	-3.591345787E0	2.939485788E0
1.168472698E0	4.003000259E-2	-4.114743710E0	3.304925919E0
1.184692313E0	-2.396020889E0	-4.652752876E0	1.036105514E0
1.192819967E0	-4.447777748E0	-3.032520294E0	-1.313466907E0
1.200952890E0	-6.910461426E0	-1.738434315E0	-3.591388226E0
1.209070736E0	-8.448377609E0	1.651954651E-2	-5.922089100E0
1.217157121E0	-9.175179482E0	2.539446831E0	-8.612763405E0
1.225290928E0	-9.626407623E0	5.285775185E0	-1.096089745E1
1.233521159E0	-9.603582382E0	7.763297081E0	-1.251661587E1
1.249775851E0	-7.728975296E0	1.260933590E1	-3.743190050E0
1.255072576E0	-5.767971039E0	1.264435005E1	-1.404952645E0
1.257862505E0	-4.913241386E0	1.239295769E1	-2.581300735E-1
1.265981659E0	-1.570814610E0	1.051742458E1	3.482591152E0
1.274067236E0	6.607011557E-1	7.996965408E0	5.095490456E0
1.282186159E0	1.692791820E0	5.391625404E0	4.802772522E0
1.290311467E0	1.542697430E0	2.990381241E0	3.329610586E0
1.298414082E0	1.131204605E0	1.148024559E0	2.310188293E0
1.306532428E0	1.086236358E0	-3.687677383E-1	1.696274519E0
1.314753890E0	1.195357561E0	-1.578936100E0	1.298404932E-1
1.322888274E0	1.339636922E0	-2.308354855E0	-1.513500452E0
1.331006928E0	1.308121443E0	-2.628881931E0	-2.849998474E0
1.339094082E0	1.219058275E0	-2.738332272E0	-1.733976841E0
1.347226659E0	9.634441137E-1	-2.016644478E0	-2.147716761E0
1.355358774E0	3.336609602E-1	-1.165549278E0	-4.493854523E0
1.363478043E0	-2.830621004E-1	-9.734783173E-1	-4.059977531E0
1.371610889E0	-8.237782717E-1	-7.930202484E-1	-1.852946997E0
1.387813966E0	-1.017364502E0	-3.706235886E-1	2.415338755E-1
1.396019466E0	-9.139301181E-1	-3.307638168E-1	-4.781978130E-1
1.404137274E0	-9.156259298E-1	-5.197649002E-1	-8.776390553E-1
1.412258812E0	-6.989766359E-1	-9.545736313E-1	-1.410060883E0
1.420359928E0	-3.271908760E-1	-1.317729950E0	-1.411925435E0
1.428477466E0	3.200459480E-1	-8.926677704E-1	-6.120618582E-1
1.436583504E0	1.017445326E0	-6.390447617E-1	-1.620957851E-1
1.444716389E0	1.777337313E0	-3.248052597E-1	-2.288484573E-1
1.452835351E0	2.149169922E0	8.829975128E-2	-4.816758633E-1
1.469022389E0	1.270176649E0	9.684038162E-1	-8.509097099E-1
1.477226274E0	7.240614891E-1	1.336316109E0	-6.562888622E-1
1.485345312E0	-6.463122368E-2	1.461252213E0	-8.351891637E-1
1.493478620E0	-7.198674679E-1	1.419497490E0	-1.015686870E0
1.501563350E0	-1.522660255E-1	1.736624718E0	-1.056913257E0
1.509681812E0	-7.353881598E-1	1.737230301E0	-8.813356757E-1
1.517778966E0	-1.315196514E0	1.325130463E0	-1.315409541E0
1.525897350E0	-1.420738578E0	2.218780518E-1	-1.569835186E0
1.542116543E0	-9.920989275E-1	-8.379306793E-1	-1.771769762E0
1.550233966E0	-9.834377766E-1	-1.037468910E0	-1.782323599E0
1.558425235E0	-1.004570127E0	-1.104497910E0	-1.217040300E0
1.566556889E0	-1.100362539E0	-7.832899094E-1	-3.540679812E-1
1.574640773E0	-6.395061016E-1	-4.081707001E-1	4.489169121E-1
1.582724196E0	-3.204648495E-1	-1.795845032E-1	1.062178612E0
1.590854081E0	-3.686878681E-1	-2.965278625E-1	9.011738300E-1
1.598961081E0	-4.678537846E-1	-3.950309753E-1	3.120267391E-1
1.607077312E0	-3.242297173E-1	-4.272670746E-1	-2.568808794E-1
1.615209235E0	-1.327381134E-1	-3.863630295E-1	-6.050456166E-1
1.623294658E0	-2.400374413E-2	-3.107271194E-1	-8.175356388E-1
1.631412773E0	6.962633133E-2	-2.062759399E-1	-8.901991248E-1
1.639619696E0	2.807369232E-1	-3.141136169E-1	-7.984730005E-1
1.647735658E0	-8.829188347E-2	-2.117500305E-1	-8.502219319E-1
1.655854273E0	7.001495361E-2	-1.242103577E-1	-6.055610776E-1
1.663955619E0	-2.320072651E-1	-1.161813736E-1	-3.178118467E-1
1.672072581E0	-2.381658554E-1	-2.657136917E-1	-2.227663994E-3
1.680174311E0	-2.654647827E-2	-3.162679672E-1	3.177800179E-1
1.688306080E0	2.506036758E-1	-2.144889832E-1	6.502258778E-1
1.696423465E0	5.272746086E-1	-5.662059784E-2	9.053512812E-1
1.704508119E0	6.651878357E-1	4.924201965E-2	9.754136801E-1
1.712640350E0	5.861186981E-1	7.715225220E-2	8.035916090E-1
1.720843965E0	5.514559746E-1	1.142997742E-1	4.112436771E-1
1.728961965E0	7.038574219E-1	1.897020340E-1	3.069794178E-2
1.737095580E0	1.514070988E0	5.021924973E-1	-5.818980932E-1
1.745182003E0	2.651820183E-1	9.549617767E-1	4.396908283E-1
1.753298580E0	6.416013241E-1	1.092389107E0	2.316597700E-1
1.761390772E0	4.376006126E-2	1.067703247E0	6.731313467E-1
1.769508734E0	-2.700111866E-1	1.074365616E0	9.436177015E-1
1.777632311E0	-4.884457588E-1	6.831979752E-1	8.934013844E-1
1.785733272E0	-1.251509190E-1	4.683523178E-1	3.569651842E-1
1.793851888E0	3.047401905E-1	4.312534332E-1	1.387436390E-1
1.801975118E0	7.062494755E-1	-2.126255035E-1	-2.834224701E-2
1.810105849E0	1.190310478E0	-6.428260803E-1	-5.370838642E-1
1.818220080E0	1.314758778E0	-8.676385880E-1	-3.399855494E-1
1.826305541E0	7.312240601E-1	-1.095169067E0	-1.836557388E-1
1.834438041E0	2.523753643E-1	-8.885011673E-1	-1.094396710E-1
1.842534541E0	8.071310520E-1	-2.053241730E-1	-1.953060031E-1
1.850652234E0	1.017113686E0	2.480297089E-1	-2.109825015E-1
1.866869387E0	8.282012939E-1	4.532108307E-1	-1.185216308E-1
1.874986503E0	4.926984310E-1	3.780117035E-1	-1.742098331E-1
1.883085810E0	7.839584351E-2	2.427148819E-1	-2.991855145E-1
1.891204003E0	8.243322372E-3	1.028490067E-1	-2.442055345E-1
1.899320772E0	2.133798599E-2	-5.096912384E-2	-1.410663128E-2
1.907418580E0	1.449453831E-1	-2.431421280E-1	1.402406693E-1
1.915533503E0	4.752840996E-1	-4.109249115E-1	2.759704590E-1
1.923631118E0	7.426545620E-1	-3.566122055E-1	2.675477266E-1
1.931763464E0	1.920003891E-1	-5.753669739E-1	-9.703040123E-2
1.939884233E0	-7.948279381E-2	-6.103353500E-1	-3.447104692E-1
1.947968964E0	-1.037335396E-1	-6.061201096E-1	-4.195877910E-1
1.956099156E0	-3.470788002E-1	-5.791921616E-1	-3.160700202E-1
1.964307618E0	-1.800110340E-1	-6.711473465E-1	-2.003254294E-1
1.972422387E0	9.250640869E-5	-7.685737610E-1	-2.086728215E-1
1.980552656E0	3.334279060E-1	-7.456398010E-1	-2.476976514E-1
1.988637695E0	9.597120285E-1	-5.250587463E-1	-2.317547202E-1
1.996752964E0	1.625052452E0	-2.848711014E-1	-2.748158574E-1
2.004862887E0	1.694247961E0	-5.647754669E-2	9.990346432E-2
2.012977618E0	1.583933592E0	3.487491608E-2	3.795713186E-1
2.021094195E0	1.659124613E0	1.099981308E0	5.714781284E-1
2.029193848E0	4.234571457E-1	1.763952255E0	6.755075455E-1
2.037311271E0	-1.956803679E0	9.311294556E-1	3.682398796E-1
2.045430079E0	-1.337587357E0	3.305759430E-1	2.055659294E-1
2.053560694E0	-2.292087078E-1	-1.859216690E-1	-1.447995901E-1
2.061675771E0	8.514642715E-2	-3.278131485E-1	-5.407372713E-1
2.069791964E0	-4.716203213E-1	-9.510803223E-2	-6.236984134E-1
2.077924040E0	-5.997292995E-1	-1.869297028E-2	-4.877560735E-1
2.086021233E0	-1.131706238E0	2.424840927E-1	-6.840159893E-1
2.094135233E0	-1.431896448E0	1.435480118E-1	-6.873574257E-1
2.102268925E0	-1.088754416E0	1.871490479E-1	-3.770160079E-1
2.110353079E0	-7.751204967E-1	1.466121674E-1	-8.658254147E-2
2.118468540E0	-6.413345337E-1	2.490797043E-1	1.729493141E-1
2.126565925E0	-9.155502319E-1	1.569795609E-1	1.378245354E-1
2.134651848E0	-1.194819689E0	2.486324310E-2	4.882669449E-2
2.142770233E0	-8.797612190E-1	3.120899200E-2	6.944012642E-2
2.150871271E0	-2.729334831E-1	8.560466766E-2	1.495265961E-1
2.158988348E0	-1.768677235E-1	5.976390839E-2	5.531358719E-2
2.167081579E0	-2.355279922E-1	1.159629822E-1	-1.301403046E-1
2.175212579E0	-2.807111740E-1	1.269636154E-1	-3.916064501E-1
2.183329771E0	-3.864719868E-1	7.840728760E-2	-5.284737349E-1
2.191416463E0	-1.764230728E-1	2.381801605E-2	-4.248821139E-1
2.199548809E0	-5.565602779E-1	-2.121353149E-2	-1.874185801E-1
2.207759078E0	-6.377227306E-1	1.187114716E-1	1.280276775E-1
2.224007001E0	-1.958312988E-1	6.641387939E-3	2.342159748E-1
2.232092963E0	-1.734838486E-1	2.225446701E-1	8.956921101E-2
2.240211694E0	-4.922761917E-1	2.713022232E-1	-1.357315779E-1
2.248318501E0	6.423583031E-1	-8.854818344E-1	7.549895048E-1
2.256437271E0	9.854922295E-1	-1.120819092E0	4.034733772E-1
2.264557809E0	7.601928711E-1	-8.285694122E-1	1.419066191E-1
2.272656847E0	4.971032143E-1	-2.481241226E-1	-4.403793812E-2
2.280773463E0	8.514208794E-1	-8.660411835E-2	1.637053490E-1
2.288973578E0	1.160437346E0	2.880163193E-1	3.297271729E-1
2.297103463E0	1.073345900E0	4.776210785E-1	2.984238863E-1
2.305219809E0	5.791726112E-1	3.394927979E-1	1.957825422E-1
2.313305232E0	1.072332859E-1	1.883506775E-1	-3.504037857E-2
2.321436270E0	-5.849838257E-3	2.803039551E-2	-1.399470568E-1
2.329544501E0	1.969845295E-1	-1.168880463E-1	-2.430379391E-2
2.337662578E0	4.780483246E-1	-2.434644699E-1	1.246912479E-1
2.345796770E0	3.500287533E-1	-2.190389633E-1	1.946847439E-1
2.353882270E0	-8.286643028E-2	-2.132501602E-1	1.413702965E-3
2.362000693E0	-1.940636635E-1	-1.247739792E-1	-1.262034178E-1
2.370217616E0	4.560637474E-2	-1.839847565E-1	4.286050797E-3
2.378336039E0	5.470492840E-1	-1.921510696E-1	1.599555016E-1
2.386455578E0	7.460494041E-1	-8.135318756E-2	2.521487474E-1
2.394555616E0	6.468749046E-1	5.567646027E-2	2.171930075E-1
2.402673462E0	4.324386120E-1	1.873674393E-1	1.850848198E-1
2.410770039E0	5.685729980E-1	2.288761139E-1	1.458930969E-1
2.418901770E0	6.666443348E-1	2.043256760E-1	7.659721375E-2
2.427020924E0	5.423307419E-1	1.136331558E-1	-5.095982552E-2
2.435105270E0	3.259730339E-1	-2.203941345E-3	-1.918178797E-1
2.443235654E0	1.952025890E-1	-2.001180649E-1	-3.011229634E-1
2.451445270E0	3.910951614E-1	-3.593635559E-1	-3.581612110E-1
2.459561077E0	4.971134663E-1	-5.372037888E-1	-2.326015234E-1
2.467691808E0	2.646126747E-1	-4.026994705E-1	-2.146724463E-1
2.475775154E0	8.159089088E-2	-3.287649155E-1	-1.925911903E-1
2.483889693E0	-4.404544830E-3	-2.467937469E-1	-1.088467240E-1
2.491987347E0	-1.021630764E-1	-2.498636246E-1	2.064728737E-2
2.500103423E0	-1.436769962E-1	2.384595871E-1	-9.699112177E-2
2.508185923E0	-4.672534466E-1	6.922149658E-2	-3.440924287E-1
2.516284500E0	-6.405971050E-1	1.501178741E-2	-3.566871285E-1
2.524400346E0	-3.093402386E-1	2.778778076E-1	-2.232549191E-1
2.540730462E0	-9.819386005E-1	7.658386230E-1	-4.439626038E-1
2.548845654E0	-1.185549021E0	6.476249695E-1	-3.327655792E-1
2.556929500E0	-1.271648645E0	3.827114105E-1	-2.115170360E-1
2.565061039E0	-1.159842491E0	9.922695160E-2	-2.143928409E-1
2.573161885E0	-6.578226089E-1	-9.808254242E-2	-3.202970028E-1
2.581277615E0	-1.674985886E-1	-1.585035324E-1	-4.496884644E-1
2.589412539E0	1.285343170E-1	-1.514921188E-1	-4.522265494E-1
2.597494846E0	4.240491390E-1	2.445411682E-2	-2.475201488E-1
2.605609615E0	7.240681648E-1	4.306974411E-1	-4.805868864E-2
2.613708346E0	6.047191620E-1	5.877981186E-1	-8.651047945E-2
2.621826692E0	4.233646393E-1	4.953346252E-1	-2.381814718E-1
2.629944346E0	2.179837227E-2	1.153125763E-1	-1.824477911E-1
2.638044538E0	-5.357975960E-1	-3.185567856E-1	-7.557582855E-2
2.646162654E0	-1.254534245E0	-5.929126740E-1	-3.508669138E-2
2.654252884E0	-1.349911928E0	-7.128334045E-1	-4.160135984E-2
2.662387192E0	-9.313874245E-1	-6.392765045E-1	-6.599634886E-2
2.670503615E0	-1.852595806E-1	-4.401779175E-1	-4.992753267E-2
2.678587538E0	4.145028591E-1	-1.764822006E-1	4.816985130E-2
2.686718423E0	2.175247669E-1	4.182147980E-2	9.281527996E-2
2.694926192E0	-4.440426826E-2	2.172679901E-1	2.610579729E-1
2.703043461E0	1.968269348E-1	3.813028336E-1	4.610381126E-1
2.711175384E0	3.117697239E-1	6.781234741E-1	5.705920458E-1
2.719260461E0	5.538694859E-1	1.201956749E0	9.979987144E-2
2.727378346E0	-5.499553680E-2	9.590368271E-1	-9.273844957E-2
2.735477500E0	-9.180421829E-1	2.746877670E-1	-1.296663880E-1
2.743596307E0	-1.166300058E0	-4.328985214E-1	-6.463742256E-2
2.751719076E0	-6.451666355E-1	-7.996454239E-1	-7.139772177E-2
2.759819115E0	-5.906271935E-2	-6.879873276E-1	-2.310638428E-1
2.767935807E0	-2.683711052E-2	-6.110897064E-1	-2.395217419E-1
2.776137653E0	6.728053093E-2	-5.568466187E-1	1.629743576E-1
2.784271538E0	5.361647606E-1	-3.036098480E-1	4.581795931E-1
2.792388115E0	9.154376984E-1	-1.757106781E-1	4.390444160E-1
2.800474230E0	8.873691559E-1	2.775192261E-2	1.601039171E-1
2.816685768E0	-2.257411480E-1	-4.882173538E-1	5.242073536E-2
2.824800768E0	-2.767460346E-1	-7.286577225E-1	1.248887777E-1
2.832931884E0	-1.307420731E-1	-7.487869263E-1	1.358901262E-1
2.841015230E0	-3.802855015E-1	-5.945234299E-1	2.080384493E-1
2.849131268E0	-2.033886909E-1	-4.430971146E-1	3.775867224E-1
2.857345422E0	2.893171310E-1	-5.505313873E-1	3.269160986E-1
2.865461537E0	6.399059296E-1	-7.699337006E-1	-1.944923401E-2
2.873578114E0	7.671823502E-1	-5.322113037E-1	-2.109224796E-1
2.881676384E0	1.836435795E-1	-3.255672455E-1	-3.513999879E-1
2.889793460E0	9.670605659E-1	7.312393188E-2	-4.501098394E-1
2.897887614E0	9.215755463E-1	5.438203812E-1	-2.555406094E-1
2.906020422E0	4.615933895E-1	7.062187195E-1	-5.659210682E-2
2.914142576E0	2.808268070E-1	6.240940094E-1	6.404358149E-2
2.922228383E0	-1.187763214E-1	6.891164780E-1	3.981547952E-1
2.930360653E0	-3.439354897E-1	3.986082077E-1	8.498448133E-2
2.938572691E0	-5.664591789E-1	2.785472870E-1	-3.856712580E-2
2.946690999E0	-6.408629417E-1	1.479501724E-1	-1.474395990E-1
2.954822999E0	-5.417180061E-1	-9.826660156E-2	-2.410423458E-1
2.962908691E0	-2.304687500E-1	-1.949558258E-1	-2.780089676E-1
2.970994383E0	2.398889065E-1	-5.627651215E-1	-2.282406688E-1
2.979098306E0	8.312129974E-1	5.660629272E-2	9.489679337E-2
2.987214614E0	5.051963329E-1	2.418155670E-1	1.328168511E-1
2.995330922E0	3.474154472E-1	5.727872849E-1	1.550149918E-2
3.003428729E0	1.321848154E0	1.436862946E0	-2.203663588E-1
3.011546345E0	2.202464104E0	3.169887543E0	-1.064858675E0
3.019765460E0	1.045376062E0	4.480650902E0	-1.438502669E0
3.027897421E0	-1.595672131E0	4.574884415E0	-1.141229868E0
3.036014768E0	-3.568984985E0	2.793995857E0	-5.036224127E-1
3.044101460E0	-2.006006718E0	8.122358322E-1	-6.461739540E-4
3.052233498E0	-1.653556824E-1	-5.317621231E-1	2.333654165E-1
3.060368537E0	1.212354422E0	-6.582059860E-1	2.550998330E-1
3.068486229E0	-2.133486271E-1	-1.031085014E0	5.360659957E-1
3.076617652E0	-1.801761627E0	-1.347249985E0	5.788138509E-1
3.084701960E0	-1.830203772E0	-1.678619385E0	5.004020929E-1
3.092817921E0	-6.691586971E-1	-1.869860649E0	3.088493943E-1
3.101018383E0	3.851208687E-1	-2.088261604E0	1.699805260E-3
3.109136537E0	4.326257706E-1	-2.379279137E0	-3.344400525E-1
3.117254767E0	4.053039551E-1	-2.301602364E0	-6.447023749E-1
3.133467421E0	3.960936069E-1	-1.691137791E0	-6.651393175E-1
3.141573152E0	5.059335232E-1	-1.216515541E0	-4.086642861E-1
3.149705075E0	2.978355885E-1	-9.553422928E-1	-9.427642822E-2
3.157823036E0	1.364185810E-1	-8.187379837E-1	1.348701715E-1
3.165907498E0	1.559019089E-3	-7.610569000E-1	2.710049748E-1
3.174039882E0	-1.594748497E-1	-7.709617615E-1	2.794219851E-1
3.182249421E0	-1.253516674E-1	-7.288904190E-1	1.847956777E-1
3.190366305E0	-4.479646683E-2	-5.643110275E-1	7.830649614E-2
3.198498652E0	1.447875500E-1	-1.845855713E-1	-3.029936552E-2
3.206583421E0	4.628548622E-1	2.800893784E-1	-8.431971073E-2
3.214700728E0	4.430687428E-1	7.663536072E-1	-7.396644354E-2
3.222798267E0	5.876765251E-1	1.274240494E0	-1.872728467E-1
3.230916190E0	8.764176369E-1	1.796021461E0	-4.284916222E-1
3.239036844E0	1.116201878E0	2.110487938E0	-5.370467901E-1
3.247137228E0	1.794109583E0	2.613579750E0	-5.035418272E-2
3.255256074E0	8.838038445E-1	1.739726067E0	-7.179224491E-2
3.263458459E0	2.166368961E-1	1.152077675E0	1.980627179E-1
3.271591344E0	1.546304464E0	8.127384186E-1	-2.031868100E-1
3.279709805E0	1.011664629E0	9.776525497E-1	-3.960915565E0
3.304023267E0	-2.132359266E0	3.458175659E-1	7.148046494E-1
3.312140767E0	-1.258138537E0	9.239101410E-2	-5.824387074E-2
3.320273036E0	-8.030200005E-2	-3.409309387E-1	-5.149281621E-1
3.328356459E0	8.266520500E-2	-9.977445602E-1	1.367978454E0
3.336442420E0	2.297096252E-1	-2.008184910E0	3.147890806E0
3.344649766E0	-1.377992630E-1	-7.336473465E-1	2.460807085E0
3.352734228E0	-1.115635395E0	-6.078042984E-1	2.046924114E0
3.360851420E0	-9.928263426E-1	-5.975522995E-1	1.519769549E0
3.368951612E0	-9.781526327E-1	-9.401683807E-1	1.186667085E0
3.377068343E0	-6.450099945E-1	-2.895927429E-1	1.124339819E0
3.385177882E0	-1.429670215E0	-3.664455414E-1	2.858740091E-1
3.393309343E0	-7.588485479E-1	-2.597103119E-1	-1.952901959E0
3.401428728E0	-2.576079369E-1	4.061069489E-1	-4.187997818E0
3.417646266E0	-1.413365126E0	1.505577087E0	-1.707386374E0
3.425847535E0	-1.509268641E0	1.856229782E0	-1.383210421E0
3.433963766E0	-1.601331711E0	1.956828117E0	-9.143842459E-1
3.442096805E0	-1.317178965E0	2.026329041E0	-5.569513440E-1
3.450181997E0	-1.289873362E0	1.801336288E0	-2.573831081E-1
3.458298381E0	-1.408947587E0	1.539139748E0	-1.072018147E-1
3.466409997E0	-1.616914630E0	1.269463539E0	1.850223541E-2
3.474526766E0	-1.518471241E0	1.027293205E0	4.159092903E-3
3.482643881E0	-1.748926640E0	8.216609955E-1	9.286737442E-2
3.490742074E0	-1.552170515E0	6.745948792E-1	1.104806662E-1
3.498857766E0	-1.421542764E0	5.575485229E-1	1.188969612E-1
3.507057804E0	-1.223089695E0	2.283802032E-1	1.964942217E-1
3.515188843E0	-9.680147171E-1	1.407394409E-1	1.633920670E-1
3.523305843E0	-6.748667955E-1	-1.817121506E-1	2.269979715E-1
3.531390073E0	-5.871434212E-1	-4.559650421E-1	3.009949923E-1
3.539522266E0	-4.843652248E-1	-7.002649307E-1	3.687336445E-1
3.547604343E0	-2.134040594E-1	-8.028211594E-1	3.763934374E-1
3.555720996E0	-3.066766262E-2	-9.338445663E-1	4.173048735E-1
3.563853958E0	7.989978790E-2	-1.084219933E0	5.366384983E-1
3.571937150E0	1.641421318E-1	-1.089773178E0	6.697477102E-1
3.580054073E0	2.933568954E-1	-1.107436180E0	8.817673922E-1
3.588152304E0	4.564254284E-1	-1.067477226E0	1.108434916E0
3.596236765E0	6.043072939E-1	-1.036627769E0	1.361790538E0
3.604352727E0	6.828423738E-1	-1.046874046E0	1.554773092E0
3.612450035E0	8.894195557E-1	-1.165850639E0	1.700976610E0
3.620566304E0	1.074012637E0	-1.285877228E0	1.670637846E0
3.628650035E0	1.340868354E0	-1.378656387E0	1.569342852E0
3.636781842E0	1.624940395E0	-1.369993210E0	1.332632065E0
3.644865073E0	2.034782171E0	-1.336754799E0	1.043941498E0
3.652946804E0	2.385165691E0	-1.214227676E0	6.938829422E-1
3.661076881E0	2.783335447E0	-1.057218552E0	2.979810238E-1
3.669285957E0	2.990865231E0	-9.089059830E-1	-1.158106327E-1
3.677402804E0	3.061161518E0	-7.824983597E-1	-5.207996368E-1
3.685502304E0	3.067085266E0	-8.228902817E-1	-1.182808518E0
3.693586650E0	2.934495687E0	-6.149311066E-1	-1.192819238E0
3.701705457E0	2.721715689E0	-5.763235092E-1	-1.535343170E0
3.709798111E0	2.128369331E0	-3.824815750E-1	-1.035746813E0
3.717913803E0	1.550724983E0	-3.366088867E-2	-1.638554454E0
3.726033457E0	7.650406361E-1	-1.946887970E-1	-1.226260662E0
3.734131957E0	1.322905064E0	-5.893678665E-1	-1.439923525E0
3.742248919E0	2.075712204E0	-1.179556847E0	-6.840350628E-1
3.750447726E0	1.533469915E0	-1.611023426E0	7.292006016E-1
3.758580342E0	1.263839960E0	-1.623183250E0	1.645142078E0
3.766696919E0	9.861676693E-1	-1.476245403E0	1.802782059E0
3.774779188E0	1.762886047E-1	-1.325235844E0	1.669969082E0
3.782910380E0	-1.592583656E-1	-1.231292725E0	9.989869595E-1
3.791003111E0	-2.855048180E-1	-1.121984482E0	1.291227341E-1
3.799119726E0	-6.667971611E-1	-9.397459030E-1	-5.737074614E-1
3.807248995E0	-1.210257292E0	-6.530790329E-1	-1.088547945E0
3.815333918E0	-1.802498102E0	-2.244348526E-1	-1.316042900E0
3.831654418E0	-2.792612314E0	7.601566315E-1	-1.049470544E0
3.839771765E0	-3.039710760E0	1.201295853E0	-6.788897514E-1
3.847889841E0	-3.343501091E0	1.587844849E0	-2.455852032E-1
3.856025495E0	-3.453716755E0	1.819482803E0	1.554038525E-1
3.864142957E0	-3.513076305E0	1.880984306E0	4.916043282E-1
3.872243572E0	-3.678102732E0	1.613243103E0	6.594841480E-1
3.880374111E0	-3.783884525E0	1.148102760E0	6.487216949E-1
3.888491880E0	-3.725877762E0	5.716152191E-1	4.552910328E-1
3.896577187E0	-3.547448635E0	1.837940216E-1	1.774932146E-1
3.904708841E0	-3.359843016E0	-1.552782059E-1	6.417870522E-2
3.912916803E0	-3.080365419E0	-4.337177277E-1	4.226016998E-2
3.921031149E0	-2.815592766E0	-4.920101166E-1	2.145338058E-2
3.929159803E0	-2.475587368E0	-3.699045181E-1	-8.578538895E-2
3.937242956E0	-2.131847143E0	-1.188306808E-1	-1.310786009E-1
3.945358033E0	-1.687909603E0	-9.195327759E-3	-3.516364098E-2
3.953467533E0	-1.143886805E0	1.674957275E-1	5.463755131E-2
3.961583533E0	-6.576739550E-1	3.727245331E-1	2.233643532E-1
3.969699341E0	-7.159954309E-2	7.763023376E-1	3.886239529E-1
3.977796802E0	3.247402310E-1	1.698444366E0	3.563009501E-1
3.985913879E0	1.041818261E0	2.859431267E0	-7.339298725E-2
3.994131995E0	1.082663417E0	3.722287178E0	-4.857704639E-1
4.002263687E0	2.199870348E0	4.354716301E0	-1.770587564E0
4.010377802E0	2.301043510E0	4.028901100E0	-1.499527216E0
4.018461725E0	2.153306007E0	3.249303818E0	-1.738247991E0
4.026592648E0	1.809013844E0	1.252390862E0	-2.376966953E0
4.034727341E0	1.250343084E0	-2.406711578E-1	-2.396094799E0
4.042842495E0	-8.593840003E-1	-1.016196251E0	-3.342124224E0
4.050970610E0	-2.059882164E0	-2.854343414E0	-3.931261063E0
4.059054687E0	1.827138424E0	-2.501684189E0	5.387654305E-1
4.067137187E0	3.140014648E0	-1.481204033E0	1.792660236E0
4.075265341E0	2.803332806E0	-1.069988251E0	8.589646816E-1
4.083379264E0	2.333165407E0	-8.665218353E-1	-5.001978874E-1
4.091494302E0	2.578332424E0	-7.745904922E-1	-1.673350215E0
4.099590956E0	2.586774826E0	-6.534547806E-1	-2.508220196E0
4.107671494E0	3.088554859E0	-5.677900314E-1	-2.833956242E0
4.115788571E0	3.420004368E0	-5.222434998E-1	-2.691203833E0
4.123917687E0	3.238205910E0	-4.366312027E-1	-2.354372501E0
4.132030879E0	3.166341066E0	-3.922033310E-1	-2.155843973E0
4.140113340E0	4.317806244E0	-7.287693024E-1	-1.765342236E0
4.148210648E0	4.265241146E0	-7.917776108E-1	-1.395517707E0
4.156411840E0	3.656036139E0	-8.608789444E-1	-1.142506957E0
4.164495302E0	3.058619022E0	-8.299598694E-1	-8.975399137E-1
4.172595071E0	2.013661146E0	-4.667949677E-1	-1.078589439E0
4.180678994E0	1.686079502E0	-2.579622269E-1	-1.265177011E0
4.188794956E0	1.812444568E0	-3.786993027E-1	-1.334183812E0
4.196876725E0	1.857989430E0	-3.688688278E-1	-1.192454219E0
4.204990532E0	1.702734947E0	-1.765565872E-1	-1.149785757E0
4.213110648E0	1.362531543E0	8.801555634E-2	-1.057225585E0
4.221207494E0	5.170307159E-1	3.531980515E-1	-9.969755411E-1
4.229323878E0	-1.206562519E-1	5.439624786E-1	-9.673919678E-1
4.237523148E0	-5.763602257E-1	6.003551483E-1	-9.004743695E-1
4.245653801E0	-8.921997547E-1	5.525274277E-1	-7.854695916E-1
4.253768032E0	-1.117325902E0	5.253000259E-1	-6.459032297E-1
4.261848878E0	-1.324694872E0	4.820709229E-1	-4.332603216E-1
4.269977571E0	-1.597379684E0	4.511213303E-1	-2.142076939E-1
4.278083186E0	-1.871388197E0	3.791799545E-1	-2.566222847E-2
4.286198763E0	-2.127118111E0	2.636957169E-1	1.574960947E-1
4.294329301E0	-2.303632498E0	1.236419678E-1	3.193469048E-1
4.302411417E0	-2.252109289E0	-5.880928040E-2	4.993293583E-1
4.310527032E0	-2.099925041E0	-2.205190659E-1	7.139176130E-1
4.318738801E0	-1.919361234E0	-3.392314911E-1	9.512450099E-1
4.326854070E0	-1.691553116E0	-3.831958771E-1	1.086787462E0
4.334969032E0	-1.352004528E0	-3.284378052E-1	1.081430674E0
4.343066263E0	-1.025267959E0	-2.611207962E-1	1.043264508E0
4.351146724E0	-6.362072229E-1	-2.024459839E-1	8.971366286E-1
4.359249455E0	-2.677278519E-1	-1.544857025E-1	6.875825524E-1
4.367381070E0	1.930272579E-1	-4.742050171E-2	4.803362489E-1
4.375499993E0	5.740926266E-1	2.331447601E-2	3.869640827E-1
4.383583878E0	9.128047228E-1	7.023429871E-2	3.398188949E-1
4.391714070E0	1.119381070E0	1.102275848E-1	3.797437251E-1
4.399926224E0	1.345675707E0	9.602069855E-2	3.792241812E-1
4.408044109E0	1.501902342E0	5.837249756E-2	3.475540876E-1
4.416176147E0	1.589944124E0	-5.572700500E-2	3.342332244E-1
4.424261685E0	1.648554444E0	-2.175388336E-1	3.812290430E-1
4.432376801E0	1.542035341E0	-3.862991333E-1	5.291277170E-1
4.440489993E0	1.351478100E0	-4.879999161E-1	4.921318889E-1
4.448607724E0	1.067080498E0	-5.635700226E-1	3.818980455E-1
4.456724262E0	6.925001144E-1	-6.363000870E-1	2.784579396E-1
4.464822301E0	2.789680958E-1	-7.481718063E-1	2.528119087E-1
4.472937878E0	-6.726980209E-2	-8.898668289E-1	1.625061631E-1
4.481136762E0	-3.273022175E-1	-1.090086937E0	1.602351665E-2
4.489269339E0	-5.517876148E-1	-1.354210854E0	-2.914601564E-1
4.497385185E0	-7.778240442E-1	-1.571085930E0	-9.735508561E-1
4.505469877E0	-9.836279154E-1	-1.650731087E0	-1.456216574E0
4.513600070E0	-1.079845786E0	-1.655326366E0	-1.573141456E0
4.521678493E0	-1.083378673E0	-1.551507473E0	-1.305534244E0
4.529793839E0	-9.532017708E-1	-1.176637650E0	-6.944064498E-1
4.537925146E0	-5.491378307E-1	-5.705928802E-1	4.135902524E-1
4.546007762E0	-5.757575035E-1	4.136915207E-1	9.310309887E-1
4.554124416E0	1.990079880E-1	2.601722717E0	1.496584177E0
4.562321416E0	1.292201519E0	3.372282028E0	4.659368992E-1
4.570437300E0	2.042547226E0	4.347999573E0	1.825088263E-1
4.578553877E0	2.710231781E0	5.114914894E0	-6.206636429E-1
4.586652800E0	2.891897678E0	5.016790390E0	-1.031092048E0
4.594770492E0	3.012101412E0	4.123687744E0	-8.960620761E-1
4.602899762E0	2.138578415E0	2.336519241E0	-1.922575235E-1
4.610998531E0	8.723633289E-1	9.604101181E-1	5.642418265E-1
4.619115762E0	-2.189171314E-1	4.725646973E-2	8.029955626E-1
4.627199877E0	-9.150819778E-1	-5.769233704E-1	7.606565952E-1
4.635330762E0	-1.004391551E0	-1.077911377E0	4.740281105E-1
4.643558223E0	-1.290554523E0	-1.603059292E0	2.944238186E-1
4.651674646E0	-1.327642798E0	-1.891482830E0	4.115337133E-2
4.659808184E0	-1.242291212E0	-2.183431149E0	-2.495198250E-1
4.667894184E0	-1.189212561E0	-2.190106869E0	-2.989395559E-1
4.676011184E0	-1.074861050E0	-2.274282455E0	-2.425214350E-1
4.684121761E0	-1.088966846E0	-2.428682804E0	1.001723111E-1
4.692240492E0	-9.815372229E-1	-2.511904716E0	4.620831609E-1
4.700362877E0	-1.070953369E0	-2.526555061E0	7.788982391E-1
4.708464454E0	-8.520737886E-1	-2.168814659E0	6.813019514E-1
4.716583607E0	-8.000034094E-1	-1.735447407E0	3.381824791E-1
4.724785607E0	-7.650321722E-1	-1.441680908E0	-1.580475271E-1
4.732918300E0	-7.652020454E-1	-1.397321701E0	-6.627280712E-1
4.741002569E0	-8.110644817E-1	-1.614003181E0	-1.034288168E0
4.749088107E0	-9.582923651E-1	-1.938215256E0	-1.276483774E0
4.757221376E0	-1.156574368E0	-2.355516911E0	-1.414757609E0
4.765352646E0	-1.388438702E0	-2.793521881E0	-1.523626447E0
4.773471069E0	-1.418909311E0	-3.213793278E0	-1.595180273E0
4.781605146E0	-1.514912128E0	-3.530103683E0	-1.718015432E0
4.789690607E0	-1.564289093E0	-3.881477833E0	-1.717183709E0
4.797807069E0	-1.670938969E0	-4.226548195E0	-1.505290031E0
4.806006338E0	-1.749021053E0	-4.697841167E0	-1.239835978E0
4.814124261E0	-1.744346380E0	-5.069141388E0	-1.055147529E0
4.822241299E0	-1.701188087E0	-5.205611706E0	-9.428655505E-1
4.830340684E0	-1.509084463E0	-5.092361927E0	-5.887067914E-1
4.838456684E0	-1.398203611E0	-4.831588745E0	3.140568733E-2
4.846591799E0	-1.484949708E0	-4.545163631E0	6.177824736E-1
4.854721761E0	-1.787484288E0	-4.276300430E0	1.219539285E0
4.862836722E0	-2.230533838E0	-3.934196472E0	1.892205596E0
4.870919491E0	-2.734959364E0	-3.627169132E0	2.477354527E0
4.879050799E0	-3.182126760E0	-3.169122219E0	2.975991249E0
4.887278799E0	-3.268307447E0	-2.399039268E0	3.332388401E0
4.895394645E0	-2.752203941E0	-1.370377064E0	3.366287470E0
4.903524530E0	-1.937184453E0	8.394241333E-3	3.201031685E0
4.911609722E0	-8.875305653E-1	1.397470474E0	2.736296415E0
4.919724607E0	2.939829826E-1	2.821639061E0	2.004330873E0
4.927816183E0	1.479146719E0	4.710141182E0	7.915097475E-1
4.935931876E0	2.887003422E0	6.931161880E0	-1.138288498E0
4.944049030E0	3.259567261E0	9.719694138E0	-2.618421078E0
4.952147222E0	3.025561571E0	1.294688988E1	-2.933014631E0
4.960194991E0	3.384788752E0	1.660127640E1	-1.032888532E0
4.968273222E0	4.187448025E0	2.068795395E1	2.695286274E0
4.976404183E0	6.912264824E0	2.338550186E1	4.126137257E0
4.984519529E0	8.496307373E0	2.460320091E1	4.227186203E0
4.992602799E0	1.113377953E1	2.426635933E1	2.863377094E0
5.000735183E0	1.396482849E1	2.194193268E1	1.322832584E0
5.008871991E0	1.539118576E1	1.780168152E1	1.794075966E-1
5.016989491E0	1.238829994E1	1.295238018E1	-1.624324918E-1
5.025121298E0	7.254782200E0	1.021836472E1	-4.299573302E-1
5.033207298E0	3.938383579E0	8.362907410E0	-7.556613684E-1
5.041322914E0	1.623215914E0	6.752752304E0	-1.361866355E0
5.049519721E0	5.491178036E-1	5.510859489E0	-1.973346949E0
5.057633914E0	1.375894547E-1	4.508757591E0	-2.545179367E0
5.065749414E0	7.708787918E-3	3.635392189E0	-2.748166084E0
5.073848144E0	-1.154019833E-1	2.787906647E0	-2.755247593E0
5.081964875E0	-3.046140671E-1	1.855454445E0	-2.469144821E0
5.090093683E0	-6.709964275E-1	7.379961014E-1	-1.969324708E0
5.098193952E0	-1.202839136E0	-5.607891083E-1	-1.376115561E0
5.106309990E0	-2.025815964E0	-2.298296928E0	-5.921540260E-1
5.114395106E0	-2.896078348E0	-4.098374844E0	-1.436950564E-1
5.130754298E0	-3.808250904E0	-6.598614693E0	-5.438293219E-1
5.138871298E0	-4.042710304E0	-7.302936077E0	-3.396258950E-1
5.147002567E0	-4.071803093E0	-7.673836708E0	-2.384386063E-1
5.155087298E0	-3.873348951E0	-7.990383148E0	-1.067437530E-1
5.163203759E0	-3.582253456E0	-8.297442436E0	-1.515554190E-1
5.171280990E0	-3.384901047E0	-8.657141685E0	-1.686546803E-1
5.179394567E0	-3.144848347E0	-9.079454422E0	-2.356446981E-1
5.187514029E0	-3.009150505E0	-9.463916779E0	-3.238496184E-1
5.195613952E0	-2.825156212E0	-9.805218697E0	-5.658078194E-1
5.203698221E0	-2.477105141E0	-1.000362396E1	-8.575428724E-1
5.211916682E0	-2.216445923E0	-1.029907036E1	-1.082682610E0
5.220047452E0	-2.017881155E0	-1.048978710E1	-1.208174825E0
5.228162952E0	-1.870610476E0	-1.064353275E1	-1.445971012E0
5.236245721E0	-1.745004773E0	-1.070680428E1	-1.659607172E0
5.244376067E0	-1.628235340E0	-1.074485016E1	-1.711581826E0
5.252505413E0	-1.417649388E0	-1.093644905E1	-1.605753541E0
5.260622951E0	-1.240162611E0	-1.111213303E1	-1.579380512E0
5.268755105E0	-1.224837899E0	-1.116376209E1	-1.624642134E0
5.276840913E0	-9.412752390E-1	-1.144536877E1	-1.485428095E0
5.284956605E0	-7.399977446E-1	-1.152843094E1	-1.506206512E0
5.293152759E0	-6.180460453E-1	-1.159495926E1	-1.504834771E0
5.301234797E0	-4.441635013E-1	-1.179842091E1	-1.496253967E0
5.309350490E0	-2.977706790E-1	-1.198834991E1	-1.599227667E0
5.317435490E0	-2.300447226E-1	-1.204778671E1	-1.716699839E0
5.325517720E0	-1.626805663E-1	-1.197509956E1	-1.761564016E0
5.333653451E0	-1.750576496E-1	-1.191919327E1	-1.802052855E0
5.341785528E0	-2.379220128E-1	-1.178052616E1	-1.648948193E0
5.349903336E0	-4.183288813E-1	-1.159558487E1	-1.575087547E0
5.357987297E0	-6.099258065E-1	-1.137419987E1	-1.504707217E0
5.366118259E0	-8.604156375E-1	-1.108766365E1	-1.465571404E0
5.374348413E0	-1.156142473E0	-1.067347908E1	-1.584301710E0
5.382468336E0	-1.360018253E0	-1.029112339E1	-1.787944913E0
5.390603566E0	-1.583554268E0	-9.791166306E0	-1.903232217E0
5.398690605E0	-1.793596745E0	-7.999269009E0	-9.955250025E-1
5.406810066E0	-1.884208202E0	-6.816405296E0	8.210974932E-1
5.414924028E0	-2.039077520E0	-7.505083561E0	-5.912342072E-1
5.423042835E0	-1.850307107E0	-7.583552837E0	-9.648809433E-1
5.431129297E0	-1.613698840E0	-7.111824989E0	-5.498015881E-2
5.439231835E0	-1.022717357E0	-5.107704163E0	1.629519463E0
5.447350066E0	-1.913540363E-1	1.751007080E0	7.073824883E0
5.455572220E0	3.281724453E-1	1.422021770E1	1.630727196E1
5.463706604E0	2.319473982E0	2.679424667E1	1.533668327E1
5.471825912E0	5.838760853E0	3.864554596E1	4.018432617E0
5.479912335E0	5.791927338E0	5.086920166E1	-2.086658478E0
5.488046104E0	4.353193283E0	5.973828125E1	-5.366003990E0
5.496177720E0	1.105612040E0	6.672185516E1	-4.803722858E0
5.504264643E0	5.823457241E-1	6.407888794E1	-3.401449442E0
5.512400758E0	7.695391178E0	4.087368393E1	1.097261190E0
5.520488681E0	8.229248047E0	2.578563309E1	1.856626987E0
5.528607989E0	6.351058006E0	1.597966576E1	1.278160572E0
5.536808220E0	4.657670975E0	9.953886032E0	8.995193243E-1
5.544926143E0	3.663288593E0	6.023067474E0	7.029030323E-1
5.553043450E0	2.882042885E0	3.462667465E0	2.760010362E-1
5.561146066E0	1.942257285E0	1.437569618E0	-1.017921567E-1
5.569265489E0	1.097901106E0	-3.846549988E-1	-4.839590192E-1
5.577394296E0	6.931995749E-1	-1.889638901E0	-6.182510853E-1
5.585526989E0	3.150794506E-1	-3.379578114E0	-6.638370156E-1
5.593644027E0	-9.061783552E-2	-4.907855511E0	-6.392148733E-1
5.601729181E0	-2.292394042E-1	-6.197311401E0	-7.223362327E-1
5.609860912E0	-1.375802159E-1	-7.274815559E0	-8.309819102E-1
5.618089950E0	-1.360177994E-3	-8.291780472E0	-8.059687614E-1
5.626209065E0	-8.990395069E-2	-9.435346603E0	-8.876127005E-1
5.634340642E0	-1.502060294E-1	-1.029151917E1	-1.144447923E0
5.642426681E0	-3.402428925E-1	-1.065674496E1	-1.498331547E0
5.650545219E0	-5.413084030E-1	-1.092825317E1	-1.747871637E0
5.658631758E0	-7.601605058E-1	-1.119222641E1	-1.706529260E0
5.666750258E0	-1.022499204E0	-1.139339066E1	-1.525693059E0
5.674870642E0	-1.128097773E0	-1.143852997E1	-1.381298184E0
5.682972911E0	-1.163756609E0	-1.148319340E1	-1.196733236E0
5.691093027E0	-1.187401295E0	-1.149861717E1	-1.103196144E0
5.699315027E0	-1.249128342E0	-1.151364517E1	-9.507876635E-1
5.707449604E0	-1.226549625E0	-1.137024593E1	-8.498046398E-1
5.715571027E0	-1.174369812E0	-1.124640560E1	-5.976791382E-1
5.723658796E0	-1.064349651E0	-1.131688595E1	-4.580380917E-1
5.731792988E0	-1.022901177E0	-1.128978920E1	-4.656700492E-1
5.739901257E0	-9.140088558E-1	-1.117982674E1	-4.876035452E-1
5.748018142E0	-8.851951361E-1	-1.120007896E1	-5.634187460E-1
5.756151603E0	-8.094027042E-1	-1.117093658E1	-6.459653378E-1
5.764236103E0	-6.117947102E-1	-1.121920586E1	-5.571390986E-1
5.772353565E0	-5.577400923E-1	-1.137347984E1	-7.511470318E-1
5.780552219E0	-3.661002517E-1	-1.139891148E1	-7.184959650E-1
5.788668988E0	-5.509865880E-1	-1.168564034E1	-9.395362139E-1
5.796788180E0	-7.676178217E-1	-1.215673828E1	-8.619602919E-1
5.804921642E0	-1.073739529E0	-1.238119411E1	-9.410569072E-1
5.813007488E0	-1.245602131E0	-1.223912811E1	-8.259396553E-1
5.821112103E0	-1.409281731E0	-1.224275875E1	-7.305169702E-1
5.829243603E0	-1.716348052E0	-1.266000938E1	-3.699915409E-1
5.837362257E0	-2.151833057E0	-1.384800148E1	2.481993198E0
5.845446911E0	-2.801505804E0	-1.437345314E1	3.049884796E0
5.853579526E0	-3.049927950E0	-1.381350422E1	1.086473703E0
5.861809680E0	-3.435971022E0	-1.115636635E1	-2.462369442E0
5.869925949E0	-3.943033218E0	-9.000783920E0	-1.749044418E0
5.878057757E0	-4.470077515E0	-9.459531784E0	-5.590137839E-1
5.886142372E0	-4.385378838E0	-8.824558258E0	-6.907421350E-1
5.894258757E0	-9.937313199E-1	-1.846107006E0	2.309865761E1
5.902355487E0	4.377221584E0	1.256993771E1	5.753887177E0
5.910471487E0	6.601416588E0	5.433170319E0	-6.543299675E0
5.926691949E0	-2.763444185E-1	-6.199760437E-1	3.207611084E0
5.934809333E0	-1.132614613E0	2.484601021E0	3.494976521E0
5.943029180E0	-1.653247714E0	3.953227043E0	1.030553102E0
5.951160756E0	-1.931101322E0	1.331747341E1	-2.370520115E0
5.959277756E0	1.157094240E0	2.906019974E1	-6.283296347E-1
5.967363641E0	4.225819588E0	4.605673218E1	-8.168565631E-1
5.975497333E0	5.793387890E0	5.876145554E1	-2.003764153E0
5.983627641E0	5.400113106E0	6.475906372E1	-1.660479784E0
5.991747102E0	5.610323906E0	6.505032349E1	-1.054805040E0
5.999881795E0	4.062219620E0	5.668000412E1	1.957786977E-1
6.007968295E0	3.784758329E0	4.222994995E1	1.432487965E0
6.016086525E0	4.081161976E0	2.598254013E1	2.459065199E0
6.024169025E0	2.526543379E0	1.374465561E1	1.778663993E0
6.032288910E0	1.054852605E0	6.791863441E0	1.275687099E0
6.040408872E0	-3.402241766E-1	2.355401039E0	3.341129124E-1
6.048509948E0	-1.061128736E0	-4.935302734E-1	-3.413584232E-1
6.056628295E0	-1.090396047E0	-2.667159081E0	-9.467793107E-1
6.064756833E0	-8.611983657E-1	-4.331627846E0	-1.762832522E0
6.072889718E0	-4.033234715E-1	-5.762632370E0	-2.588514328E0
6.081006602E0	-1.789999008E-2	-6.938619137E0	-2.866235971E0
6.089090102E0	5.162569284E-1	-8.245713234E0	-2.681746244E0
6.105378679E0	1.126011610E0	-1.041072655E1	-1.887422800E0
6.113494679E0	8.357906342E-1	-1.096554756E1	-1.561797619E0
6.121628217E0	8.497717977E-1	-1.141566658E1	-1.235437036E0
6.129715487E0	7.826651335E-1	-1.154419804E1	-1.196829557E0
6.137835525E0	5.821027160E-1	-1.138770580E1	-1.170273662E0
6.145916217E0	6.060022116E-1	-1.129892254E1	-1.346240759E0
6.154036794E0	6.029908657E-1	-1.119944572E1	-1.755307555E0
6.162157679E0	8.504757285E-1	-1.108679581E1	-2.040017843E0
6.170259448E0	9.300254583E-1	-1.097002029E1	-2.201396704E0
6.178379371E0	7.585281134E-1	-1.073435497E1	-2.167458057E0
6.186599756E0	7.133017182E-1	-1.069340324E1	-2.123853683E0
6.194732986E0	8.995444179E-1	-1.084237099E1	-1.992170095E0
6.202851602E0	1.667237043E0	-1.173697472E1	-2.058016777E0
6.210938063E0	1.838130832E0	-1.208179855E1	-2.216556072E0
6.219073294E0	1.591876745E0	-1.250870323E1	-2.363160610E0
6.227178717E0	1.606119156E0	-1.330717945E1	-2.841247082E0
6.235297640E0	1.841782093E0	-1.485264397E1	-3.032958269E0
6.243431640E0	2.985615969E0	-1.634769821E1	-2.236565113E0
6.251519909E0	4.939702988E0	-1.729926109E1	-8.694552183E-1
6.259626640E0	6.362672329E0	-1.848095703E1	1.732376337E0
6.267829371E0	5.874839306E0	-1.862351608E1	2.307537556E0
6.275948717E0	3.624949455E0	-1.759693718E1	2.045566082E0
6.284069178E0	1.101805925E0	-1.611945724E1	1.853153706E-1
6.292172140E0	-4.216363430E-1	-1.470609474E1	-1.846290827E0
6.300292294E0	-1.397700191E0	-1.389102745E1	-3.314198971E0
6.308445371E0	-1.660534739E0	-1.327476406E1	-4.130808353E0
6.316579255E0	-2.736892223E0	-1.310431004E1	-4.512401104E0
6.324698678E0	-3.250215292E0	-1.287987328E1	-4.593426228E0
6.332785755E0	-3.941902161E0	-1.252224159E1	-4.658493996E0
6.340920524E0	-4.184129715E0	-1.199895000E1	-4.698344231E0
6.349153601E0	-3.879996777E0	-1.123734474E1	-4.464014530E0
6.357276716E0	-3.662032366E0	-9.458053589E0	-5.457835197E0
6.365414101E0	-3.492325783E0	-9.244789124E0	-3.229261875E0
6.373500716E0	-3.082402706E0	-1.015930843E1	-1.329575658E0
6.381617947E0	-2.561148167E0	-1.008096981E1	-8.324426413E-1
6.389726524E0	-1.833293915E0	-9.901293755E0	-1.427350044E-1
6.397846716E0	-1.354171753E0	-9.381084442E0	2.728066444E-1
6.405966216E0	-1.329686761E0	-2.260014057E0	1.985366821E1
6.414067485E0	-2.429085493E0	8.367800713E0	4.870158386E1
6.422188562E0	-2.903925896E0	1.303062534E1	4.687284470E1
6.430410870E0	3.500520706E0	9.870959282E0	9.263790131E0
6.438514601E0	2.138734579E0	1.178247166E1	-9.464331627E0
6.446637639E0	2.155305386E0	2.644573402E1	-2.035660172E1
6.454724793E0	3.074185133E0	4.682115555E1	-2.820018578E1
6.462858639E0	4.576395035E0	6.294381714E1	-2.362721634E1
6.470994024E0	7.768443108E0	6.890762329E1	-5.002615929E0
6.479112754E0	1.619221115E1	6.888763428E1	8.631564140E0
6.487245293E0	2.034766006E1	6.542536163E1	9.166522026E0
6.495330524E0	8.479340553E0	3.898239136E1	5.789966583E0
6.503449062E0	4.227247238E0	2.193043518E1	3.926141262E0
6.511652293E0	1.646259665E0	1.226451015E1	1.553335667E0
6.519773485E0	4.117208719E-1	6.022545815E0	1.129275560E-1
6.527892985E0	-2.458791733E-1	1.894313812E0	-1.028812051E0
6.536028562E0	-4.443763494E-1	-1.247667313E0	-1.805057168E0
6.544149523E0	-3.670120835E-1	-4.171854973E0	-2.058169603E0
6.552282139E0	-1.613685489E-1	-6.253664017E0	-2.030179501E0
6.560415370E0	-3.318530321E-2	-8.084961891E0	-1.990835547E0
6.568535831E0	9.331893921E-2	-9.498480797E0	-1.984854221E0
6.576624831E0	7.470393181E-2	-1.053266811E1	-1.873578072E0
6.584760639E0	-8.564299345E-2	-1.108462620E1	-1.662160873E0
6.592995062E0	-2.076727450E-1	-1.147778225E1	-1.631368160E0
6.601118292E0	-6.762012839E-2	-1.205676556E1	-1.746853709E0
6.609256062E0	-1.799681485E-1	-1.212954140E1	-1.985979199E0
6.617345754E0	-8.438888192E-2	-1.207201195E1	-2.223058701E0
6.625467715E0	-2.046580613E-1	-1.179068184E1	-2.302906513E0
6.633553792E0	-6.642770022E-2	-1.188669777E1	-2.357032776E0
6.641673792E0	2.179179341E-1	-1.181196404E1	-1.832108736E0
6.649796869E0	4.296613038E-1	-1.190927315E1	-2.015660763E0
6.657900715E0	6.796721220E-1	-1.212626266E1	-1.562501669E0
6.666022792E0	8.871271014E-1	-1.192234898E1	-1.445493102E0
6.674246177E0	8.276523352E-1	-1.196570683E1	-1.148678422E0
6.682379408E0	6.442623734E-1	-1.217505550E1	-1.131465316E0
6.690498177E0	4.838079214E-1	-1.234679031E1	-1.093772769E0
6.698585792E0	6.048719883E-1	-1.225087547E1	-8.988793492E-1
6.706719254E0	4.840717912E-1	-1.275597763E1	-6.560007930E-1
6.714833407E0	6.348851919E-1	-1.439675713E1	5.324906111E-1
6.722950523E0	1.819172502E-1	-1.776881790E1	5.826751709E0
6.731084792E0	1.098108292E0	-1.737372589E1	6.673273087E0
6.739171677E0	1.013739467E0	-1.756608582E1	4.998498440E0
6.747290253E0	-3.200322390E-4	-1.720226860E1	2.584867716E0
6.755493523E0	-7.261115313E-1	-1.671426010E1	6.019884944E-1
6.763611907E0	-1.078905225E0	-1.624240875E1	-9.018493891E-1
6.771729715E0	-1.347538114E0	-1.600222206E1	-1.515563965E0
6.779830138E0	-1.157968283E0	-1.573036480E1	-1.972703218E0
6.787946715E0	-1.036543250E0	-1.543648720E1	-2.689051151E0
6.796083522E0	-8.924129009E-1	-1.478495789E1	-3.351214170E0
6.804215446E0	-9.531061649E-1	-1.417753792E1	-3.348518848E0
6.812332599E0	-1.352247596E0	-1.351811028E1	-3.047095299E0
6.820418792E0	-2.016590357E0	-1.213084888E1	-2.761668444E0
6.828550138E0	-3.402007103E0	-9.666441917E0	-3.277548790E0
6.836781792E0	-4.626467705E0	-8.271852493E0	9.464848042E-2
6.844899292E0	-4.141310692E0	-1.126216125E1	5.682770729E0
6.853033561E0	-3.604117870E0	-1.064454079E1	4.185781479E0
6.861119407E0	-2.907033443E0	-9.856070518E0	9.407294989E-1
6.869236561E0	6.531542301E0	2.255863190E1	4.783782196E1
6.877348907E0	1.782254791E1	2.254837036E1	-1.195126534E1
6.885467522E0	1.723262405E1	3.454717636E0	-5.703157902E0
6.893585522E0	4.684786797E0	1.469573975E-1	1.765794873E0
6.901684407E0	1.085145235E0	1.313152313E-1	5.172785759E0
6.909801253E0	8.531260490E-2	6.918466568E0	4.081975937E0
6.918023753E0	-6.673369408E-1	1.283468056E1	9.372632504E-1
6.926156022E0	1.217300415E0	2.876439095E1	-3.383618116E0
6.934274368E0	2.954822063E0	4.737619400E1	-8.939900398E0
6.942360060E0	3.677224874E0	6.283841324E1	-1.019763660E1
6.950493830E0	2.170995712E0	6.872745514E1	-7.137532234E0
6.958614676E0	-4.222211361E0	6.869247437E1	-3.155540943E0
6.966731368E0	-4.296156883E0	6.041462708E1	2.207603693E0
6.974865291E0	4.362472534E0	4.004957581E1	6.244214535E0
6.982951829E0	4.197696209E0	2.369287109E1	4.236218452E0
6.991038676E0	2.428520918E0	1.142309093E1	3.413542509E0
6.999124291E0	1.052159786E0	4.713517189E0	3.526131868E0
7.007241868E0	-1.545597017E-1	6.110668182E-1	2.808448553E0
7.015360137E0	-9.302081466E-1	-1.597003937E0	1.888261795E0
7.023461214E0	-1.806728005E0	-2.675206661E0	6.962829232E-1
7.031579983E0	-2.183410406E0	-3.726780415E0	-6.759966612E-1
7.039800483E0	-1.902581930E0	-4.853832722E0	-2.094475985E0
7.047935291E0	-1.209394097E0	-6.009501457E0	-2.887500286E0
7.056055483E0	-3.751688004E-1	-7.354092121E0	-3.101212263E0
7.064141521E0	4.191398621E-1	-8.495261192E0	-3.081143379E0
7.072274214E0	1.331784725E0	-9.635645866E0	-2.845596790E0
7.080413175E0	1.834219217E0	-1.051376820E1	-2.414422035E0
7.088533137E0	2.227107525E0	-1.121625423E1	-2.052553415E0
7.096634175E0	2.351246119E0	-1.161221790E1	-1.930820465E0
7.112840867E0	1.965792775E0	-1.177898026E1	-2.372885466E0
7.121049367E0	1.573716164E0	-1.156095886E1	-2.525077820E0
7.129167060E0	1.239364862E0	-1.134153461E1	-2.401301146E0
7.137289752E0	1.240773439E0	-1.114958954E1	-2.414638519E0
7.145390290E0	1.591077685E0	-1.120253181E1	-2.578403950E0
7.153509560E0	1.277904868E0	-1.089175510E1	-2.285695076E0
7.161629867E0	1.332540989E0	-1.109348965E1	-2.403679371E0
7.169763944E0	2.045119286E0	-1.179328346E1	-2.224115849E0
7.177882559E0	2.474726200E0	-1.256519127E1	-2.560488939E0
7.185968713E0	2.661779642E0	-1.274318409E1	-2.685585260E0
7.194102252E0	2.548812151E0	-1.296896267E1	-2.857730865E0
7.202333867E0	2.768926144E0	-1.393649864E1	-3.017492771E0
7.210451829E0	3.578572035E0	-1.528440380E1	-2.672497749E0
7.218584905E0	4.937253475E0	-1.619173050E1	-1.973659277E0
7.226670867E0	6.389073372E0	-1.641374779E1	-1.401686668E0
7.234788905E0	6.945536613E0	-1.678333282E1	-3.098546267E-1
7.242867944E0	6.141246319E0	-1.668929863E1	1.321330070E0
7.250987867E0	3.548130035E0	-1.630738449E1	3.962862253E0
7.259107521E0	1.775441408E0	-1.537443542E1	2.996139050E0
7.267210098E0	2.818207741E-1	-1.423726177E1	1.039194107E0
7.275328521E0	-1.047600508E-1	-1.329531193E1	-9.017357826E-1
7.283556174E0	-7.157499790E-1	-1.278515530E1	-2.292023182E0
7.291655367E0	-1.217408180E0	-1.229900742E1	-2.984532833E0
7.299773905E0	-1.515828967E0	-1.175850487E1	-3.414113283E0
7.307858867E0	-1.965893030E0	-1.131081772E1	-3.943593740E0
7.315992328E0	-2.439875603E0	-1.084514618E1	-4.482209206E0
7.324132020E0	-3.213117123E0	-1.004318237E1	-4.996088982E0
7.332250059E0	-3.564832687E0	-9.763786316E0	-4.650706291E0
7.340381059E0	-3.439635277E0	-9.305961609E0	-4.220075607E0
7.348465674E0	-2.802266121E0	-9.194530487E0	-2.956460476E0
7.356583790E0	-2.437537909E0	-9.493725777E0	-1.546877861E0
7.364787174E0	-2.218234301E0	-9.354151726E0	-3.389489651E-1
7.372906713E0	-1.800740123E0	-8.936391830E0	4.469523430E-1
7.381024943E0	-2.762698412E0	4.815607071E0	2.989978409E1
7.389126213E0	-6.070661068E0	1.440217876E1	6.043924713E1
7.397244097E0	-4.785658360E0	1.233919334E1	4.637919998E1
7.405366366E0	-1.575954914E0	4.248218536E0	9.628220558E0
7.413499905E0	1.106652141E0	1.044545555E1	-1.257907963E1
7.421617366E0	2.382626534E0	2.481783676E1	-2.095235062E1
7.429702520E0	3.798335314E0	4.557357025E1	-2.965999794E1
7.437836059E0	4.219279289E0	6.361096573E1	-2.700998497E1
7.445956635E0	5.966770649E0	6.887741089E1	-4.731716156E0
7.454071212E0	9.536975861E0	6.884162903E1	9.822238922E0
7.462208251E0	8.493975639E0	6.705634308E1	1.315580368E1
7.470294020E0	3.968575001E0	4.067878723E1	7.506718159E0
7.478411905E0	1.041014433E0	2.109741592E1	2.393398762E0
7.486503943E0	5.170540810E-1	1.152869320E1	2.432636738E0
7.494614712E0	-1.130747497E-1	5.973355293E0	8.653834462E-1
7.502731558E0	-2.181016207E-1	2.038650513E0	-1.037881136E0
7.510834558E0	-1.667953730E-1	-8.224487305E-1	-2.144152880E0
7.518953635E0	2.229588628E-1	-3.510399818E0	-2.369204044E0
7.527176212E0	4.963397384E-1	-5.683233738E0	-1.683722734E0
7.535278135E0	8.534169197E-1	-7.559821129E0	-9.280732274E-1
7.543397173E0	1.305019379E0	-9.294056892E0	-4.876641035E-1
7.551483404E0	1.730876923E0	-1.059193134E1	-5.212125778E-1
7.559616597E0	1.898200989E0	-1.141768932E1	-8.107289672E-1
7.567749558E0	1.708887219E0	-1.174739456E1	-1.139464378E0
7.575867943E0	1.758091927E0	-1.182332516E1	-1.383655787E0
7.584001250E0	1.466051340E0	-1.172233772E1	-1.730378866E0
7.592085827E0	1.144277930E0	-1.147649479E1	-1.726595640E0
7.600205250E0	9.031293392E-1	-1.136452293E1	-1.928940892E0
7.608413481E0	1.033931851E0	-1.123121166E1	-1.876735210E0
7.616533058E0	9.082632065E-1	-1.087981701E1	-1.668191433E0
7.624655673E0	7.808519602E-1	-1.085391712E1	-1.431726217E0
7.632756981E0	6.715750098E-1	-1.064567184E1	-9.751960635E-1
7.640875481E0	6.120806336E-1	-1.058288860E1	-9.726937413E-1
7.649004827E0	8.340183496E-1	-1.070796967E1	-8.107969761E-1
7.657105788E0	8.150336742E-1	-1.115889454E1	-9.293772578E-1
7.665223558E0	9.721878767E-1	-1.144919491E1	-6.340383291E-1
7.673309788E0	8.778882027E-1	-1.208808994E1	-1.049587727E-1
7.681444711E0	1.018775225E0	-1.491180611E1	4.221584320E0
7.689676634E0	1.313060999E0	-1.735517311E1	8.812105179E0
7.697763404E0	1.869542956E0	-1.693286514E1	8.588680267E0
7.705897019E0	1.299386472E-1	-1.760879135E1	5.528972626E0
7.713983596E0	-1.206681132E0	-1.790771866E1	1.142786264E0
7.722101288E0	-1.788953304E0	-1.826196671E1	-2.238514900E0
7.730208711E0	-2.098843813E0	-1.825371742E1	-4.127237797E0
7.738325827E0	-1.386821985E0	-1.799101257E1	-4.743520260E0
7.746443711E0	-1.836503595E-1	-1.764216232E1	-4.841569424E0
7.762659596E0	-2.224801481E-1	-1.729870796E1	-3.152840376E0
7.770857980E0	-1.169320583E0	-1.679475403E1	-1.833325624E0
7.778958173E0	-1.790854096E0	-1.589680290E1	-9.797470570E-1
7.787076711E0	-2.192518234E0	-1.502813435E1	-5.917662382E-1
7.795195365E0	-2.541074276E0	-1.427910519E1	-6.133810878E-1
7.803327326E0	-3.172373533E0	-1.300914574E1	-1.104889035E0
7.811435134E0	-4.378095627E0	-8.540246010E0	-5.615056038E0
7.819551903E0	-4.519958973E0	-1.043714809E1	2.309443951E0
7.827652288E0	-4.027669907E0	-1.124886703E1	3.656725645E0
7.835739134E0	1.978367925E0	8.188105583E0	1.930278778E1
7.843825788E0	2.311121559E1	2.794008255E1	-1.604875755E1
7.852028249E0	1.194912148E1	-3.576924324E0	-7.328382015E0
7.860148634E0	4.102186203E0	-2.245420933E0	1.651217818E0
7.868268018E0	2.314306736E0	4.122457504E-1	1.377877522E1
7.876367903E0	2.350386143E0	7.844293594E0	2.853387833E1
7.884484903E0	1.259516716E0	9.293174744E0	2.533695221E1
7.892614172E0	-1.181611538E0	1.008055401E1	1.332220173E1
7.900747326E0	1.293518782E0	2.223012161E1	-3.118970394E-1
7.908866095E0	7.950086117E0	4.392837524E1	-1.930721474E1
7.916950057E0	8.795919418E0	6.423123932E1	-2.584854126E1
7.925081826E0	6.897761345E0	6.892728424E1	-1.875927925E1
7.933308672E0	3.798890591E0	6.886697388E1	-3.775695086E0
7.941426864E0	4.099242210E0	6.227182388E1	4.637996197E0
7.949558672E0	6.054953575E0	4.244726944E1	6.612623215E0
7.957644364E0	4.399712563E0	2.313418198E1	6.430474758E0
7.965763249E0	1.749603987E0	1.010387707E1	2.900721550E0
7.973844595E0	-5.250432491E-1	3.366079330E0	2.700850010E0
7.981961287E0	-2.803624630E0	3.957538605E-1	2.422698975E0
7.990080633E0	-3.052577257E0	-1.219752312E0	1.788115740E0
7.998180941E0	-2.533554792E0	-3.051539898E0	7.875435948E-1
8.006297056E0	-1.900668383E0	-4.853920937E0	-3.507580757E-1
8.014517172E0	-1.046331286E0	-6.509715080E0	-1.083514333E0
8.022651326E0	-2.328314483E-1	-8.038130760E0	-1.423397303E0
8.030769518E0	5.002983212E-1	-9.351018906E0	-1.763067126E0
8.038853787E0	1.065443158E0	-1.059769821E1	-1.788291931E0
8.046985825E0	1.161947727E0	-1.123761559E1	-1.556232572E0
8.055116095E0	1.562461853E0	-1.177907372E1	-1.314786434E0
8.063234172E0	2.254721642E0	-1.246180058E1	-1.580186129E0
8.071367210E0	2.127378941E0	-1.233784580E1	-1.920427322E0
8.079455018E0	2.484906435E0	-1.265700340E1	-2.506973505E0
8.087574402E0	3.143409014E0	-1.336398602E1	-2.582290649E0
8.095780441E0	3.428676128E0	-1.387680340E1	-2.853135347E0
8.103899671E0	3.356578588E0	-1.377400208E1	-2.602308273E0
8.112022094E0	3.428088665E0	-1.381194115E1	-2.567011356E0
8.120123941E0	3.325189114E0	-1.389937973E1	-2.612495899E0
8.128242633E0	3.361480236E0	-1.425421333E1	-2.369736195E0
8.136374325E0	3.414323330E0	-1.465331745E1	-2.296441793E0
8.144507787E0	3.560713291E0	-1.524281693E1	-2.354045868E0
8.152626248E0	4.077868462E0	-1.592668724E1	-2.645622015E0
8.160715133E0	4.715987682E0	-1.674763870E1	-2.335066795E0
8.168851863E0	5.627282619E0	-1.744203568E1	-1.490241408E0
8.177013017E0	6.305877209E0	-1.758834839E1	1.561373472E-1
8.185135171E0	5.654498100E0	-1.727293587E1	1.476330757E0
8.193269825E0	4.000865459E0	-1.655131912E1	2.216180325E0
8.201357671E0	2.484256268E0	-1.569525433E1	2.713948250E0
8.209476748E0	1.125763655E0	-1.497587395E1	1.968202949E0
8.217580248E0	3.428735733E-1	-1.423836899E1	4.452081919E-1
8.225698825E0	-1.681555510E-1	-1.371793556E1	-7.915406227E-1
8.233817171E0	-3.055208921E-1	-1.341995049E1	-1.573735356E0
8.241918055E0	-6.399629116E-1	-1.314439869E1	-2.162025928E0
8.250036709E0	-8.116827011E-1	-1.280083561E1	-2.740303040E0
8.258262402E0	-1.319849968E0	-1.256000519E1	-3.159378290E0
8.266394825E0	-1.833648801E0	-1.232176018E1	-3.456218243E0
8.274517132E0	-2.193410873E0	-1.182482719E1	-3.727413416E0
8.282603978E0	-2.388087988E0	-1.134963703E1	-3.819049358E0
8.290735555E0	-2.618350029E0	-1.090322018E1	-3.474336624E0
8.298869017E0	-2.476736546E0	-1.030671406E1	-2.686372280E0
8.306986171E0	-2.402073383E0	-9.643373489E0	-2.117640734E0
8.315119247E0	-2.270083904E0	-8.795669556E0	-2.236339092E0
8.323203786E0	-1.980843902E0	-8.422401428E0	-2.126763821E0
8.331321747E0	-1.792148829E0	-7.842145920E0	-2.150350094E0
8.339523401E0	-2.195647478E0	-4.653163910E0	2.152418137E0
8.347640901E0	-3.681312084E0	6.219238281E0	3.467822647E1
8.355757978E0	-3.172197342E0	1.397899246E1	5.509496689E1
8.363857517E0	-3.539206982E-1	8.062741280E0	2.662613678E1
8.371976016E0	5.673910141E0	1.426442432E1	-9.602864265E0
8.380084901E0	8.747084618E0	3.218890762E1	-2.173544693E1
8.388218709E0	1.502774048E1	5.322728729E1	-2.839899826E1
8.396340209E0	1.681738091E1	6.904032135E1	-2.275153732E1
8.404423939E0	1.414171314E1	6.899211121E1	-5.008733273E0
8.412555632E0	1.278783512E1	6.892640686E1	7.604789257E0
8.420780632E0	8.682525635E0	6.697315979E1	1.145413303E1
8.428899747E0	8.967136383E0	3.809445572E1	9.793276787E0
8.437032862E0	5.378558636E0	1.671294212E1	2.745980501E0
8.445121362E0	2.514981270E0	8.094516754E0	2.466257572E0
8.453242670E0	1.174895763E0	3.908230782E0	2.376633644E0
8.461345170E0	3.136934638E-1	1.604269981E0	9.124714732E-1
8.469466285E0	-1.496852636E-1	-4.067859650E-1	-3.173133135E-1
8.477587747E0	-3.182790577E-1	-2.393539429E0	-9.580870271E-1
8.485689055E0	-4.180614650E-1	-4.048013210E0	-1.215218306E0
8.493809170E0	-2.697187066E-1	-5.669704437E0	-1.550441265E0
8.502031208E0	-1.841813922E-1	-7.452942848E0	-1.636739254E0
8.510166131E0	1.250289381E-1	-8.612781525E0	-1.237736940E0
8.518284977E0	2.106286585E-1	-9.822137833E0	-1.202470064E0
8.526371631E0	1.643809974E-1	-1.064088726E1	-1.256447911E0
8.534505593E0	7.812835276E-2	-1.124362946E1	-1.224308491E0
8.542636977E0	-3.723227978E-2	-1.167148781E1	-1.360095263E0
8.550755170E0	-9.148937464E-2	-1.193664932E1	-1.700504065E0
8.558889554E0	-1.098252237E-1	-1.180691528E1	-1.873778105E0
8.566977285E0	-1.711576581E-1	-1.166076851E1	-1.964435577E0
8.575095939E0	-2.592313588E-1	-1.149570465E1	-2.002341032E0
8.583306862E0	-1.411443949E-2	-1.119673443E1	-1.780817747E0
8.591428593E0	2.369140238E-1	-1.120437908E1	-1.576761246E0
8.599554746E0	3.507993519E-1	-1.119296455E1	-1.405695677E0
8.607657593E0	2.535273135E-1	-1.097093105E1	-1.199515104E0
8.615778516E0	8.719342202E-2	-1.094526672E1	-1.187578201E0
8.623912900E0	9.954232723E-2	-1.080218601E1	-8.970801830E-1
8.632029669E0	-7.548721135E-2	-1.091504478E1	-7.120156288E-1
8.640150746E0	1.330246031E-1	-1.160052776E1	2.685070038E-3
8.648238131E0	-3.736264110E-1	-1.146255016E1	-2.582772970E-1
8.656372862E0	-6.108852625E-1	-1.159827709E1	-5.686008930E-1
8.664479708E0	-1.078141928E0	-1.180916119E1	-9.518746138E-1
8.672599092E0	-1.190341711E0	-1.313513279E1	1.124791145E0
8.680735285E0	-1.497563481E0	-1.606662750E1	5.425104141E0
8.688823131E0	-1.251222014E0	-1.602417946E1	6.506402969E0
8.696943361E0	-1.005272746E0	-1.620583344E1	3.728703022E0
8.705032400E0	-1.526304722E0	-1.636918068E1	5.145748854E-1
8.713133246E0	-2.522889614E0	-1.628608513E1	-2.132944107E0
8.721252438E0	-2.955562115E0	-1.594962502E1	-3.923830986E0
8.729355631E0	-2.849629164E0	-1.580410194E1	-4.895397186E0
8.737477477E0	-2.424148083E0	-1.564308167E1	-5.256973267E0
8.745587361E0	-2.710685253E0	-1.531631374E1	-4.299271107E0
8.753693130E0	-3.581794262E0	-1.496745300E1	-2.881041288E0
8.761813130E0	-3.987500668E0	-1.453346634E1	-2.130171299E0
8.769901515E0	-4.390211105E0	-1.386526108E1	-1.838936806E0
8.778037323E0	-4.766838074E0	-1.216256332E1	-2.606195450E0
8.786170515E0	-5.477432251E0	-9.941433907E0	-1.994771481E0
8.794272284E0	-5.586936951E0	-1.168126011E1	5.224738121E0
8.802406938E0	-6.201223373E0	-1.107807541E1	7.184204578E0
8.810511323E0	-9.701740265E0	9.899549484E-1	1.365015697E1
8.818632399E0	7.909757137E0	7.399919510E0	-1.236714077E1
8.826726515E0	5.516070366E0	-9.480680466E0	-2.443456650E0
8.834846053E0	7.294722080E0	-3.921329975E0	1.795211196E0
8.842965938E0	9.605012894E0	6.331841469E0	1.535522747E1
8.851044015E0	1.299217224E1	1.116913319E1	2.784322357E1
8.859164207E0	7.781415939E0	1.498067379E1	1.445343781E1
8.867294899E0	6.948648453E0	2.505887222E1	-5.324296951E0
8.875408822E0	1.802086067E1	4.570887756E1	-2.470161438E1
8.883526591E0	4.034405899E1	6.445118713E1	-2.306846809E1
8.891630591E0	5.136281204E1	7.046068573E1	-1.303967571E1
8.899765245E0	4.527776718E1	6.946757507E1	-2.513049603E0
8.907872168E0	2.449164391E1	5.328348923E1	9.957057953E0
8.915991861E0	1.643159485E1	3.280581665E1	5.431144714E0
8.924123168E0	1.159200668E1	1.686238861E1	-7.267973423E-1
8.932207053E0	6.277003765E0	8.781544685E0	4.791556597E-1
8.940325668E0	5.256624222E-1	4.704712868E0	3.151283503E0
8.948427937E0	-2.173235893E0	2.121331215E0	5.057652950E0
8.956526168E0	-2.499570370E0	4.506502151E-1	4.346297264E0
8.964643091E0	-2.594087601E0	-1.593054771E0	3.161984921E0
8.972743206E0	-2.966748238E0	-4.405378819E0	1.973613381E0
8.980860899E0	-2.937011242E0	-7.225148201E0	2.696221471E-1
8.988966860E0	-3.082803488E0	-9.313723564E0	-1.329518557E0
8.997101129E0	-2.611794949E0	-1.091420174E1	-2.308665276E0
9.005218822E0	-2.387835741E0	-1.225706100E1	-2.194306612E0
9.013302976E0	-2.241591215E0	-1.360190201E1	-1.655118585E0
9.021434360E0	-2.225543976E0	-1.471832848E1	-1.852746725E0
9.029586976E0	-2.288852215E0	-1.583406258E1	-2.110671997E0
9.037686745E0	-2.455518723E0	-1.622616577E1	-2.372594118E0
9.045802360E0	-2.565951109E0	-1.593755531E1	-2.834911585E0
9.053904091E0	-1.543635845E0	-1.557203674E1	-3.209666014E0
9.062022052E0	-1.578098655E0	-1.506668472E1	-2.999611855E0
9.070120706E0	-2.111493587E0	-1.472729301E1	-2.413396358E0
9.078237668E0	-2.268587112E0	-1.418718815E1	-2.076369047E0
9.086354937E0	-2.464846611E0	-1.373101425E1	-1.790337563E0
9.094456514E0	-2.550892353E0	-1.352842903E1	-1.358361006E0
9.102574937E0	-2.869612217E0	-1.364145470E1	-1.086489439E0
9.110785244E0	-3.110478878E0	-1.359966278E1	-9.900717735E-1
9.118918706E0	-3.198413849E0	-1.364204407E1	-1.016547918E0
9.127036975E0	-3.198998451E0	-1.376120853E1	-1.003008604E0
9.135139283E0	-3.168103456E0	-1.400747871E1	-1.146467805E0
9.143273898E0	-3.372354031E0	-1.417966843E1	-1.523145080E0
9.151393552E0	-3.161790371E0	-1.414813995E1	-1.741325021E0
9.159513283E0	-2.623598814E0	-1.412886238E1	-1.810272336E0
9.167647283E0	-2.383733511E0	-1.407940292E1	-1.717690706E0
9.175732129E0	-2.295403242E0	-1.392786884E1	-1.728251219E0
9.183850052E0	-2.309649467E0	-1.362649345E1	-1.796055079E0
9.192033706E0	-2.510174036E0	-1.312376404E1	-1.918179393E0
9.200153975E0	-2.873415947E0	-1.256967735E1	-2.161119938E0
9.208254206E0	-3.373214722E0	-1.208407021E1	-2.572265148E0
9.216370667E0	-3.756262541E0	-1.181292152E1	-2.933082104E0
9.224456782E0	-4.106981754E0	-1.179368782E1	-3.299385548E0
9.232567129E0	-4.376476288E0	-1.177612877E1	-3.540380239E0
9.240667013E0	-4.581550598E0	-1.147056198E1	-3.814918518E0
9.248784859E0	-4.831529140E0	-1.086983299E1	-4.122849941E0
9.256870552E0	-5.061358452E0	-1.033430386E1	-4.179020882E0
9.265004244E0	-5.172469139E0	-9.860021591E0	-3.918600082E0
9.273221090E0	-5.312682629E0	-9.379355431E0	-3.343417645E0
9.281340744E0	-5.378489971E0	-8.798323631E0	-2.744799852E0
9.289474667E0	-5.578335762E0	-7.517079353E0	-1.791882515E0
9.297578628E0	-5.376183510E0	-6.352115631E0	3.064849377E-1
9.305700090E0	-5.004863262E0	-4.341422558E0	4.340643406E0
9.313783051E0	-4.228402138E0	4.474515915E0	1.534898567E1
9.321903167E0	-2.291827202E-1	1.053373718E1	2.236510658E1
9.330023667E0	8.025894165E0	1.418519974E1	1.877292252E1
9.338126667E0	3.133694077E1	2.867184448E1	6.187709808E0
9.346246051E0	5.381154251E1	4.784870529E1	3.009316444E0
9.354472436E0	4.581061172E1	5.799638748E1	-1.596764445E0
9.362608513E0	2.753656769E1	6.396422195E1	-1.374158978E0
9.370728090E0	1.589130020E1	6.911509705E1	1.725880027E0
9.378832128E0	1.088553429E1	6.128371429E1	2.623740196E0
9.386967282E0	1.443918514E1	3.817453003E1	2.542022228E0
9.395086320E0	1.311469841E1	2.184046555E1	2.176910639E0
9.403205474E0	1.079737663E1	1.169553089E1	1.593010664E0
9.411340013E0	7.736445427E0	5.533249855E0	1.414644480E0
9.419425974E0	5.814088345E0	1.515040398E0	1.229830027E0
9.427543397E0	3.922549725E0	-1.196499348E0	6.996281147E-1
9.435655320E0	1.885208845E0	-3.527250767E0	3.716000319E-1
9.443755859E0	2.224323750E-1	-5.612123489E0	-3.905504346E-1
9.451875589E0	-9.313688278E-1	-7.124015331E0	-7.236952782E-1
9.459978358E0	-1.785968542E0	-8.471019745E0	-8.888409138E-1
9.468097474E0	-1.996086597E0	-9.520461082E0	-1.044342399E0
9.476208628E0	-2.441534042E0	-1.029435921E1	-1.064335585E0
9.484343320E0	-2.902087927E0	-1.103460979E1	-1.170932293E0
9.492463435E0	-3.235183239E0	-1.166178608E1	-1.286230922E0
9.500553589E0	-3.600621223E0	-1.207548523E1	-1.519085646E0
9.508689974E0	-3.767778397E0	-1.208646774E1	-1.885015726E0
9.516922781E0	-3.700558901E0	-1.202802277E1	-2.103478432E0
9.525044320E0	-3.723929882E0	-1.178337479E1	-2.293032169E0
9.533179435E0	-4.019570827E0	-1.158007050E1	-2.255697966E0
9.541282474E0	-3.940017700E0	-1.132435608E1	-2.124454498E0
9.549382781E0	-3.655184984E0	-1.098347282E1	-2.105750561E0
9.557464627E0	-3.543608904E0	-1.083891296E1	-1.991910458E0
9.565584589E0	-3.428467751E0	-1.081707478E1	-1.800110579E0
9.573704397E0	-3.617894888E0	-1.083693790E1	-1.507896185E0
9.581804858E0	-3.602973700E0	-1.075522041E1	-1.145271659E0
9.589921935E0	-3.389024019E0	-1.111584663E1	-3.483983874E-1
9.598160781E0	-3.408090591E0	-1.131751728E1	4.419680834E-1
9.606293089E0	-4.012355328E0	-1.106355286E1	1.022120357E0
9.614411243E0	-4.787137032E0	-1.066777325E1	1.465851068E0
9.622514435E0	-4.529134750E0	-1.016252518E1	1.397539496E0
9.630646589E0	-4.468541145E0	-9.980117798E0	8.692276478E-1
9.638766665E0	-4.740294933E0	-9.976812363E0	2.781054974E-1
9.646885935E0	-4.888754845E0	-1.014185524E1	9.508872032E-2
9.655019435E0	-4.967027664E0	-1.030790329E1	-1.365188956E-1
9.663105858E0	-5.116552830E0	-1.034674835E1	-3.314908147E-1
9.671192896E0	-5.373154640E0	-1.049186897E1	-4.776373804E-1
9.679406896E0	-5.590205669E0	-1.054830456E1	-6.224094629E-1
9.687526473E0	-5.707003117E0	-1.054246330E1	-7.138386369E-1
9.695627896E0	-5.835627556E0	-1.050679970E1	-8.526772857E-1
9.711864511E0	-6.272868156E0	-1.047908211E1	-1.101504326E0
9.719977011E0	-6.372957230E0	-1.043942165E1	-1.214491606E0
9.728111357E0	-6.585064888E0	-1.028421974E1	-1.385133147E0
9.736228819E0	-6.709705353E0	-9.825338364E0	-1.623201132E0
9.744315780E0	-7.088302612E0	-9.450718880E0	-1.936139345E0
9.752451204E0	-6.461380005E0	-9.143796921E0	-1.442646623E0
9.760665127E0	2.439363670E1	-1.542821121E1	-3.692059708E1
9.768717434E0	5.081013107E1	1.902389908E1	-4.999225235E1
9.776832396E0	3.142380333E1	1.681847000E1	2.889958763E1
9.784934242E0	1.309085655E1	1.350118160E1	2.045895576E1
9.793040626E0	-3.363998890E0	6.979343414E0	1.742008209E1
9.801152588E0	-9.154836655E0	7.722041130E0	1.699907303E1
9.809350203E0	-1.096389771E1	1.278240490E1	1.860522842E1
9.817452088E0	-1.104019737E1	2.065591812E1	1.624814606E1
9.825665896E0	-4.707987309E0	3.203868866E1	2.128410578E0
9.833864165E0	5.741155148E0	4.203006744E1	-1.168842125E1
9.850120703E0	2.143359375E1	5.302959442E1	-1.573106861E1
9.858206588E0	2.662105560E1	4.656433868E1	-9.860968590E0
9.866291857E0	2.393749237E1	3.555281830E1	-2.582174778E0
9.874423588E0	1.428872681E1	2.550260162E1	1.290147305E0
9.882541895E0	7.397470474E0	1.707911682E1	4.747822762E0
9.890738780E0	3.873475552E0	5.739383698E0	9.267227173E0
9.898952395E0	1.265293121E0	-3.859615326E-2	5.413022041E0
9.907054626E0	-1.569652557E-1	-2.155816078E0	3.638071060E0
9.915251934E0	-1.378118753E0	-2.878031254E0	3.107906342E0
9.923352972E0	-2.297623396E0	-3.827734470E0	2.579250813E0
9.931464587E0	-2.606177092E0	-4.481979370E0	1.931426406E0
9.939584357E0	-2.858165503E0	-5.749525070E0	1.560738921E0
9.947684549E0	-2.900075674E0	-7.514835358E0	1.175479889E0
9.955803126E0	-2.573092222E0	-8.716491699E0	4.335955083E-1
9.963932164E0	-2.401351452E0	-9.658276558E0	-2.054494321E-1
9.972146472E0	-2.084495068E0	-1.052130508E1	-3.808656335E-1
9.980347549E0	-1.900489092E0	-1.148837471E1	-2.572676837E-1
9.988452087E0	-1.667917967E0	-1.275663471E1	-6.081814170E-1
9.996667087E0	-1.856899500E0	-1.356305504E1	-1.305284739E0
1.000478201E1	-1.772782803E0	-1.440287209E1	-2.057177067E0
1.001290213E1	-1.545520306E0	-1.476890945E1	-2.634330988E0
1.002103778E1	-1.348433256E0	-1.477157784E1	-2.943699121E0
1.002912586E1	-1.311705351E0	-1.467694569E1	-2.836141586E0
1.003721213E1	-1.664279699E0	-1.449475193E1	-2.658325195E0
1.004540655E1	-1.267441511E0	-1.426105881E1	-2.708600998E0
1.005360628E1	-1.362315178E0	-1.426841927E1	-2.652149200E0
1.006180647E1	-1.570826530E0	-1.423380566E1	-2.279744625E0
1.007002024E1	-1.797854900E0	-1.387923050E1	-1.957914591E0
1.007821943E1	-2.399710894E0	-1.359959316E1	-1.688463688E0
1.008634243E1	-2.572529793E0	-1.327261925E1	-1.612749696E0
1.009447547E1	-1.944818258E0	-1.294021034E1	-1.555891156E0
1.010259266E1	-2.205528736E0	-1.287911224E1	-1.390779257E0
1.011067893E1	-2.390497208E0	-1.279023075E1	-1.335774660E0
1.011881420E1	-2.803546190E0	-1.271375561E1	-1.388664961E0
1.012704797E1	-2.413704872E0	-1.247906876E1	-1.391079664E0
1.013524809E1	-2.086982727E0	-1.234663677E1	-1.134847999E0
1.014336316E1	-2.009045601E0	-1.210957241E1	-8.525791168E-1
1.015156474E1	-2.181330442E0	-1.170389748E1	-8.395773172E-1
1.015976866E1	-2.519407988E0	-1.130787945E1	-1.143873811E0
1.016787355E1	-2.807251692E0	-1.116059780E1	-1.601363659E0
1.017599428E1	-2.987511158E0	-1.118659592E1	-2.321599960E0
1.018411386E1	-2.987218142E0	-1.130579758E1	-3.198421717E0
1.019221443E1	-3.062392950E0	-1.142493725E1	-3.720951319E0
1.020033293E1	-3.027943134E0	-1.130346012E1	-4.313940048E0
1.020854251E1	-2.881098270E0	-1.077108192E1	-4.905756950E0
1.021675470E1	-2.921299458E0	-1.025716019E1	-5.220861435E0
1.022485478E1	-3.149582863E0	-9.772520065E0	-4.984526634E0
1.023305336E1	-3.593771935E0	-9.297644615E0	-4.484998703E0
1.024126782E1	-3.917642832E0	-8.744039536E0	-4.134318829E0
1.024937670E1	-3.691385508E0	-8.261715889E0	-4.241565704E0
1.025746224E1	-2.778445005E0	-7.797953129E0	-4.511161804E0
1.026559563E1	-1.496221066E0	-6.833745003E0	-4.819979191E0
1.027368416E1	-4.197199345E-1	-2.785531521E0	1.023925400E1
1.028180532E1	1.455839634E0	1.131742477E1	3.431683731E1
1.029000924E1	1.032856274E1	2.008679390E1	8.173836708E0
1.029821066E1	3.210180664E1	4.933415222E1	-1.406074524E1
1.030641228E1	3.588204956E1	6.627486420E1	3.605382919E0
1.031462828E1	3.191536140E1	7.005169678E1	9.766918182E0
1.032282878E1	2.825752258E1	6.991004181E1	3.955852509E0
1.033093674E1	2.158084869E1	6.292597580E1	5.238495827E0
1.033907174E1	1.636557579E1	3.856434250E1	4.187921524E0
1.034719074E1	1.314397430E1	2.195117760E1	2.302574635E0
1.035527643E1	9.711790085E0	1.253530693E1	1.988568902E0
1.036341020E1	6.151504993E0	6.638629913E0	3.913083076E-1
1.037151682E1	3.969142675E0	3.791980743E0	-8.570761085E-1
1.037971555E1	1.589254618E0	2.441623688E0	-1.305200815E0
1.038792882E1	-9.874176979E-2	1.342269897E0	-1.318859100E0
1.039602959E1	-1.256288767E0	3.576087952E-1	-1.224430323E0
1.040422843E1	-2.129652023E0	-8.581724167E-1	-1.236036539E0
1.041231209E1	-2.880132914E0	-2.140720367E0	-1.658567071E0
1.042043162E1	-3.152700186E0	-3.417387962E0	-2.052084923E0
1.042855036E1	-3.197841167E0	-4.656862259E0	-2.216812611E0
1.043665139E1	-3.460760355E0	-5.887420177E0	-2.404024839E0
1.044477008E1	-3.386601210E0	-6.901550770E0	-2.491219282E0
1.045299682E1	-3.679818392E0	-7.860405445E0	-2.568666458E0
1.046121124E1	-3.814885855E0	-8.476433754E0	-2.764677763E0
1.046931205E1	-3.914931774E0	-8.976821899E0	-2.956998825E0
1.047751151E1	-3.862340927E0	-9.160563469E0	-2.992438793E0
1.048572482E1	-3.699426651E0	-9.470871925E0	-2.887002468E0
1.049385355E1	-3.671174526E0	-9.613972664E0	-2.803068161E0
1.050196982E1	-3.592326641E0	-9.762650490E0	-2.595489502E0
1.051010074E1	-3.642256260E0	-1.005360126E1	-2.544972420E0
1.051818409E1	-3.698691368E0	-1.017802429E1	-2.270820141E0
1.052630251E1	-3.742929935E0	-1.033695984E1	-2.016624451E0
1.053440774E1	-3.782397270E0	-1.045368099E1	-1.749061823E0
1.054260789E1	-3.866382360E0	-1.052776527E1	-1.668931007E0
1.055080682E1	-3.784100533E0	-1.060222435E1	-1.587655783E0
1.055901985E1	-3.757666826E0	-1.104050541E1	-1.624820232E0
1.056721824E1	-3.372018814E0	-1.200453281E1	-4.545855522E-2
1.057532355E1	-3.712034225E0	-1.250237083E1	8.800202608E-1
1.058342305E1	-3.925683022E0	-1.238366985E1	5.507044792E-1
1.059150916E1	-4.055653572E0	-1.208053303E1	3.331220150E-2
1.059959470E1	-4.030943394E0	-1.185916138E1	-7.463073730E-2
1.060772682E1	-3.997838020E0	-1.167022419E1	-1.387202740E-1
1.061594258E1	-3.947713852E0	-1.147126198E1	-2.307099104E-1
1.062414085E1	-4.037514210E0	-1.139689350E1	-3.288367987E-1
1.063235370E1	-4.107555866E0	-1.141828632E1	-4.256012440E-1
1.064055135E1	-4.295340538E0	-1.139780998E1	-6.548759341E-1
1.064874878E1	-4.405726910E0	-1.130307770E1	-8.416845798E-1
1.065685078E1	-4.491369247E0	-1.125563717E1	-8.236442804E-1
1.066496785E1	-4.600081921E0	-1.129244518E1	-7.439631224E-1
1.067308143E1	-4.750158787E0	-1.141091251E1	-9.372642040E-1
1.068117716E1	-5.048322678E0	-1.137575531E1	-1.079649091E0
1.068929166E1	-5.197286606E0	-1.141560555E1	-1.209708214E0
1.069751832E1	-5.273584366E0	-1.164673328E1	-1.615831256E0
1.070572912E1	-5.300513268E0	-1.232730865E1	-2.272775650E0
1.071382762E1	-4.731704712E0	-1.346183681E1	-4.256467342E0
1.072202693E1	2.322790337E1	-1.673258209E1	-2.882610130E1
1.073024105E1	1.740124512E1	-1.180998516E1	-7.803026199E0
1.073836416E1	1.582884598E1	1.796204185E1	3.169663048E1
1.074657889E1	1.030972481E1	2.613306999E0	4.019917965E0
1.075480962E1	4.205650806E0	6.631746292E-1	9.099014282E0
1.076296228E1	-1.485285759E-1	-1.065359116E0	9.865575790E0
1.077115035E1	-3.496063471E0	-2.529993057E0	7.765666962E0
1.077923205E1	-4.328619480E0	-3.355368137E0	5.548507214E0
1.078731835E1	-4.193968773E0	-4.321985245E-1	3.717294216E0
1.079543708E1	-2.313117981E0	9.900609970E0	-1.181812644E0
1.080353816E1	3.716582775E0	2.844687271E1	-7.222036362E0
1.081165820E1	7.317108631E0	5.271128464E1	-1.675156784E1
1.081978997E1	5.626040459E0	6.903224182E1	-1.828225136E1
1.082799297E1	5.656212330E0	6.898526001E1	-1.099075031E1
1.083620670E1	6.052749634E0	6.894810486E1	-1.443755507E0
1.084439655E1	7.629153252E0	5.716817474E1	4.927503109E0
1.085262678E1	5.847663879E0	3.121742058E1	7.765053749E0
1.086073654E1	3.083172321E0	1.580025578E1	2.605906010E0
1.086885482E1	1.564482331E0	8.100878716E0	1.948032498E0
1.087695447E1	5.130895376E-1	3.035114288E0	1.982858181E0
1.088504004E1	-4.134020805E-1	6.079816818E-1	1.885487676E0
1.089315824E1	-7.831966281E-1	-1.175864220E0	1.471262455E0
1.090124774E1	-7.618997693E-1	-2.971808434E0	1.113097668E0
1.090943801E1	-5.055053234E-1	-5.023653030E0	1.108468413E0
1.091765435E1	-2.183151245E-1	-6.794145107E0	7.610692382E-1
1.092585978E1	3.054917753E-1	-8.366265297E0	3.029049933E-1
1.093407585E1	6.373822689E-1	-9.640781403E0	-5.791441202E-1
1.094221478E1	8.579860330E-1	-1.040783501E1	-1.279709816E0
1.095034908E1	1.078365684E0	-1.110133266E1	-1.834306240E0
1.095846916E1	1.482562065E0	-1.191792583E1	-2.131153345E0
1.096655493E1	1.470020890E0	-1.237426281E1	-2.057638168E0
1.097468828E1	2.850956678E0	-1.392639637E1	-1.921348572E0
1.098281974E1	3.102918148E0	-1.479345226E1	-2.672440767E0
1.099101008E1	3.601929903E0	-1.551658249E1	-2.948560715E0
1.099923978E1	3.753304958E0	-1.571256733E1	-2.832132816E0
1.100743043E1	3.543905497E0	-1.542921925E1	-2.707437992E0
1.101564435E1	3.377693653E0	-1.540590954E1	-2.567271233E0
1.102373870E1	3.331027985E0	-1.536259460E1	-2.273264885E0
1.103185681E1	3.249445438E0	-1.533985710E1	-1.887878776E0
1.103997489E1	3.054560900E0	-1.524651051E1	-1.562810421E0
1.104807731E1	2.853477001E0	-1.510233307E1	-1.462701321E0
1.105619758E1	2.716671467E0	-1.488081455E1	-1.440505981E0
1.106443466E1	2.818195343E0	-1.480039883E1	-1.494500637E0
1.107266243E1	2.952265024E0	-1.491905022E1	-1.812279224E0
1.108087670E1	3.343591690E0	-1.469332504E1	-1.488427877E0
1.108906708E1	3.718464375E0	-1.454726601E1	-8.500253558E-1
1.109729528E1	3.771182060E0	-1.453627491E1	2.148283720E-1
1.110541966E1	3.504001379E0	-1.465638161E1	1.917518616E0
1.111353854E1	2.235259533E0	-1.445915604E1	3.687940836E0
1.112167120E1	1.387246728E0	-1.370064354E1	2.554160595E0
1.112975793E1	5.905476809E-1	-1.287266350E1	3.606557846E-1
1.113787762E1	2.289867401E-2	-1.252914047E1	-1.527447224E0
1.114609208E1	-1.718339920E-1	-1.240582848E1	-2.931882381E0
1.115430785E1	-7.538175583E-2	-1.238208008E1	-3.649184704E0
1.116252378E1	-2.560956478E-1	-1.221121216E1	-4.324368000E0
1.117075493E1	-7.330744267E-1	-1.194560242E1	-4.689805984E0
1.117897166E1	-1.375591993E0	-1.160664368E1	-5.047911167E0
1.118709351E1	-1.714050293E0	-1.116727257E1	-5.127292633E0
1.119519612E1	-1.581877708E0	-1.060664558E1	-4.979587078E0
1.121142097E1	-1.510518312E0	-9.857735634E0	-3.016350508E0
1.121955601E1	-1.656065106E0	-9.664093018E0	-2.658740520E0
1.122778824E1	-1.763166666E0	-9.511676788E0	-2.451683998E0
1.123597828E1	-1.584788561E0	-9.509954453E0	-2.213831186E0
1.124418308E1	-1.343593717E0	-9.539899826E0	-1.863073349E0
1.125237370E1	-1.159361839E0	-9.363492966E0	-1.231153131E0
1.126056547E1	-1.312536335E1	1.256119728E1	7.584727478E1
1.126867770E1	-6.997275352E0	1.340480232E1	4.492064285E1
1.127679524E1	4.990563393E-1	1.411704254E1	-2.814311504E0
1.128491181E1	5.463243484E0	3.550204468E1	-2.393722916E1
1.129301347E1	1.376217079E1	6.372197723E1	-3.552081680E1
1.130113201E1	1.529818630E1	6.891278076E1	-1.664961433E1
1.130923816E1	1.741274071E1	6.889029694E1	5.651860237E0
1.131744212E1	1.930354881E1	6.885295868E1	1.562099838E1
1.132563174E1	1.020684814E1	6.301219177E1	1.056947708E1
1.133382062E1	6.530901909E0	3.510319901E1	3.448967695E0
1.134202547E1	4.338149071E0	1.963478661E1	5.768415332E-1
1.135013608E1	2.599666834E0	9.928684235E0	-4.765306711E-1
1.135825427E1	8.943846226E-1	4.463636398E0	-6.885147095E-1
1.136635351E1	-2.430024147E-1	6.575965881E-1	-1.286309242E0
1.137443970E1	-6.574275494E-1	-2.148977757E0	-1.626111746E0
1.138255962E1	-8.141238689E-1	-4.861940861E0	-1.624981880E0
1.139064004E1	-9.256281257E-1	-6.837378025E0	-1.875969648E0
1.139882793E1	-6.650540829E-1	-8.485593796E0	-1.682724237E0
1.140701693E1	-7.871426344E-1	-1.014189434E1	-1.902519941E0
1.141522162E1	-5.629769564E-1	-1.120559883E1	-1.794317007E0
1.142341247E1	-6.296530962E-1	-1.199991035E1	-1.960533857E0
1.143153135E1	-4.938184321E-1	-1.230451202E1	-2.019170523E0
1.143966447E1	-4.885276258E-1	-1.242127228E1	-2.164314985E0
1.144778304E1	-3.989019990E-1	-1.214675903E1	-2.532379866E0
1.145586731E1	-2.712385952E-1	-1.183768463E1	-2.654312134E0
1.146399958E1	-2.796583772E-1	-1.171199417E1	-2.664463758E0
1.147223147E1	-2.836215496E-2	-1.139643478E1	-2.338131905E0
1.148041985E1	1.503819823E-1	-1.122900963E1	-1.976136208E0
1.148862335E1	6.505395174E-1	-1.130585957E1	-1.697070956E0
1.149681362E1	8.585665226E-1	-1.124644566E1	-1.426502347E0
1.150500462E1	8.761518598E-1	-1.129505062E1	-1.379317641E0
1.151311581E1	1.073239803E0	-1.135604000E1	-1.003319025E0
1.152123397E1	1.003216147E0	-1.137450218E1	-1.101370096E0
1.152931997E1	9.984982014E-1	-1.128118992E1	-7.314398885E-1
1.153742062E1	9.392045140E-1	-1.132056808E1	-6.553128958E-1
1.154554012E1	8.291091919E-1	-1.155493355E1	-5.836805105E-1
1.155375066E1	5.545371175E-1	-1.184776497E1	-5.919631720E-1
1.156195624E1	5.265931487E-1	-1.238804054E1	-6.963859797E-1
1.157014820E1	5.911716819E-1	-1.444839096E1	2.316084623E0
1.157833762E1	7.938687205E-1	-1.504676056E1	3.753540993E0
1.158654193E1	3.555070758E-1	-1.493086815E1	1.819435716E0
1.159465474E1	-8.696544170E-2	-1.494224644E1	1.894868016E-1
1.160274058E1	-1.060205698E-1	-1.510445786E1	-1.533535242E0
1.161084100E1	-6.622334719E-1	-1.574459648E1	-2.902854204E0
1.161892747E1	-9.281135798E-1	-1.586642075E1	-2.790534258E0
1.162701258E1	-1.376195431E0	-1.549903870E1	-2.253867388E0
1.163509189E1	-2.085119724E0	-1.518368912E1	-2.071866035E0
1.164328058E1	-2.880264997E0	-1.500141525E1	-2.233141422E0
1.165147089E1	-3.759180546E0	-1.515715027E1	-2.054437160E0
1.165967616E1	-4.334199429E0	-1.533368778E1	-1.746163011E0
1.166786658E1	-4.292108059E0	-1.526814270E1	-1.582472563E0
1.167598585E1	-4.320028305E0	-1.485813427E1	-8.628473878E-1
1.168411950E1	-4.546975136E0	-1.406179810E1	1.346938610E-1
1.169223754E1	-4.906763077E0	-1.281328392E1	3.805862665E-1
1.170032304E1	-5.205566406E0	-9.718077660E0	-2.201194763E0
1.170845589E1	-5.688885689E0	-9.041836739E0	2.830401897E0
1.171667366E1	1.810759735E1	3.406676865E1	2.774845123E1
1.172486408E1	5.529911041E1	-5.013370514E-1	-3.065158081E1
1.174125896E1	-3.928209782E0	-2.852945328E-1	-5.994649887E0
1.174944916E1	-5.164927483E0	-2.242232323E0	1.319077015E1
1.175756204E1	-5.990308762E0	-1.408658504E0	2.575566673E1
1.176568243E1	-3.789586067E0	1.847566605E0	2.343955421E1
1.177380266E1	-4.567768097E0	1.024911022E1	3.419056702E1
1.178190512E1	-6.643682957E0	8.907326698E0	2.753559685E1
1.179002554E1	-1.905692577E0	6.412636757E0	5.794983387E0
1.179813089E1	8.112471700E-1	1.673310089E1	-1.162381077E1
1.180633570E1	-2.779398203E0	3.675863647E1	-2.840773010E1
1.181452708E1	-1.415849209E1	5.332594299E1	-3.494611740E1
1.182271685E1	-2.378047752E1	6.193143463E1	-3.128425026E1
1.183092343E1	-2.487788773E1	6.598779297E1	1.225123787E1
1.183903596E1	-1.429115486E1	5.716160583E1	1.912749529E0
1.184715577E1	-4.331468105E0	3.941748810E1	2.339361668E0
1.185529043E1	-9.470670223E-1	2.263687134E1	1.054512310E1
1.186337743E1	1.702616692E0	6.482343674E0	1.812161446E1
1.187149727E1	-9.079906940E-1	6.274003983E-1	1.054016018E1
1.187957616E1	-2.627893925E0	-1.112360954E0	5.978947163E0
1.188776423E1	-2.283099890E0	-1.856293201E0	1.860456228E0
1.189595366E1	-1.140388489E0	-3.065265656E0	-4.611959457E-1
1.190413935E1	-1.851274967E-1	-4.280566692E0	-1.259782791E0
1.191231820E1	5.431015491E-1	-5.422477722E0	-1.700412035E0
1.192043827E1	1.221352220E0	-6.660986900E0	-2.067055941E0
1.193665785E1	2.765477896E0	-8.599988937E0	-3.745190620E0
1.194474412E1	3.381587505E0	-9.424146652E0	-4.106022358E0
1.195287758E1	3.628600359E0	-1.004290199E1	-4.172896862E0
1.196098139E1	4.075372696E0	-1.057950687E1	-3.998141766E0
1.196917058E1	5.079175949E0	-1.121526909E1	-3.621442795E0
1.197737558E1	7.163532257E0	-1.240702057E1	-3.470480919E0
1.198556662E1	6.981875420E0	-1.294212151E1	-3.080212593E0
1.199375727E1	6.816139221E0	-1.309432411E1	-2.887153149E0
1.200187020E1	6.869322300E0	-1.324972534E1	-3.067307472E0
1.200998943E1	6.878913879E0	-1.336956882E1	-3.564766407E0
1.201810696E1	7.013535023E0	-1.392959023E1	-3.599475861E0
1.202620693E1	6.807993889E0	-1.417897320E1	-4.256576061E0
1.203432662E1	4.118453979E0	-1.213943100E1	-2.701961279E0
1.204243466E1	4.784433842E0	-1.268382645E1	-2.416748047E0
1.205063931E1	5.694738388E0	-1.389378738E1	-2.549823284E0
1.205882981E1	7.417173862E0	-1.642116165E1	-7.398720384E-1
1.206702035E1	1.051743698E1	-2.028470230E1	7.052310467E0
1.207522739E1	1.052884769E1	-1.931849480E1	7.945451736E0
1.208334127E1	7.728989601E0	-1.800539398E1	6.849724293E0
1.209146185E1	5.849821091E0	-1.587181759E1	1.966612220E0
1.209956339E1	4.884276390E0	-1.448085785E1	-1.525284410E0
1.210765108E1	4.070784569E0	-1.350367641E1	-3.566984415E0
1.211576939E1	3.032969952E0	-1.285312748E1	-4.503361702E0
1.212398085E1	2.193988323E0	-1.246018505E1	-5.063110352E0
1.213217096E1	1.449939370E0	-1.213836670E1	-5.074474812E0
1.214036116E1	7.064080238E-1	-1.178702259E1	-5.025158405E0
1.214856593E1	1.881968975E-1	-1.141721249E1	-4.888424873E0
1.215675623E1	-2.114312649E-1	-1.102611828E1	-4.788588047E0
1.216486889E1	-5.135545731E-1	-1.062252235E1	-4.499163628E0
1.217307277E1	-6.562044621E-1	-1.017182541E1	-3.964443922E0
1.218126308E1	-1.637022495E-1	-9.722523689E0	-3.372635603E0
1.218945246E1	3.576526642E-1	-9.361824989E0	-2.532185793E0
1.219765519E1	1.670532227E-1	-9.271412849E0	-1.900141001E0
1.220575904E1	6.254243851E-2	-9.332954407E0	-1.693608403E0
1.221387912E1	2.022346258E-1	-9.421382904E0	-1.691049576E0
1.222201369E1	-1.739787936E0	-4.426877499E0	1.453128910E1
1.223010027E1	-8.043851852E0	7.654615402E0	5.049034119E1
1.223821869E1	-9.049812317E0	8.933842659E0	4.554102325E1
1.224630131E1	-3.973087311E0	7.657955170E0	8.048416138E0
1.225449039E1	3.785684705E-2	1.223715878E1	-1.323921299E1
1.226268173E1	-2.334665209E-1	2.788225555E1	-1.862993431E1
1.227088773E1	3.133005619E0	4.781607819E1	-2.346545792E1
1.227907839E1	6.527680397E0	6.687760162E1	-1.514289951E1
1.228718342E1	8.089374542E0	6.879008484E1	3.926166058E0
1.229528477E1	1.133773518E1	6.876097107E1	1.305404186E1
1.230340400E1	6.487883568E0	6.872534943E1	1.269000053E1
1.231149235E1	1.864470840E0	4.034599686E1	7.817780018E0
1.231962785E1	-5.527063459E-2	2.238019562E1	1.738976240E0
1.232786235E1	-1.744775653E0	1.323969555E1	-1.608459949E0
1.233605423E1	-2.281925201E0	7.078960419E0	-2.493045807E0
1.234426039E1	-2.049427748E0	2.995961189E0	-2.200932264E0
1.235244942E1	-1.231734514E0	-7.149200439E-1	-1.635407448E0
1.236063808E1	-3.795785904E-1	-3.441054821E0	-1.329669833E0
1.236872677E1	1.617681980E-1	-5.704458237E0	-8.624014258E-1
1.237684573E1	4.380065203E-1	-7.318522453E0	-9.584617615E-1
1.238496635E1	5.843865871E-1	-8.594678879E0	-1.305706024E0
1.239306866E1	6.094099283E-1	-9.559225082E0	-1.711753726E0
1.240118989E1	7.165633440E-1	-1.038688564E1	-1.938091755E0
1.240943008E1	7.594485283E-1	-1.100343037E1	-2.102841377E0
1.241763292E1	8.610261679E-1	-1.140204144E1	-2.293191910E0
1.242582454E1	1.022693276E0	-1.159482384E1	-2.540866375E0
1.243401489E1	1.027148128E0	-1.165346718E1	-2.708422184E0
1.244222008E1	9.644579291E-1	-1.154496956E1	-2.668899059E0
1.245033346E1	1.038089037E0	-1.130801392E1	-2.671965599E0
1.245845346E1	1.206354976E0	-1.106459045E1	-2.399526596E0
1.246658738E1	1.339477897E0	-1.088688850E1	-2.055618763E0
1.247467666E1	1.384116888E0	-1.072693062E1	-1.737641454E0
1.248279677E1	1.373978734E0	-1.063279152E1	-1.422543287E0
1.249087731E1	1.311105728E0	-1.050891018E1	-1.250537276E0
1.249906727E1	1.128635287E0	-1.036246204E1	-1.166577578E0
1.250725842E1	1.015817285E0	-1.031555367E1	-1.122628689E0
1.251546373E1	9.468895793E-1	-1.029175377E1	-1.104847670E0
1.252365546E1	8.659896851E-1	-1.026674557E1	-1.106847882E0
1.253179527E1	7.960851789E-1	-1.023541832E1	-1.126823545E0
1.253993008E1	7.089219689E-1	-1.020035744E1	-1.162458539E0
1.254804888E1	6.425737143E-1	-1.023744583E1	-1.199753284E0
1.255613508E1	4.667366743E-1	-1.069880676E1	-7.016816735E-1
1.256426958E1	7.208928466E-1	-1.153673935E1	3.083837032E-1
1.257237604E1	9.524890184E-1	-1.221723270E1	1.676804185E0
1.258056681E1	4.065650105E-1	-1.244140148E1	5.478626490E-1
1.258877219E1	-2.231429815E-1	-1.385816002E1	7.701840401E-1
1.259696200E1	3.180392385E-1	-1.532245064E1	3.906161070E0
1.260515054E1	3.736640811E-1	-1.650235939E1	4.178649902E0
1.261324254E1	4.002528489E-1	-1.713432693E1	3.048639774E0
1.262136265E1	-7.553982735E-2	-1.774670029E1	2.759766579E-1
1.262948065E1	-2.238256931E-1	-1.803996658E1	-2.290261269E0
1.263758300E1	-6.606544852E-1	-1.824737167E1	-3.593401194E0
1.264567069E1	-2.057296991E0	-1.809171867E1	-3.071689367E0
1.265388385E1	-3.644771576E0	-1.709032822E1	-1.165043354E0
1.266208796E1	-3.983697891E0	-1.532917404E1	9.134745002E-1
1.267027750E1	-4.685230255E0	-1.317062283E1	1.751077056E0
1.267846892E1	-6.331776619E0	-7.470870972E0	-2.283319950E0
1.268667662E1	-5.217901707E0	-1.298042965E1	6.051928520E0
1.269479219E1	2.228917599E0	6.678435326E0	4.327447891E1
1.270288015E1	-4.335972786E0	-8.667035103E0	-3.551726818E0
1.271101631E1	9.688501358E-1	2.020329475E0	-1.520704269E1
1.271910377E1	2.376971483E0	-4.279670715E0	-3.099890232E0
1.272719254E1	6.203618526E0	-5.806957245E0	-1.557048559E-1
1.273527888E1	3.786130667E0	4.135747910E0	6.185901642E0
1.274347219E1	4.062496185E0	8.389745712E0	1.466723919E1
1.275166419E1	2.279700518E0	1.750114059E1	1.288854980E1
1.275987069E1	6.454581261E0	4.267662048E1	4.396008253E-1
1.276806381E1	1.503405952E1	6.876609802E1	-1.544566727E1
1.277617081E1	9.341133118E0	6.879395294E1	-1.687015152E1
1.278430588E1	-5.038324833E0	6.871119690E1	-1.718991089E1
1.279239335E1	-1.587932968E1	6.866655731E1	-1.001953697E1
1.280047954E1	-3.816996574E0	5.282893372E1	2.640872478E0
1.280861123E1	2.318913937E0	2.749590683E1	9.219793320E0
1.281681954E1	1.006276369E0	1.334908485E1	6.880837917E0
1.282501046E1	8.959535360E-1	5.579662323E0	5.638988495E0
1.283321650E1	1.043538570E0	8.188295364E-1	3.819170713E0
1.284140569E1	1.134471059E0	-1.402496338E0	5.332851410E-1
1.284959619E1	1.369579196E0	-2.664051056E0	-1.568343163E0
1.285770800E1	1.774371862E0	-4.261269093E0	-2.037866116E0
1.286579292E1	1.963900685E0	-5.887160301E0	-1.457862616E0
1.287387881E1	2.049376249E0	-7.168570518E0	-7.464537621E-1
1.288198162E1	2.526307583E0	-8.516743660E0	-1.953388453E-1
1.289006923E1	3.577163219E0	-9.855982780E0	-2.318719625E-1
1.289829765E1	4.139604568E0	-1.081934166E1	-8.684231639E-1
1.290650273E1	5.383535385E0	-1.216009331E1	-1.405009747E0
1.291469296E1	6.250007629E0	-1.330498314E1	-1.137198091E0
1.292288119E1	6.386836052E0	-1.354753399E1	-1.553945780E0
1.293108442E1	5.520628452E0	-1.333357716E1	-2.754280090E0
1.293919619E1	4.078206062E0	-1.220911789E1	-3.062716722E0
1.294731508E1	3.584409237E0	-1.163795471E1	-2.493196011E0
1.295541431E1	3.622535467E0	-1.165563583E1	-2.144462109E0
1.296349792E1	4.276039124E0	-1.214893150E1	-2.004902363E0
1.297161569E1	4.601054192E0	-1.286507130E1	-2.250686169E0
1.297969515E1	4.462738514E0	-1.312073708E1	-1.996999383E0
1.298788261E1	4.470146656E0	-1.353844261E1	-1.740858197E0
1.299607084E1	4.403716087E0	-1.397909641E1	-1.659679174E0
1.300427492E1	4.216915131E0	-1.412187386E1	-1.538406968E0
1.301246208E1	4.535866737E0	-1.485975647E1	-2.045096397E0
1.302059823E1	4.972095966E0	-1.575366402E1	-2.121378660E0
1.302872900E1	6.198777199E0	-1.612559128E1	-2.239109755E0
1.303684569E1	7.311735153E0	-1.630904770E1	-1.913288474E0
1.304493081E1	7.955013275E0	-1.658040619E1	-1.186451674E0
1.305306361E1	7.245385170E0	-1.634519386E1	-2.919409275E-1
1.306126061E1	5.454055786E0	-1.582461739E1	6.327242851E-1
1.306945027E1	3.276282549E0	-1.512917233E1	1.344874620E0
1.307765296E1	1.991260648E0	-1.434293556E1	9.684346914E-1
1.308584350E1	1.263792515E0	-1.371996498E1	-1.251664162E-1
1.309403408E1	9.489823580E-1	-1.329487038E1	-1.475401640E0
1.310214446E1	3.595832586E-1	-1.298652267E1	-2.184280396E0
1.311026384E1	-1.572160721E-1	-1.275053692E1	-2.734808445E0
1.311838269E1	-7.123818398E-1	-1.237183571E1	-3.401932240E0
1.312648208E1	-1.018869400E0	-1.201768494E1	-3.710806847E0
1.313459919E1	-9.710674286E-1	-1.150066566E1	-3.647346020E0
1.314281015E1	-1.337978840E0	-1.100163651E1	-3.374746799E0
1.315101284E1	-1.419761419E0	-1.048274708E1	-2.711964130E0
1.315920211E1	-1.375537634E0	-9.932134628E0	-1.874436021E0
1.316738931E1	-1.312171459E0	-9.492952347E0	-1.641486883E0
1.317559231E1	-1.075232983E0	-9.420920372E0	-1.652514219E0
1.318370434E1	-6.465759873E-1	-9.539424896E0	-1.287163615E0
1.319182273E1	-4.971773624E-1	-8.966139793E0	-4.592466354E-1
1.319995588E1	-3.490301132E0	-1.803855896E-1	1.728572845E1
1.320804115E1	-7.790716648E0	9.082942963E0	5.114498138E1
1.321615615E1	-6.719233513E0	1.149782467E1	3.687542725E1
1.322423419E1	-1.681904793E0	1.262031269E1	2.826351404E0
1.323241965E1	5.122207642E0	2.974974823E1	-1.414496613E1
1.324060988E1	6.878801346E0	5.474150085E1	-2.548642731E1
1.324881281E1	1.014497089E1	6.885407257E1	-2.548711777E1
1.325700092E1	9.981958389E0	6.883255768E1	1.616140127E0
1.326510627E1	8.524904251E0	6.879449463E1	1.392559147E1
1.327320373E1	2.364925385E0	6.875962830E1	1.188065052E1
1.328131946E1	2.710464478E0	3.691571045E1	5.230893612E0
1.328940423E1	1.380125284E0	1.948912430E1	2.077664375E0
1.329753915E1	9.399813414E-2	1.038315773E1	-3.966252804E-1
1.330577834E1	-4.861573577E-1	4.489415169E0	-1.835142612E0
1.331396684E1	-7.042980194E-1	5.797357559E-1	-2.479077578E0
1.332217023E1	-5.380194187E-1	-2.946950436E0	-2.625075579E0
1.333036042E1	-4.136568010E-1	-6.087790489E0	-2.308161497E0
1.333854927E1	-1.837681234E-1	-8.390335083E0	-1.840969682E0
1.334665973E1	-6.873452663E-2	-1.000618076E1	-1.848982096E0
1.335477784E1	8.643966913E-2	-1.124827290E1	-1.816083670E0
1.336286342E1	3.018175960E-1	-1.193895435E1	-1.812655807E0
1.337096177E1	4.761465490E-1	-1.215862083E1	-1.650877714E0
1.337907784E1	6.071504354E-1	-1.202310467E1	-1.800459385E0
1.338731480E1	6.959422827E-1	-1.171954155E1	-1.912259340E0
1.339551723E1	1.019014597E0	-1.175606728E1	-2.427874565E0
1.340370561E1	9.316060543E-1	-1.141557407E1	-2.472304821E0
1.341189357E1	1.158887744E0	-1.110670471E1	-2.372864723E0
1.342009769E1	9.871654510E-1	-1.100074577E1	-2.183945179E0
1.342820773E1	1.137218595E0	-1.075546646E1	-1.744199276E0
1.343632238E1	1.412178278E0	-1.068471336E1	-1.600152135E0
1.344445254E1	2.537022591E0	-1.165027237E1	-1.258451223E0
1.345253650E1	2.738262892E0	-1.239029694E1	-1.179124832E0
1.346065500E1	2.510137081E0	-1.253609180E1	-1.279426098E0
1.346873200E1	2.504625797E0	-1.264551830E1	-1.103285789E0
1.347691892E1	2.264693260E0	-1.309933472E1	-1.056433082E0
1.348510734E1	1.992651224E0	-1.369180870E1	-8.030308485E-1
1.349330961E1	2.073570728E0	-1.452214050E1	2.071406841E-1
1.350149773E1	4.062494278E0	-1.662715912E1	5.568108559E0
1.350963365E1	5.570621967E0	-1.727604866E1	6.356510639E0
1.351776623E1	4.468097210E0	-1.745098495E1	4.575225353E0
1.352588161E1	2.279242277E0	-1.662159729E1	1.316527367E0
1.353396569E1	1.204303026E0	-1.633067703E1	-4.244118333E-1
1.354206473E1	8.361939788E-1	-1.625579834E1	-1.580210805E0
1.355028000E1	5.649187565E-1	-1.619356155E1	-1.722018480E0
1.355846842E1	-1.925251484E-1	-1.620942116E1	-1.332594752E0
1.356667184E1	-1.010873914E0	-1.596186543E1	-6.966580749E-1
1.357486046E1	-1.636985183E0	-1.577004623E1	-6.273330450E-1
1.358304704E1	-2.251594067E0	-1.587091637E1	-1.053454518E0
1.359115704E1	-2.439105511E0	-1.603897095E1	-1.103070974E0
1.359927619E1	-2.700139046E0	-1.581866264E1	-6.455613971E-1
1.360736165E1	-2.805314064E0	-1.498139000E1	8.974605799E-2
1.361546034E1	-3.000669479E0	-1.401203156E1	7.580052018E-1
1.362354338E1	-3.642830849E0	-1.313213825E1	9.661379457E-1
1.363176415E1	-4.142326832E0	-1.151805782E1	-3.422870636E-1
1.363996665E1	3.185691833E0	1.636952209E1	4.028995895E1
1.364815265E1	7.287201881E0	2.472470093E1	-2.604955673E0
1.365634111E1	1.275641799E0	1.787991524E0	-1.471202850E1
1.366454596E1	-4.134949684E0	-4.089775085E0	-1.134146976E1
1.367265757E1	-3.534332037E0	-6.193429470E0	-7.995210171E0
1.368074280E1	-2.531907558E0	-6.222124100E0	-3.433317423E0
1.368887765E1	-1.056015849E0	-5.440331936E0	1.398668170E0
1.369696523E1	-2.851209641E-1	-2.912914276E0	5.619945526E0
1.370505361E1	2.448301077E0	3.401338577E0	2.688104630E1
1.371323646E1	2.576788902E0	7.912454605E0	3.262340927E1
1.372142657E1	7.828927040E-1	1.017112923E1	1.679954720E1
1.372961380E1	5.766145706E0	2.441569138E1	-7.947768211E0
1.373781534E1	1.552648735E1	4.732973480E1	-2.642039871E1
1.374600430E1	1.965602875E1	6.737318420E1	-2.819731140E1
1.375412430E1	1.685529327E1	6.893461609E1	-1.924352074E1
1.376225561E1	1.060401726E1	6.887163544E1	-4.378549099E0
1.377037500E1	8.118930817E0	6.186640549E1	6.436325073E0
1.377846096E1	5.396612167E0	4.287084579E1	8.074934959E0
1.378656092E1	2.905523300E0	2.548133850E1	1.004050541E1
1.379478561E1	7.241692543E-1	1.051474190E1	1.411831951E1
1.380297346E1	-5.393887758E-1	-1.118345261E0	9.989580154E0
1.381117653E1	-2.507994890E0	-4.209822178E0	5.807210445E0
1.381936507E1	-2.914588690E0	-4.020014763E0	3.810325861E-1
1.382755227E1	-2.355842829E0	-4.478052139E0	-2.363124371E0
1.383566046E1	-1.940061808E0	-5.264527798E0	-3.659744263E0
1.384377884E1	-1.345739126E0	-6.415383339E0	-3.656999588E0
1.385189669E1	-8.526922464E-1	-7.952056408E0	-2.837718964E0
1.385999780E1	-5.536994934E-1	-9.220086098E0	-1.775597453E0
1.386811611E1	-2.084573209E-1	-1.018065739E1	-1.135992646E0
1.387632580E1	5.042421818E-1	-1.142319298E1	-6.366174817E-1
1.388453042E1	9.586297870E-1	-1.204994583E1	-2.899793983E-1
1.389272050E1	1.979026556E0	-1.302899170E1	-3.498602509E-1
1.390091069E1	2.569029331E0	-1.393303108E1	-7.489115000E-1
1.390911523E1	3.186444044E0	-1.443271446E1	-1.102377057E0
1.391722765E1	3.525887012E0	-1.473489189E1	-1.350590348E0
1.392534757E1	3.552572012E0	-1.506049252E1	-1.213954687E0
1.393344911E1	3.426217318E0	-1.542476273E1	-1.293190956E0
1.394153434E1	3.542835712E0	-1.590451050E1	-1.310511827E0
1.394965165E1	3.689233541E0	-1.631765556E1	-1.570537806E0
1.395783784E1	3.859510183E0	-1.650578308E1	-1.789737225E0
1.396602669E1	3.974214554E0	-1.655469894E1	-2.008661509E0
1.397421446E1	4.257726192E0	-1.663320541E1	-2.133235931E0
1.398241750E1	4.334188938E0	-1.688651276E1	-2.552823782E0
1.399060688E1	4.737949848E0	-1.670419502E1	-2.823602676E0
1.399871211E1	5.043075562E0	-1.627763367E1	-2.502979279E0
1.400684496E1	4.570845127E0	-1.580782700E1	-1.836036205E0
1.401493088E1	3.705617428E0	-1.541489410E1	-1.188394904E0
1.402301692E1	2.519084215E0	-1.494770432E1	-5.649218559E-1
1.403114800E1	1.431995273E0	-1.445940495E1	-2.297906876E-1
1.403935884E1	3.065992892E-1	-1.389020348E1	-5.451345444E-2
1.404754715E1	-4.411830902E-1	-1.337434578E1	-4.489374161E-1
1.405575053E1	-5.449208021E-1	-1.273916912E1	-1.123409510E0
1.406393819E1	-1.249721527E0	-1.245563793E1	-1.884469271E0
1.407212726E1	-1.614461422E0	-1.223122120E1	-2.599370241E0
1.408024126E1	-1.953327417E0	-1.194789314E1	-3.154277563E0
1.408835988E1	-2.267442703E0	-1.174126816E1	-3.515594006E0
1.409647773E1	-2.393973827E0	-1.161128426E1	-3.667425632E0
1.410457953E1	-2.298136234E0	-1.136746311E1	-3.593892097E0
1.411269873E1	-2.266808748E0	-1.103535461E1	-3.399428368E0
1.412913022E1	-2.449971437E0	-9.564870834E0	-3.607035398E0
1.413732019E1	-2.686348438E0	-9.585884094E0	-1.986737251E0
1.414551161E1	-2.789068937E0	-9.518154144E0	-1.827445507E0
1.415371607E1	-2.646327496E0	-9.404865265E0	-1.727041245E0
1.416182746E1	-2.380908012E0	-9.347486496E0	-1.562452316E0
1.416991269E1	-1.571516275E0	-9.208764076E0	-1.317750335E0
1.417804534E1	-3.774193525E0	-5.138435364E-1	2.242978477E1
1.418613173E1	-6.399182796E0	1.225926876E1	6.328584290E1
1.419425049E1	-4.025316238E-1	6.584161758E0	1.776624107E1
1.420233219E1	4.180471897E0	1.566475105E1	-1.338871574E1
1.421052253E1	8.019979477E0	3.433178711E1	-2.655702972E1
1.421871334E1	1.628570747E1	5.535877228E1	-2.961822891E1
1.422691765E1	1.952312088E1	6.921990967E1	-2.226807976E1
1.423510611E1	3.090615845E1	6.918766022E1	2.630193233E0
1.424320969E1	3.913626099E1	6.911950684E1	1.647205162E1
1.425130861E1	2.041702080E1	6.174068451E1	1.043441772E1
1.425939330E1	7.518443108E0	3.482279968E1	7.621890545E0
1.426747919E1	3.440397739E0	2.119899750E1	2.957424879E0
1.427561269E1	1.812733173E0	1.190820026E1	1.036549568E0
1.428383919E1	9.071996212E-1	5.292607307E0	2.216283083E-1
1.429202869E1	3.115887642E-1	1.256552696E0	-4.780136347E-1
1.430023403E1	-7.937419415E-2	-2.510806084E0	-1.109817147E0
1.430842411E1	-2.901077271E-1	-4.725790977E0	-1.490328670E0
1.431661499E1	-9.157010913E-1	-6.673249722E0	-1.752449036E0
1.432472588E1	-1.149732232E0	-8.153633118E0	-2.107593060E0
1.434093015E1	-1.791946411E0	-1.028916359E1	-2.880016088E0
1.434902838E1	-1.794293404E0	-1.087147903E1	-3.025472164E0
1.435714442E1	-1.941555858E0	-1.148534393E1	-3.103674412E0
1.436536553E1	-2.093081474E0	-1.172747612E1	-3.153923988E0
1.437356707E1	-2.029068708E0	-1.178324127E1	-3.289310694E0
1.438175530E1	-2.184078217E0	-1.176680660E1	-3.352142811E0
1.438994246E1	-2.156060219E0	-1.173130703E1	-3.341895103E0
1.439814476E1	-1.955972433E0	-1.159521198E1	-3.163714170E0
1.440344707E1	-1.743720293E0	-1.144525814E1	-2.865856886E0
1.440626499E1	-1.669500113E0	-1.142131615E1	-2.762906313E0
1.441438149E1	-1.386411190E0	-1.124584007E1	-2.371968269E0
1.442251334E1	-1.174701929E0	-1.116492462E1	-2.079984426E0
1.443059880E1	-1.143956065E0	-1.108799267E1	-1.852827787E0
1.443871703E1	-1.243842125E0	-1.096473122E1	-1.794616342E0
1.444679476E1	-1.148582578E0	-1.084830761E1	-1.520586729E0
1.445498411E1	-1.142448664E0	-1.066184711E1	-1.249225259E0
1.446317311E1	-1.250156164E0	-1.047319603E1	-1.063102722E0
1.447137599E1	-1.294986367E0	-1.034442329E1	-8.871176243E-1
1.447956469E1	-1.292240858E0	-1.029019737E1	-7.194964290E-1
1.448767069E1	-1.430783033E0	-1.030131721E1	-6.136780381E-1
1.449580607E1	-1.759660959E0	-1.054047298E1	-7.373990417E-1
1.450389292E1	-2.090831757E0	-1.133070850E1	-1.159265876E0
1.451197807E1	-2.079917669E0	-1.435638714E1	5.689599514E0
1.452010918E1	-7.063509226E-1	-1.515828323E1	8.824170113E0
1.452834211E1	-5.835258961E-1	-1.500144577E1	7.254109859E0
1.453653119E1	-1.070183277E0	-1.562647057E1	2.591501236E0
1.454473361E1	-1.077248931E0	-1.671939278E1	-1.275829911E0
1.455292165E1	-1.193019390E0	-1.760568428E1	-2.902109146E0
1.456110861E1	-1.562815428E0	-1.845882034E1	-3.292521238E0
1.457730292E1	-3.044909477E0	-1.884625244E1	-2.896914005E0
1.458542068E1	-9.588922501E0	-1.117512321E1	2.456771088E1
1.459352084E1	-6.229881644E-1	-9.903567314E0	-2.505152893E1
1.460163730E1	8.493162155E0	-6.096234322E0	-1.490754604E1
1.460986553E1	3.549232483E0	-9.004749298E0	6.349593401E-1
1.461806976E1	-2.194133520E0	-1.117269993E1	5.326286316E0
1.462625876E1	-5.915001869E0	-1.062005043E1	1.289408112E1
1.463444907E1	-9.536779404E0	-8.775436401E0	9.894472122E0
1.464265219E1	-8.894275665E0	-7.959928513E0	3.570200682E0
1.465077684E1	-4.090896606E0	-7.750840187E0	-1.140297055E0
1.465886134E1	-2.733509064E0	-7.729018688E0	-6.250587702E-1
1.466699288E1	-1.918391228E0	-5.958560944E0	-2.700868845E0
1.467507745E1	1.377182961E0	-1.510860443E0	-3.409392834E-1
1.468319449E1	7.705989838E0	1.548330593E1	2.394433784E1
1.469127842E1	1.466561985E1	3.735125351E1	2.191355705E0
1.469946630E1	1.734023094E1	6.275308609E1	-1.207312775E1
1.470765311E1	1.430063057E1	6.908415985E1	-2.178326797E1
1.471585461E1	1.119927216E1	6.900027466E1	-2.370990372E1
1.472404299E1	7.799344063E0	6.893428040E1	-5.092556953E0
1.473218053E1	8.853872299E0	6.235559845E1	8.466991425E0
1.474031199E1	9.991467476E0	3.475364304E1	2.659802437E1
1.474842949E1	6.118915558E0	8.479556084E0	6.932114601E0
1.475651461E1	2.985766888E0	4.738530159E0	3.527107716E0
1.476461318E1	1.171719790E0	3.260771751E0	4.381166458E0
1.477283149E1	4.779040813E-3	2.120242119E0	3.494466543E0
1.478101799E1	-1.498826444E-1	5.314235687E-1	1.845746040E0
1.478921961E1	-9.278714657E-2	-1.613435745E0	2.212681770E-1
1.479740715E1	2.852500677E-1	-3.745440483E0	-2.818490267E-1
1.480559488E1	3.649006486E-1	-6.026012421E0	-9.003322124E-1
1.481370253E1	6.525615454E-1	-7.660198212E0	-1.145089626E0
1.482178595E1	1.105704784E0	-9.432412148E0	-1.369525671E0
1.482990326E1	1.414508939E0	-1.081966782E1	-1.468023658E0
1.483800234E1	2.120401859E0	-1.225856304E1	-1.796373963E0
1.484611876E1	2.988848686E0	-1.401521778E1	-1.750206947E0
1.485434265E1	3.717771769E0	-1.508653545E1	-1.700324535E0
1.486254538E1	4.045472145E0	-1.590345001E1	-1.889446378E0
1.487073203E1	4.126178741E0	-1.634626579E1	-2.114746809E0
1.487891895E1	4.268488407E0	-1.667835236E1	-2.386692762E0
1.488712164E1	4.188015461E0	-1.676789665E1	-2.607604742E0
1.489523314E1	4.165783405E0	-1.650226784E1	-2.595907211E0
1.490335142E1	4.029064655E0	-1.606565094E1	-2.287336349E0
1.491148326E1	3.913833380E0	-1.554893112E1	-1.927240372E0
1.491957026E1	3.625883102E0	-1.508640289E1	-1.813343048E0
1.492768876E1	3.251998663E0	-1.467075920E1	-1.826776505E0
1.493587253E1	3.151538372E0	-1.440973282E1	-2.050465107E0
1.494406049E1	3.026509762E0	-1.438212776E1	-2.207192898E0
1.495224807E1	2.940214872E0	-1.454721642E1	-2.722962856E0
1.496044914E1	2.793090820E0	-1.473328781E1	-2.763484001E0
1.496863557E1	2.724721909E0	-1.489144516E1	-2.433753490E0
1.497674765E1	2.417940140E0	-1.506114769E1	-2.081864357E0
1.498484891E1	2.075460911E0	-1.508705807E1	-1.914317012E0
1.499296845E1	1.705292940E0	-1.490345955E1	-1.553412914E0
1.500105376E1	1.153429151E0	-1.469964790E1	-1.226876140E0
1.500915268E1	4.890052080E-1	-1.425919151E1	-1.240404129E0
1.501738188E1	3.064929247E-1	-1.377851391E1	-1.383612990E0
1.502557118E1	1.897264719E-1	-1.338933277E1	-1.587037683E0
1.503377672E1	-8.510750532E-2	-1.314117050E1	-1.761602402E0
1.503748122E1	-2.405465841E-1	-1.302860069E1	-1.892626524E0
1.503909849E1	-2.525175810E-1	-1.295916939E1	-1.952481508E0
1.504196734E1	-1.878741384E-1	-1.287297726E1	-2.029095888E0
1.505015688E1	-4.795037806E-1	-1.239693642E1	-2.323651791E0
1.505826595E1	-9.873712063E-1	-1.188391972E1	-2.700897217E0
1.506638364E1	-1.451930761E0	-1.138510895E1	-2.945105314E0
1.507446845E1	-1.732804894E0	-1.099261665E1	-3.032126665E0
1.508256676E1	-2.031402349E0	-1.057283401E1	-2.845938683E0
1.509068299E1	-2.299973249E0	-1.022557259E1	-2.459331751E0
1.509890211E1	-2.488132000E0	-9.897249222E0	-2.145713091E0
1.510710526E1	-2.607077122E0	-9.612245560E0	-1.996394992E0
1.511529218E1	-2.700178146E0	-9.389119148E0	-1.750618219E0
1.512347815E1	-3.615902901E0	-1.576741695E0	-4.304553986E0
1.513168061E1	-5.386105537E0	1.194517231E1	2.222100639E1
1.513979184E1	-6.776583672E0	1.958551788E1	7.039089966E1
1.514790822E1	-3.556948423E0	1.246444988E1	4.830226898E1
1.515604153E1	4.991787910E0	1.496971798E1	-1.244088292E0
1.516412780E1	7.691925526E0	3.593824005E1	-2.138293648E1
1.517221207E1	1.764400101E1	5.757944489E1	-3.179219055E1
1.518029053E1	1.728080559E1	6.939178467E1	-2.018486023E1
1.518847914E1	2.313515472E1	6.933350372E1	3.582727909E-2
1.519666730E1	2.795412827E1	6.923639679E1	1.796028900E1
1.520487211E1	1.874870682E1	5.693750381E1	1.986993599E1
1.521305968E1	8.775845528E0	2.693539810E1	5.540390015E0
1.522116264E1	4.372783661E0	1.526595592E1	4.573462963E0
1.522929534E1	1.942831755E0	9.526960373E0	3.597249985E0
1.523741411E1	2.980465889E-1	5.633673668E0	1.059376478E0
1.524549891E1	-5.571333170E-1	2.380724907E0	-3.642559648E-1
1.525363284E1	-1.081702948E0	-5.827665329E-1	-1.263447523E0
1.526173714E1	-1.079173803E0	-3.062485218E0	-1.348705292E0
1.526992426E1	-1.433006883E0	-5.545097828E0	-1.075538039E0
1.527812907E1	-1.449015856E0	-7.637695312E0	-7.871802449E-1
1.528631968E1	-1.341989636E0	-9.526961327E0	-7.436869144E-1
1.529450876E1	-1.392894983E0	-1.103661537E1	-1.108407497E0
1.530261861E1	-1.412141204E0	-1.204854393E1	-1.295619249E0
1.531073580E1	-1.467135906E0	-1.286460209E1	-1.709113359E0
1.531885411E1	-1.308163524E0	-1.323280144E1	-2.029299259E0
1.532695341E1	-1.569447994E0	-1.342158031E1	-2.351679564E0
1.533503918E1	-1.540030479E0	-1.343061066E1	-2.951033115E0
1.534326449E1	-1.167700529E0	-1.310937691E1	-3.152702332E0
1.535147049E1	-7.759194970E-1	-1.274543762E1	-2.828689575E0
1.535966284E1	-6.168962121E-1	-1.257888126E1	-2.523866653E0
1.536785207E1	-4.278747141E-1	-1.247361279E1	-2.331034184E0
1.537605711E1	-1.657443941E-1	-1.230305862E1	-2.061386585E0
1.538416864E1	-3.405453265E-2	-1.216561222E1	-1.817537069E0
1.539225437E1	7.078853250E-2	-1.187943554E1	-1.563383222E0
1.540038910E1	-1.789250970E-2	-1.156429291E1	-1.331026316E0
1.540847491E1	-1.740168482E-1	-1.146680069E1	-1.450897455E0
1.541656064E1	-2.108025551E-1	-1.125402737E1	-1.256867647E0
1.542464026E1	-2.932593226E-1	-1.120627022E1	-1.051115632E0
1.543283245E1	-3.278533816E-1	-1.111518478E1	-9.684588313E-1
1.544102391E1	-2.968240380E-1	-1.103363991E1	-7.627310753E-1
1.544923087E1	-2.786144018E-1	-1.191156960E1	-1.035866618E0
1.545742299E1	-4.003709257E-1	-1.331266689E1	3.856321573E-1
1.546553099E1	-6.469321847E-1	-1.514835167E1	5.126983166E0
1.547366568E1	-1.372993112E0	-1.526598549E1	4.708750248E0
1.548178753E1	-1.506588578E0	-1.531694603E1	2.797370672E0
1.548987595E1	-1.468100071E0	-1.559437847E1	7.220536470E-1
1.549801041E1	-1.739667296E0	-1.602734375E1	-1.038178682E0
1.550624730E1	-1.865252614E0	-1.628920364E1	-2.102524757E0
1.551443961E1	-2.152542114E0	-1.653744888E1	-2.802401066E0
1.552264710E1	-2.857528925E0	-1.676206589E1	-2.840212822E0
1.553083991E1	-4.256163597E0	-1.689060783E1	-2.561833620E0
1.553903214E1	-5.448432446E0	-1.677786064E1	-2.517620564E0
1.554711949E1	-6.688790321E0	-1.625465393E1	-1.663073778E0
1.555524137E1	-7.471106052E0	-1.549659920E1	-5.363684893E-1
1.556332922E1	-4.728199959E0	-5.297496796E0	1.385205460E1
1.557143045E1	2.121226311E1	3.591387177E1	-3.928656578E0
1.557951653E1	1.545172882E1	1.287414074E1	-2.336845779E1
1.558772776E1	-3.831744909E0	-7.133688927E0	8.140111923E0
1.559593091E1	-9.825791359E0	-9.117295265E0	1.306031895E1
1.560411937E1	-7.863046646E0	-9.035975456E0	1.462423325E1
1.561230799E1	-6.263654709E0	-7.959380150E0	1.449677277E1
1.562051037E1	-4.008072376E0	-8.227459908E0	3.728408813E0
1.562861910E1	-2.072732687E0	-8.189730644E0	-1.127389908E0
1.563670395E1	-2.081017494E0	-7.714613914E0	4.412724972E-1
1.564480437E1	1.824196339E0	3.069481850E0	2.510667992E1
1.565288941E1	9.906822205E0	8.698652267E0	6.081798553E0
1.566100849E1	2.488601303E1	2.114228821E1	-1.542046738E1
1.566908837E1	3.403415680E1	4.706047821E1	-2.386967850E1
1.567727607E1	2.519427872E1	6.809021759E1	-1.509934521E1
1.568546364E1	1.363355064E1	6.905461121E1	-1.080117702E1
1.569366726E1	-4.522479773E-1	6.892936707E1	2.553272009E0
1.570185684E1	-9.017757416E0	6.884840393E1	7.295005798E0
1.570996095E1	2.129415035E0	4.563040161E1	1.374028397E1
1.571809299E1	4.785133839E0	1.700660706E1	6.380116940E0
1.572620895E1	2.583005190E0	9.073847771E0	1.361804366E0
1.573429406E1	1.275774837E0	3.308300972E0	1.999874353E0
1.574242737E1	4.209138751E-1	5.815486908E-1	1.949902058E0
1.575066691E1	6.274282932E-3	-1.359096527E0	3.872707486E-1
1.575885653E1	-5.582988262E-2	-3.083467960E0	-7.607700825E-1
1.576706180E1	-9.179741144E-2	-5.134327888E0	-1.052561760E0
1.577525072E1	2.351320982E-1	-6.758330345E0	-7.322981358E-1
1.578344030E1	5.187764764E-1	-8.421842575E0	-6.483215094E-1
1.579155114E1	7.007055879E-1	-9.990916252E0	-8.781336546E-1
1.579967226E1	7.589632869E-1	-1.118516541E1	-6.829499602E-1
1.580779207E1	9.489096403E-1	-1.175631905E1	-1.029305220E0
1.581589399E1	1.494139314E0	-1.245893288E1	-1.577078700E0
1.582398172E1	2.429498434E0	-1.385844803E1	-1.933879137E0
1.583221391E1	3.052670002E0	-1.487508392E1	-1.891886950E0
1.584042049E1	3.403421164E0	-1.533801079E1	-1.915449142E0
1.584861283E1	3.665326118E0	-1.548851395E1	-2.143126488E0
1.585680522E1	3.781527042E0	-1.582050705E1	-2.471073866E0
1.586501068E1	3.951735735E0	-1.616430283E1	-2.873552561E0
1.587312368E1	3.844476461E0	-1.619896126E1	-2.986956120E0
1.588121349E1	3.844901562E0	-1.624550247E1	-2.449277401E0
1.588934718E1	4.068741322E0	-1.648793983E1	-2.063406944E0
1.589743395E1	3.927710056E0	-1.649800873E1	-2.048613548E0
1.590555253E1	3.799946308E0	-1.650027847E1	-1.863413811E0
1.591377087E1	3.616568804E0	-1.650902748E1	-1.677650690E0
1.592196141E1	3.346308947E0	-1.652176666E1	-1.393075824E0
1.593015145E1	3.212351799E0	-1.629193497E1	-1.210338473E0
1.593835680E1	3.161973476E0	-1.593623352E1	-8.138126135E-1
1.594654791E1	2.560090065E0	-1.566643810E1	-2.069892883E-1
1.595465968E1	1.539661884E0	-1.538857460E1	4.547810555E-2
1.596279480E1	4.857046604E-1	-1.482616806E1	3.028312922E-1
1.597088214E1	-5.705819130E-1	-1.422721004E1	1.738885641E-1
1.597896872E1	-4.515472651E-1	-1.348712921E1	-8.107709289E-1
1.598706999E1	-1.004119158E0	-1.315127182E1	-2.088731527E0
1.599528595E1	-8.534835577E-1	-1.281185532E1	-3.218014240E0
1.600347764E1	-6.959373355E-1	-1.250807476E1	-3.711241722E0
1.601168426E1	-6.501820683E-1	-1.223370266E1	-4.076559067E0
1.601987618E1	-6.041788459E-1	-1.196073532E1	-4.430155754E0
1.602806914E1	-4.759951532E-1	-1.152395535E1	-4.652269363E0
1.603618064E1	-1.195717812E0	-1.116159439E1	-4.517432213E0
1.604426599E1	-1.522967696E0	-1.075724602E1	-3.824153900E0
1.605238595E1	-1.843753338E0	-1.035157681E1	-2.865223646E0
1.606048668E1	-2.202245951E0	-9.947233200E0	-2.140310287E0
1.607680626E1	-2.219928265E0	-9.307909966E0	-1.500446200E0
1.608500972E1	-1.975706100E0	-9.143819809E0	-1.258423686E0
1.609319902E1	-2.201925993E0	-7.136593819E0	6.712387562E0
1.610138895E1	-8.803451538E0	1.845309067E1	7.193927765E1
1.610959487E1	-3.056388855E0	1.239558983E1	4.362331772E1
1.611771010E1	3.576749802E0	8.205152512E0	-4.251695633E0
1.612579937E1	8.373039246E0	2.801110268E1	-2.810808372E1
1.613390491E1	1.957867241E1	5.308403015E1	-4.217862701E1
1.614199483E1	2.500759125E1	6.919837952E1	-7.407369614E0
1.615011510E1	3.293396378E1	6.914962006E1	1.529819393E1
1.615819776E1	3.107734489E1	6.907541656E1	2.175317383E1
1.616638968E1	1.483770084E1	6.584968567E1	9.038404465E0
1.617458241E1	7.475331783E0	3.634309387E1	1.314021230E0
1.618278952E1	4.085500717E0	2.123987961E1	-1.414307117E0
1.619098072E1	1.849071980E0	1.078656101E1	-1.684861183E0
1.619911933E1	1.014424443E0	3.845426559E0	-2.074209690E0
1.620725452E1	4.358551502E-1	-6.864366531E-1	-1.863244891E0
1.621534137E1	8.401644230E-2	-4.103921413E0	-1.345187426E0
1.622342860E1	-3.063393831E-1	-7.175551414E0	-1.324023128E0
1.623152949E1	-2.875677347E-1	-9.296914101E0	-1.099707246E0
1.623976229E1	-6.279553771E-1	-1.116256523E1	-1.431062460E0
1.624795329E1	-7.044096589E-1	-1.283347130E1	-1.292021513E0
1.625615868E1	-7.557440996E-1	-1.398328018E1	-1.451093912E0
1.626434979E1	-6.310860515E-1	-1.467996311E1	-1.584542751E0
1.627254103E1	-1.120970130E0	-1.528330040E1	-2.339718103E0
1.628877345E1	-9.926166534E-1	-1.454527664E1	-3.791323662E0
1.629689395E1	-9.920964241E-1	-1.405777836E1	-3.912688494E0
1.630499718E1	-5.554971695E-1	-1.332605743E1	-3.342718601E0
1.631308449E1	-3.034618497E-1	-1.291574669E1	-2.765366077E0
1.632129976E1	4.862637725E-3	-1.247555542E1	-2.372000456E0
1.632950529E1	1.277987063E-1	-1.213298988E1	-1.998420000E0
1.633769718E1	-6.437076628E-2	-1.210873604E1	-1.955417156E0
1.634588941E1	-7.180647552E-2	-1.187139797E1	-1.698266983E0
1.635409787E1	3.099441528E-3	-1.159108543E1	-1.253835440E0
1.636221149E1	-2.288180888E-1	-1.140931511E1	-1.128594637E0
1.637033206E1	-3.599848449E-1	-1.110103512E1	-8.784638047E-1
1.637846699E1	-3.799771965E-1	-1.097044086E1	-5.647859573E-1
1.639467368E1	-3.423363566E-1	-1.176217079E1	-3.474842310E-1
1.640275533E1	-3.599047363E-1	-1.305111790E1	1.468151808E0
1.641094583E1	-6.163438559E-1	-1.433981705E1	3.686954975E0
1.641913545E1	-2.927139401E-1	-1.484045982E1	1.851102829E0
1.642734083E1	-2.759875655E-1	-1.517404270E1	2.177076936E-1
1.643553052E1	-2.308969796E-1	-1.551676750E1	-1.038398266E0
1.644364779E1	-1.849935800E-1	-1.579387188E1	-1.995286942E0
1.645178295E1	-4.297355413E-1	-1.597155666E1	-2.253335953E0
1.645990395E1	-6.066901684E-1	-1.603552628E1	-2.306303501E0
1.646799295E1	-1.180438519E0	-1.600257874E1	-1.872753143E0
1.647612914E1	-2.121422768E0	-1.611934662E1	-1.201177239E0
1.648436383E1	-3.277248144E0	-1.600725365E1	-4.786685705E-1
1.649255441E1	-4.006360054E0	-1.559826851E1	-5.818147063E-1
1.650076118E1	-4.705544949E0	-1.511819458E1	-9.865579009E-2
1.650895122E1	-5.225192070E0	-1.419154453E1	-4.474514723E-1
1.651714079E1	-5.343680382E0	-1.101957417E1	-3.395908833E0
1.652525064E1	-6.800657749E0	-4.193693161E0	-3.651570797E0
1.653336918E1	-6.917377949E0	-1.308291245E1	9.060546875E0
1.654148906E1	-3.127669096E0	1.250848770E-1	4.229504395E1
1.654959002E1	1.147578812E1	1.783657837E1	-1.605039406E1
1.655770760E1	2.685968590E1	1.404854965E1	-1.319056511E1
1.656594229E1	1.055722618E1	1.674651146E0	2.588657379E0
1.657414641E1	6.975264549E0	2.770246506E0	1.408485985E1
1.658233660E1	5.274993896E0	3.150923729E0	1.547477531E1
1.659052598E1	2.504980326E0	1.945983887E0	1.077252579E1
1.659873033E1	1.968403339E0	1.920986176E0	8.056785583E0
1.660684275E1	-2.822287083E-1	3.471605301E0	5.207653046E0
1.661492952E1	8.477041245E0	2.090893745E1	-2.319545984E0
1.662306352E1	1.627741241E1	4.586890793E1	-1.410663128E1
1.663114895E1	1.389855957E1	5.832897568E1	-1.555496693E1
1.663926668E1	3.376658201E0	6.584943390E1	-1.516893482E1
1.664735618E1	-8.628345490E0	6.311363983E1	-7.278478622E0
1.665554410E1	-1.605286407E1	5.452431488E1	-4.077288628E0
1.666373287E1	-1.529519463E1	4.054747772E1	-2.756694794E0
1.667193618E1	-7.502884388E0	2.357919312E1	6.463074088E-1
1.668012537E1	-4.311741352E0	1.236847687E1	7.883824825E0
1.668823018E1	-1.838397741E0	-3.495763779E0	1.391876030E1
1.669633122E1	-1.588627219E0	-3.379759312E0	7.354396343E0
1.670444899E1	-6.579369307E-1	-4.479064941E0	4.506628036E0
1.671253391E1	2.159202099E-1	-5.312144756E0	1.832278728E0
1.672066925E1	6.717441082E-1	-6.430145264E0	1.459400654E-1
1.672889937E1	1.007276654E0	-7.485569000E0	-1.693014741E0
1.673708945E1	1.487102509E0	-8.286169052E0	-2.856147766E0
1.674529491E1	2.004930735E0	-9.138602257E0	-3.284974098E0
1.675348495E1	2.701192141E0	-1.002463913E1	-3.113588095E0
1.676167525E1	4.073580742E0	-1.110068893E1	-2.561255932E0
1.676978695E1	4.503832340E0	-1.177737045E1	-2.235687494E0
1.677790668E1	4.169712067E0	-1.176041889E1	-2.374123573E0
1.678602695E1	3.451158047E0	-1.149629402E1	-2.556933403E0
1.679412795E1	3.377548933E0	-1.148414421E1	-2.606204271E0
1.680224825E1	3.053509474E0	-1.136310863E1	-2.427016258E0
1.681046006E1	3.346837521E0	-1.150489998E1	-2.275134802E0
