"Time (s)"	"Acceleration x (m/s^2)"	"Acceleration y (m/s^2)"	"Acceleration z (m/s^2)"
5.060077000E-3	-2.681505919E0	3.172317266E0	7.740454197E0
7.860462000E-3	-2.715024710E0	3.205836058E0	7.733271599E0
9.154154000E-3	-2.726995707E0	3.227383852E0	7.745242596E0
1.188768400E-2	-2.717418909E0	3.246537447E0	7.771578789E0
1.365092300E-2	-2.674323320E0	3.258508444E0	7.807491779E0
1.590526000E-2	-2.621650934E0	3.251325846E0	7.843404770E0
1.711892300E-2	-2.578555346E0	3.244143248E0	7.876923561E0
1.996268300E-2	-2.535459518E0	3.236960649E0	7.912836552E0
2.174850000E-2	-2.487575531E0	3.229778051E0	7.963114738E0
2.399291400E-2	-2.425326347E0	3.213018656E0	8.018181801E0
2.516227000E-2	-2.360682964E0	3.191470861E0	8.080430984E0
2.805060700E-2	-2.298433542E0	3.160346270E0	8.169015884E0
2.998500000E-2	-2.217030764E0	3.131615877E0	8.271966934E0
3.208573100E-2	-2.138022184E0	3.117250681E0	8.384494781E0
3.325580800E-2	-2.056619167E0	3.105279684E0	8.497021675E0
3.613146200E-2	-1.956062794E0	3.076549292E0	8.609549522E0
3.796996200E-2	-1.841141105E0	3.040636063E0	8.719682693E0
3.992600000E-2	-1.721431017E0	2.999934673E0	8.839392662E0
4.136430800E-2	-1.594538331E0	2.949656487E0	8.944737434E0
4.410111600E-2	-1.446097851E0	2.899378300E0	9.045293808E0
4.605792300E-2	-1.290474772E0	2.839523315E0	9.136273384E0
4.828383700E-2	-1.134851575E0	2.796427488E0	9.215282440E0
4.957880800E-2	-9.935936928E-1	2.753331900E0	9.282320023E0
5.227419300E-2	-8.547300100E-1	2.698265314E0	9.356540680E0
5.405280800E-2	-7.302315235E-1	2.655169725E0	9.416395187E0
5.627414500E-2	-6.224924326E-1	2.638410330E0	9.449913979E0
5.747319300E-2	-5.267243981E-1	2.650381327E0	9.471462250E0
6.033118300E-2	-4.405331016E-1	2.664746523E0	9.497797966E0
6.212588500E-2	-3.711012602E-1	2.691082716E0	9.512163162E0
6.437641400E-2	-3.208230138E-1	2.736572504E0	9.514557838E0
6.557942300E-2	-2.801215947E-1	2.801215887E0	9.519346237E0
6.843345300E-2	-2.394201756E-1	2.875436306E0	9.545681953E0
7.031788500E-2	-2.035071403E-1	2.968810081E0	9.591172218E0
7.246988500E-2	-1.675941199E-1	3.052607059E0	9.629479408E0
7.364250000E-2	-1.436520964E-1	3.119644880E0	9.665391922E0
7.653099100E-2	-1.364694983E-1	3.174711466E0	9.710882187E0
7.831938500E-2	-1.388636976E-1	3.227383852E0	9.749189377E0
8.029203900E-2	-1.340752989E-1	3.270479441E0	9.780313492E0
8.173753900E-2	-1.029506698E-1	3.306392431E0	9.830592155E0
8.430988500E-2	-6.464344263E-2	3.323152065E0	9.861717224E0
8.641961600E-2	-7.182604820E-2	3.282450438E0	9.811438560E0
8.866226000E-2	-9.576806426E-2	3.229778051E0	9.758766174E0
8.996250000E-2	-1.460463107E-1	3.239354849E0	9.660603523E0
9.266468300E-2	-2.154781520E-1	3.270479441E0	9.538499832E0
9.445038500E-2	-1.628057212E-1	3.129221678E0	9.435548782E0
9.665929900E-2	3.064578176E-1	2.456450939E0	9.181763649E0
9.784727000E-2	6.512228847E-1	1.810016513E0	8.808267593E0
1.006926930E-1	5.482721925E-1	1.728613615E0	8.532935143E0
1.025483850E-1	1.316810995E-1	2.166752577E0	8.180987358E0
1.047469520E-1	-2.250549644E-1	2.432508945E0	7.671022415E0
1.059241930E-1	-3.591302633E-1	2.281674147E0	7.433996201E0
1.087844620E-1	-3.136404157E-1	1.898601890E0	7.613561630E0
1.107377310E-1	-3.734954596E-1	1.594538331E0	8.130708694E0
1.128587600E-1	-5.961562395E-1	1.462857246E0	8.657433510E0
1.140520390E-1	-8.164227605E-1	1.417367458E0	8.949525833E0
1.169149140E-1	-9.097966552E-1	1.323993564E0	8.966285706E0
1.187295770E-1	-9.888052940E-1	1.192312479E0	8.805873871E0
1.206605000E-1	-1.125274777E0	1.084573388E0	8.626308441E0
1.221478850E-1	-1.268926859E0	1.029506683E0	8.475474358E0
1.249258080E-1	-1.355118155E0	1.007958889E0	8.336610794E0
1.268135390E-1	-1.371877551E0	1.019929886E0	8.197746277E0
1.290283850E-1	-1.359906554E0	1.046266198E0	8.075642586E0
1.303255000E-1	-1.331176162E0	1.079784989E0	7.984662533E0
1.330249520E-1	-1.302445769E0	1.113303781E0	7.927201748E0
1.348228460E-1	-1.300051570E0	1.158793569E0	7.898471355E0
1.370361450E-1	-1.304839969E0	1.204283476E0	7.903259754E0
1.382062310E-1	-1.328781962E0	1.242590666E0	7.953537941E0
1.410636540E-1	-1.405396342E0	1.271321058E0	8.054094315E0
1.429071160E-1	-1.546654344E0	1.283292055E0	8.190564156E0
1.451234910E-1	-1.728613615E0	1.285686255E0	8.362946510E0
1.462933080E-1	-1.936909199E0	1.290474772E0	8.556877136E0
1.491794230E-1	-2.154781580E0	1.292868972E0	8.777143478E0
1.510744620E-1	-2.353500366E0	1.297657371E0	9.006986618E0
1.532173080E-1	-2.489969730E0	1.302445769E0	9.200917244E0
1.544166930E-1	-2.537853718E0	1.307234168E0	9.318233490E0
1.572725770E-1	-2.482787132E0	1.304839969E0	9.356540680E0
1.591132700E-1	-2.343923569E0	1.304839969E0	9.337387085E0
1.610546930E-1	-2.145204782E0	1.304839969E0	9.275136948E0
1.624957700E-1	-1.889025092E0	1.316810966E0	9.220070839E0
1.650850000E-1	-1.625662923E0	1.331176162E0	9.193734169E0
1.671803080E-1	-1.398213744E0	1.352723956E0	9.212887764E0
1.694101440E-1	-1.247379065E0	1.393425345E0	9.265560150E0
1.707180770E-1	-1.134851575E0	1.453280449E0	9.346963882E0
1.734068750E-1	-9.959878922E-1	1.472434044E0	9.476250648E0
1.751929230E-1	-8.283938169E-1	1.441309452E0	9.667786598E0
1.774023750E-1	-6.536170840E-1	1.405396342E0	9.883264542E0
1.785758460E-1	-4.955997467E-1	1.414973259E0	1.003170490E1
1.814594910E-1	-3.495534360E-1	1.414973259E0	1.007001209E1
1.832922700E-1	-2.082955539E-1	1.419761658E0	9.962273598E0
1.855050670E-1	-1.340752989E-1	1.584961534E0	9.679757118E0
1.867052310E-1	-7.182604820E-2	1.738190413E0	9.504981041E0
1.895600390E-1	-1.197100803E-2	1.781286120E0	9.555258751E0
1.914817690E-1	3.112462163E-2	1.790862918E0	9.775525093E0
1.935950000E-1	5.027823523E-2	1.783680320E0	1.004128170E1
1.947788080E-1	6.943184882E-2	1.759738207E0	1.025436592E1
1.976282310E-1	1.197100878E-1	1.723825216E0	1.046505547E1
1.994651540E-1	1.651999205E-1	1.723825216E0	1.057758331E1
2.013874620E-1	1.987187415E-1	1.750161409E0	1.067095661E1
2.028858080E-1	1.843535304E-1	1.795651317E0	1.076672459E1
2.056411540E-1	1.149216816E-1	1.879448295E0	1.089122391E1
2.075723460E-1	2.633621916E-2	1.965639591E0	1.095586681E1
2.097669230E-1	-5.267243832E-2	2.032677174E0	1.092234802E1
2.111094620E-1	-1.316810995E-1	2.073378563E0	1.087925243E1
2.137834230E-1	-2.370259613E-1	2.106897593E0	1.092474270E1
2.156006930E-1	-3.375824392E-1	2.130839586E0	1.102051067E1
2.177866930E-1	-4.189853072E-1	2.152387381E0	1.112346077E1
2.189800000E-1	-4.572925270E-1	2.171540976E0	1.119289303E1
2.218375770E-1	-4.548983276E-1	2.154781580E0	1.121204662E1
2.236621930E-1	-4.118026793E-1	2.102109194E0	1.121444035E1
2.258806060E-1	-3.591302633E-1	2.035071373E0	1.124556541E1
2.270824230E-1	-2.873041928E-1	1.958456993E0	1.128626728E1
2.299246540E-1	-1.532289088E-1	1.869871497E0	1.126232433E1
2.318875770E-1	2.633621916E-2	1.750161409E0	1.115458584E1
2.339290770E-1	2.202665508E-1	1.630451322E0	1.102290440E1
2.351288080E-1	4.357447028E-1	1.515529633E0	1.091277122E1
2.379950390E-1	6.823474765E-1	1.369483352E0	1.084094524E1
2.398013080E-1	9.409212470E-1	1.209071875E0	1.081700325E1
2.417643460E-1	1.173158884E0	1.039083481E0	1.077630138E1
2.432512690E-1	1.379060149E0	8.475474119E-1	1.073560047E1
2.457649230E-1	1.563413739E0	6.655880809E-1	1.074278259E1
2.478933080E-1	1.704671621E0	4.979939461E-1	1.074517727E1
2.501045390E-1	1.798045516E0	3.567360640E-1	1.066137981E1
2.514417310E-1	1.836352706E0	2.418143749E-1	1.048660374E1
2.541119230E-1	1.821987510E0	1.675941199E-1	1.025675964E1
2.558939620E-1	1.762132406E0	1.149216816E-1	1.000058079E1
2.581289620E-1	1.666364431E0	8.140286058E-2	9.732429504E0
2.593098850E-1	1.541865945E0	5.985504389E-2	9.457097054E0
2.621824620E-1	1.398213744E0	5.985504389E-2	9.169792175E0
2.639856540E-1	1.218648672E0	6.943184882E-2	8.865729332E0
2.662299130E-1	1.005564690E0	9.337386489E-2	8.556877136E0
2.674476160E-1	7.709329724E-1	1.197100878E-1	8.274360657E0
2.702506930E-1	5.171475410E-1	1.628057212E-1	8.039729118E0
2.721820770E-1	2.609679997E-1	1.963245422E-1	7.836222172E0
2.742899230E-1	-4.788403399E-3	2.250549644E-1	7.668628216E0
2.755554230E-1	-2.849099934E-1	2.513911724E-1	7.551311970E0
2.783570390E-1	-5.626373887E-1	2.657563984E-1	7.493851185E0
2.801905770E-1	-8.499416113E-1	2.873041928E-1	7.489062786E0
2.821595390E-1	-1.134851575E0	3.040636182E-1	7.544129372E0
2.835955770E-1	-1.395819545E0	3.064578176E-1	7.647080421E0
2.863720390E-1	-1.620874524E0	2.920926213E-1	7.771578789E0
2.882773460E-1	-1.810016513E0	2.657563984E-1	7.896077156E0
2.904873460E-1	-1.956062794E0	2.466027737E-1	8.010998726E0
2.918357690E-1	-2.061407566E0	2.322375625E-1	8.118738174E0
2.945122980E-1	-2.133233786E0	2.154781520E-1	8.214506149E0
2.963226160E-1	-2.185906172E0	1.843535304E-1	8.293514252E0
2.984811540E-1	-2.221819162E0	1.340752989E-1	8.358158112E0
2.996890770E-1	-2.317587137E0	-3.830722719E-2	8.386888504E0
3.025648750E-1	-2.454056740E0	-2.849099934E-1	8.413225174E0
3.043885770E-1	-2.571372509E0	-4.548983276E-1	8.815450668E0
3.066100290E-1	-2.839523315E0	-4.405331016E-1	1.047702694E1
3.077787690E-1	-3.490746021E0	-2.489969730E-1	1.290714169E1
3.106660670E-1	-3.782838583E0	-2.418143749E-1	1.274433517E1
3.125921160E-1	-2.815581083E0	-5.195417404E-1	1.032858658E1
3.146858460E-1	-1.754949808E0	-5.291185975E-1	8.619126320E0
3.158879620E-1	-1.244984865E0	-2.513911724E-1	8.240841866E0
3.187440770E-1	-1.288080573E0	-6.703764945E-2	8.748413086E0
3.205628850E-1	-1.572990537E0	0.000000000E0	9.698910713E0
3.225101540E-1	-1.898601890E0	-2.633621916E-2	1.047463226E1
3.239502690E-1	-2.173935175E0	-1.675941199E-1	1.061828423E1
3.264805770E-1	-2.310404539E0	-3.232172430E-1	1.037886429E1
3.286898460E-1	-2.331952572E0	-4.165911078E-1	1.022084713E1
3.308897310E-1	-2.305616140E0	-4.525041282E-1	1.032858658E1
3.321942310E-1	-2.284068346E0	-4.453215301E-1	1.057997704E1
3.348857690E-1	-2.236184359E0	-4.094084799E-1	1.085291672E1
3.366720000E-1	-2.114080191E0	-3.447650373E-1	1.109712505E1
3.388876920E-1	-1.929726601E0	-2.609679997E-1	1.132217979E1
3.401202690E-1	-1.685518026E0	-1.604115069E-1	1.153286934E1
3.429136160E-1	-1.386242747E0	-5.746084079E-2	1.169088650E1
3.447562310E-1	-1.046266198E0	2.633621916E-2	1.174116516E1
3.469732590E-1	-6.775590777E-1	1.077390760E-1	1.162863731E1
3.481666160E-1	-2.849099934E-1	2.011129409E-1	1.138203526E1
3.509926920E-1	1.580173075E-1	2.944868207E-1	1.104445267E1
3.530566820E-1	6.464344859E-1	3.998316824E-1	1.065180302E1
3.552173460E-1	1.173158884E0	4.979939461E-1	1.028070164E1
3.562663460E-1	1.582567334E0	6.248866320E-1	1.007240677E1
3.591242690E-1	2.032677174E0	7.110779285E-1	1.023281765E1
3.609523850E-1	2.758120298E0	6.727706790E-1	1.053927612E1
3.628577310E-1	3.459621429E0	5.530605912E-1	1.063264942E1
3.643520000E-1	4.151545525E0	3.519476354E-1	1.046984386E1
3.671329230E-1	4.900930882E0	8.619125932E-2	1.013465595E1
3.690333080E-1	5.734113216E0	-2.561795712E-1	9.677363396E0
3.712234230E-1	6.452373505E0	-6.368576288E-1	9.124302864E0
3.725716160E-1	6.756437302E0	-8.810662031E-1	8.801085472E0
3.752166540E-1	6.689399719E0	-9.385270476E-1	8.889671326E0
3.770571540E-1	6.459556103E0	-8.858546019E-1	9.222464561E0
3.792484900E-1	6.239289761E0	-8.355764151E-1	9.579200745E0
3.804634620E-1	6.083666325E0	-8.044517636E-1	9.842563629E0
3.832746160E-1	5.983109951E0	-7.613561153E-1	1.001494598E1
3.850998850E-1	5.959167957E0	-7.254431248E-1	1.011310768E1
3.873356440E-1	5.918466568E0	-6.943184733E-1	1.012747288E1
3.885347690E-1	5.544970989E0	-5.698199868E-1	1.009156036E1
3.913652310E-1	4.070142746E0	-6.224924326E-2	1.001973438E1
3.933185770E-1	8.451532125E-1	1.086967587E0	9.832986832E0
3.954276540E-1	-3.143586874E0	2.540247917E0	9.540893555E0
3.966260000E-1	-5.726930618E0	3.581725836E0	9.373299599E0
3.994869130E-1	-5.750872612E0	3.823540211E0	9.464279175E0
4.012868850E-1	-4.316745758E0	3.639186621E0	9.696516991E0
4.032653850E-1	-3.327940464E0	3.722983599E0	9.797073364E0
4.047326540E-1	-3.390189648E0	4.209006786E0	9.600749016E0
4.072181540E-1	-3.986345768E0	4.888959885E0	9.126696587E0
4.096059230E-1	-4.110844135E0	5.518634796E0	8.410830498E0
4.116166920E-1	-2.777273893E0	5.216965675E0	8.197746277E0
4.129486150E-1	-5.793967843E-1	4.414907932E0	8.159439087E0
4.156135670E-1	1.740584612E0	3.438073635E0	8.157045364E0
4.173826920E-1	3.620033026E0	2.545036316E0	8.101978302E0
4.196087590E-1	4.876988888E0	1.853112102E0	7.975085735E0
4.207896920E-1	5.293580055E0	1.592144132E0	7.893682957E0
4.236645390E-1	5.928043365E0	1.072602391E0	7.632715225E0
4.254741920E-1	6.019022942E0	8.954314590E-1	7.489062786E0
4.277088460E-1	5.990292549E0	8.355764151E-1	7.388506413E0
4.289438850E-1	5.916072369E0	8.762778044E-1	7.307103634E0
4.317663360E-1	5.849034786E0	9.888052940E-1	7.220912457E0
4.336506920E-1	5.829881191E0	1.132457376E0	7.113173485E0
4.357714230E-1	5.858611584E0	1.295263171E0	6.969521046E0
4.370022310E-1	5.923254967E0	1.470039845E0	6.782773495E0
4.398638080E-1	6.026205540E0	1.647210717E0	6.581660271E0
4.416972690E-1	6.124367714E0	1.841141105E0	6.404489517E0
4.436001920E-1	6.208165169E0	2.025494576E0	6.289567947E0
4.450951150E-1	6.251260757E0	2.214636564E0	6.251260757E0
4.478665770E-1	6.232107162E0	2.413355350E0	6.251260757E0
4.497742690E-1	6.165069580E0	2.614468336E0	6.277596951E0
4.519968740E-1	6.098031521E0	2.796427488E0	6.318298340E0
4.533125770E-1	6.102819920E0	2.959233284E0	6.385335922E0
4.559997200E-1	6.169857979E0	3.090914488E0	6.473921299E0
4.577616540E-1	6.241683960E0	3.193865061E0	6.581660271E0
4.599947970E-1	6.303933144E0	3.248931646E0	6.715735912E0
4.611688460E-1	6.361393929E0	3.275267839E0	6.904877663E0
4.640512590E-1	6.428431511E0	3.287238836E0	7.146692276E0
4.658561920E-1	6.514622688E0	3.282450438E0	7.436390400E0
4.680817970E-1	6.605602264E0	3.270479441E0	7.747636795E0
4.692746920E-1	6.675034523E0	3.251325846E0	8.051700592E0
4.721363460E-1	6.715735912E0	3.217807055E0	8.324639320E0
4.740730770E-1	6.722918510E0	3.153163671E0	8.537723541E0
4.761601430E-1	6.720524311E0	3.069366693E0	8.676587105E0
4.774098460E-1	6.708553314E0	2.987963676E0	8.731653214E0
4.801864230E-1	6.694188118E0	2.896984100E0	8.707711220E0
4.820033850E-1	6.672640324E0	2.801215887E0	8.645462036E0
4.839580390E-1	6.617573261E0	2.729389906E0	8.573636055E0
4.854174620E-1	6.538564682E0	2.710236311E0	8.530540466E0
4.879755770E-1	6.423643112E0	2.729389906E0	8.504204750E0
4.901100770E-1	6.299144745E0	2.758120298E0	8.475474358E0
4.923338360E-1	6.191405773E0	2.777273893E0	8.441955566E0
4.936710000E-1	6.143521786E0	2.700659513E0	8.327033043E0
4.963271820E-1	6.184223175E0	2.564189911E0	8.118738174E0
4.981003080E-1	6.248866558E0	2.509123325E0	7.958326340E0
5.003210390E-1	6.260837555E0	2.463633537E0	7.807491779E0
5.016349230E-1	6.212953568E0	2.389413357E0	7.613561630E0
5.043938740E-1	6.141127586E0	2.327163935E0	7.388506413E0
5.061785000E-1	6.047753334E0	2.276885748E0	7.129932880E0
5.084224230E-1	5.956773758E0	2.217030764E0	6.830657482E0
5.096151920E-1	5.889736176E0	2.109291792E0	6.483498096E0
5.124805660E-1	5.849034786E0	1.965639591E0	6.121973515E0
5.144411540E-1	5.822698593E0	1.872265697E0	5.803544998E0
5.165163460E-1	5.789179802E0	1.845929503E0	5.585672379E0
5.177006150E-1	5.712565422E0	1.884236693E0	5.442020416E0
5.205766050E-1	5.604825974E0	1.977610588E0	5.358223438E0
5.224336540E-1	5.477933407E0	2.185906172E0	5.303156853E0
5.243219230E-1	5.506663799E0	2.308010340E0	5.288791656E0
5.258022690E-1	5.650316238E0	2.401384354E0	5.264849663E0
5.285713850E-1	5.870582581E0	2.473210335E0	5.243301868E0
5.304886150E-1	6.112396717E0	2.542642117E0	5.231330872E0
5.326780770E-1	6.351817131E0	2.616862535E0	5.255272865E0
5.340458850E-1	6.586448669E0	2.700659513E0	5.310339451E0
5.366996050E-1	6.835445881E0	2.784456491E0	5.415684223E0
5.384533460E-1	7.098807812E0	2.868253708E0	5.564124584E0
5.406656920E-1	7.314286232E0	2.961627483E0	5.753266811E0
5.418711920E-1	7.455543995E0	3.074155092E0	5.975927353E0
5.447502580E-1	7.503427982E0	3.189076662E0	6.220136166E0
5.465581540E-1	7.462726593E0	3.280056238E0	6.469132900E0
5.487917310E-1	7.378929615E0	3.339911461E0	6.691793919E0
5.499650000E-1	7.297526836E0	3.347094059E0	6.890512466E0
5.528504510E-1	7.216124058E0	3.303998232E0	7.077260017E0
5.547660770E-1	7.144298077E0	3.229778051E0	7.259219646E0
5.568570380E-1	7.086836815E0	3.114856482E0	7.429207802E0
5.580604230E-1	7.043741226E0	2.964021683E0	7.587224960E0
5.609462970E-1	7.026981831E0	2.808398485E0	7.757213593E0
5.627668080E-1	7.050923824E0	2.643198729E0	7.927201748E0
5.647105770E-1	7.108384609E0	2.461239338E0	8.078036308E0
5.661702690E-1	7.175422668E0	2.279279947E0	8.192957878E0
5.687170380E-1	7.240066051E0	2.111685991E0	8.252813339E0
5.708835380E-1	7.283161640E0	1.987187386E0	8.264783859E0
5.730645770E-1	7.304709435E0	1.905784607E0	8.243236542E0
5.744231920E-1	7.311892033E0	1.855506301E0	8.200140953E0
5.770676150E-1	7.321468830E0	1.831564307E0	8.142680168E0
5.788772310E-1	7.350199223E0	1.819593310E0	8.054094315E0
5.810695770E-1	7.426813602E0	1.802833915E0	7.951143742E0
5.822670380E-1	7.548917770E0	1.790862918E0	7.819462776E0
5.851060770E-1	7.685387611E0	1.798045516E0	7.668628216E0
5.869441150E-1	7.817068577E0	1.824381709E0	7.477091789E0
5.891570660E-1	7.922413349E0	1.869871497E0	7.266402245E0
5.903235000E-1	7.984662533E0	1.934514999E0	7.084442616E0
5.932098080E-1	7.996633530E0	2.042253971E0	6.979097843E0
5.951436540E-1	7.963114738E0	2.188300371E0	6.938396454E0
5.972653850E-1	7.941566944E0	2.343923569E0	6.890512466E0
5.984384620E-1	7.948749542E0	2.487575531E0	6.813898087E0
6.012835770E-1	7.975085735E0	2.609679937E0	6.715735912E0
6.031421920E-1	8.025363922E0	2.717418909E0	6.579266071E0
6.050870770E-1	8.075642586E0	2.806004286E0	6.428431511E0
6.065509620E-1	8.056488991E0	2.889801502E0	6.306327343E0
6.094060660E-1	7.955932140E0	2.983175278E0	6.222530365E0
6.112158460E-1	7.869740963E0	3.052607059E0	6.121973515E0
6.134304620E-1	7.800309181E0	3.066972494E0	5.990292549E0
6.147591540E-1	7.682993412E0	3.038241863E0	5.877765179E0
6.174192690E-1	7.532158375E0	2.971204281E0	5.789179802E0
6.192416920E-1	7.383718014E0	2.875436306E0	5.736507416E0
6.214109610E-1	7.283161640E0	2.743755102E0	5.691017628E0
6.226380380E-1	7.316680431E0	2.557007313E0	5.616796970E0
6.254686920E-1	7.496245384E0	2.346317768E0	5.554547787E0
6.273650000E-1	7.740454197E0	2.123656988E0	5.576095581E0
6.295262970E-1	7.936778545E0	1.944091797E0	5.662287235E0
6.307246150E-1	8.018181801E0	1.833958507E0	5.772420406E0
6.335596150E-1	8.008605003E0	1.800439715E0	5.923254967E0
6.356108350E-1	7.900865555E0	1.826775908E0	6.239289761E0
6.376215270E-1	7.812280178E0	1.853112102E0	6.476315498E0
6.388432690E-1	7.735665798E0	1.872265697E0	6.706159115E0
6.416780270E-1	7.709329605E0	1.857900500E0	6.907271862E0
6.436391920E-1	7.788338184E0	1.800439715E0	7.012616634E0
6.455544610E-1	7.888894558E0	1.740584612E0	7.065289021E0
6.469492310E-1	7.970297337E0	1.699883223E0	7.137115479E0
6.495655000E-1	8.082824707E0	1.644816518E0	7.196970463E0
6.516123080E-1	8.267178535E0	1.544260144E0	7.175422668E0
6.538091430E-1	8.429984093E0	1.441309452E0	7.139509678E0
6.552309230E-1	8.499416351E0	1.376665950E0	7.156269073E0
6.578019500E-1	8.513781548E0	1.347935557E0	7.175422668E0
6.597956040E-1	8.554482460E0	1.321599364E0	7.187393665E0
6.617971040E-1	8.561665535E0	1.304839969E0	7.220912457E0
6.630902690E-1	8.540117264E0	1.300051570E0	7.249642849E0
6.658535660E-1	8.532935143E0	1.278503656E0	7.218518257E0
6.677463460E-1	8.523358345E0	1.256955862E0	7.129932880E0
6.698989890E-1	8.449137688E0	1.266532660E0	7.058106422E0
6.712128460E-1	8.315062523E0	1.321599364E0	7.019799232E0
6.739557960E-1	8.228871346E0	1.371877551E0	6.919242859E0
6.759836920E-1	8.216899872E0	1.403002143E0	6.701370716E0
6.779962960E-1	8.224082947E0	1.441309452E0	6.461950302E0
6.792016540E-1	8.231265068E0	1.493981838E0	6.272808552E0
6.820532960E-1	8.236053467E0	1.558625340E0	6.100425720E0
6.840822960E-1	8.281543732E0	1.616086125E0	5.894524574E0
6.858211920E-1	8.362946510E0	1.663970232E0	5.712565422E0
6.872909230E-1	8.403648376E0	1.723825216E0	5.628767967E0
6.901406420E-1	8.410830498E0	1.800439715E0	5.609614372E0
6.920018850E-1	8.425195694E0	1.872265697E0	5.583278179E0
6.941875660E-1	8.475474358E0	1.884236693E0	5.547365189E0
6.957049230E-1	8.511386871E0	1.884236693E0	5.576095581E0
6.981906420E-1	8.497021675E0	1.910573006E0	5.645527840E0
7.000718850E-1	8.671798706E0	2.118868589E0	5.767632008E0
7.021856040E-1	9.323021889E0	2.710236311E0	6.083666325E0
7.036950380E-1	9.732429504E0	2.987963676E0	6.057330132E0
7.062414890E-1	9.710882187E0	2.844311714E0	5.616796970E0
7.080795380E-1	9.567230225E0	2.636016130E0	5.195417881E0
7.102706040E-1	9.442731857E0	2.542642117E0	5.078101635E0
7.115451540E-1	9.327810287E0	2.504334927E0	5.178658485E0
7.143264120E-1	9.272743225E0	2.427720547E0	5.307945251E0
7.163547190E-1	9.277531624E0	2.310404539E0	5.386953831E0
7.183483730E-1	9.232041359E0	2.171540976E0	5.506663799E0
7.195643460E-1	9.083600998E0	2.039859772E0	5.698200226E0
7.224042190E-1	8.832210541E0	1.929726601E0	5.928043365E0
7.242398850E-1	8.549694061E0	1.829170108E0	6.155492783E0
7.262688460E-1	8.329427719E0	1.738190413E0	6.291962147E0
7.277165000E-1	8.238448143E0	1.642422318E0	6.363788128E0
7.302047690E-1	8.305485725E0	1.508347034E0	6.299144745E0
7.324072690E-1	8.480262756E0	1.319205165E0	6.009446144E0
7.345191810E-1	8.717288017E0	1.108515382E0	5.554547787E0
7.359213840E-1	8.935160637E0	9.265560508E-1	5.128379822E0
7.385129880E-1	8.939949036E0	8.379706144E-1	4.955997467E0
7.404165770E-1	8.738836288E0	8.523358107E-1	5.123591423E0
7.425220650E-1	8.408436775E0	9.935936928E-1	5.576095581E0
7.438174230E-1	8.037335396E0	1.285686255E0	6.253654957E0
7.465779500E-1	7.599195957E0	1.769315004E0	7.060500622E0
7.485491540E-1	7.462726593E0	1.836352706E0	7.084442616E0
7.506069110E-1	7.457938194E0	1.740584612E0	6.698976517E0
7.518590770E-1	7.517793179E0	1.630451322E0	6.234501362E0
7.546623730E-1	7.570465565E0	1.580173135E0	5.841852188E0
7.566906420E-1	7.606379032E0	1.556231141E0	5.468356609E0
7.587009110E-1	7.630321026E0	1.522712231E0	5.039794445E0
7.599155000E-1	7.618350029E0	1.486799240E0	4.587290287E0
7.627574500E-1	7.546523571E0	1.484405041E0	4.230554581E0
7.646848460E-1	7.443572998E0	1.503558636E0	4.012681961E0
7.667209230E-1	7.364564419E0	1.546654344E0	3.907337189E0
7.680373080E-1	7.321468830E0	1.616086125E0	3.885789394E0
7.707916540E-1	7.328651428E0	1.707065821E0	3.928884983E0
7.727161540E-1	7.352593422E0	1.795651317E0	3.957615376E0
7.748871810E-1	7.350199223E0	1.879448295E0	3.931279182E0
7.762556150E-1	7.314286232E0	1.968033791E0	3.837905407E0
7.788790650E-1	7.232883453E0	2.068590164E0	3.744531393E0
7.806715000E-1	7.096413612E0	2.171540976E0	3.703830004E0
7.828739110E-1	6.921637058E0	2.267308950E0	3.718195200E0
7.841810000E-1	6.766014099E0	2.341529369E0	3.701435804E0
7.869291810E-1	6.670246124E0	2.384624958E0	3.639186621E0
7.888502310E-1	6.629544735E0	2.408566952E0	3.622427225E0
7.909740270E-1	6.629544735E0	2.420537949E0	3.663128614E0
7.923160000E-1	6.679822922E0	2.406172752E0	3.687070608E0
7.950292960E-1	6.828263283E0	2.351106167E0	3.643975019E0
7.969867690E-1	7.048529625E0	2.257732153E0	3.569754839E0
7.990674880E-1	7.292738438E0	2.140416384E0	3.536235809E0
8.002874610E-1	7.503427982E0	2.013523579E0	3.581725836E0
8.031226040E-1	7.656657219E0	1.867477298E0	3.701435804E0
8.049728080E-1	7.754819393E0	1.709460020E0	3.840299606E0
8.069840000E-1	7.821856976E0	1.539471745E0	3.950432777E0
8.083789610E-1	7.855375767E0	1.364694953E0	4.019864559E0
8.110458080E-1	7.876923561E0	1.197100878E0	4.036623955E0
8.132348730E-1	7.896077156E0	1.043871999E0	4.017470360E0
8.152507190E-1	7.929595947E0	9.217676520E-1	3.988739967E0
8.166688840E-1	7.987056732E0	8.188169599E-1	3.960009575E0
8.192528340E-1	8.068459511E0	7.350199223E-1	3.926490784E0
8.212060380E-1	8.169015884E0	6.727706790E-1	3.897760391E0
8.232470650E-1	8.271966934E0	6.392518282E-1	3.878606796E0
8.244950770E-1	8.384494781E0	6.248866320E-1	3.857059002E0
8.273029500E-1	8.525752068E0	6.416460276E-1	3.825934410E0
8.291879230E-1	8.700529099E0	6.751648784E-1	3.794809580E0
8.313326800E-1	8.877699852E0	7.230489254E-1	3.780444384E0
8.327691150E-1	9.064447403E0	7.852981687E-1	3.766079187E0
8.353884880E-1	9.272743225E0	8.690952063E-1	3.739742994E0
8.373750380E-1	9.497797966E0	9.600749016E-1	3.720589399E0
8.394426030E-1	9.706093788E0	1.048660398E0	3.694253206E0
8.406588460E-1	9.842563629E0	1.149216771E0	3.670311213E0
8.434990650E-1	9.897629738E0	1.264138460E0	3.675099611E0
8.453566540E-1	9.892841339E0	1.386242747E0	3.684676409E0
8.473277690E-1	9.840168953E0	1.515529633E0	3.622427225E0
8.487490770E-1	9.718064308E0	1.640028119E0	3.495534420E0
8.515137310E-1	9.404424667E0	1.831564307E0	3.260902643E0
8.536134500E-1	9.179368973E0	1.970427990E0	3.102885485E0
8.556151420E-1	8.978256226E0	2.097320795E0	2.940079689E0
8.574310770E-1	8.793902397E0	2.202665567E0	2.801215887E0
8.596079880E-1	8.635885239E0	2.293645144E0	2.695871115E0
8.615695380E-1	8.523358345E0	2.365471363E0	2.636016130E0
8.636187190E-1	8.458714485E0	2.415749550E0	2.616862535E0
8.648808840E-1	8.420407295E0	2.458845139E0	2.619256735E0
8.676753730E-1	8.379706383E0	2.487575531E0	2.619256735E0
8.697039880E-1	8.307879448E0	2.513911724E0	2.585737944E0
8.717058730E-1	8.224082947E0	2.542642117E0	2.552218914E0
8.729456920E-1	8.145073891E0	2.561795712E0	2.559401512E0
8.757618340E-1	8.063671112E0	2.568978310E0	2.588132143E0
8.777901420E-1	7.987056732E0	2.578555346E0	2.616862535E0
8.798018730E-1	7.908048153E0	2.590526342E0	2.638410330E0
8.810184610E-1	7.797914982E0	2.592920542E0	2.636016130E0
8.838573730E-1	7.671022415E0	2.592920542E0	2.614468336E0
8.857895380E-1	7.534552574E0	2.595314741E0	2.535459518E0
8.877603460E-1	7.412448406E0	2.602497339E0	2.427720547E0
8.891330380E-1	7.283161640E0	2.619256735E0	2.360682964E0
8.918746920E-1	7.144298077E0	2.640804529E0	2.377442360E0
8.939338840E-1	7.015010834E0	2.667140722E0	2.461239338E0
8.959881800E-1	6.931213856E0	2.683900118E0	2.568978310E0
8.976919230E-1	6.916848660E0	2.679111719E0	2.662352324E0
8.999823340E-1	6.957550049E0	2.650381327E0	2.710236311E0
9.018328460E-1	7.038952827E0	2.614468336E0	2.729389906E0
9.039770650E-1	7.132327080E0	2.585737944E0	2.748543501E0
9.052350770E-1	7.216124058E0	2.568978310E0	2.808398485E0
9.080326030E-1	7.280767441E0	2.547430515E0	2.901772499E0
9.100607570E-1	7.331045628E0	2.530671120E0	2.971204281E0
9.120770260E-1	7.383718014E0	2.523488522E0	2.940079689E0
9.135341150E-1	7.462726593E0	2.509123325E0	2.829946518E0
9.161330650E-1	7.553706169E0	2.473210335E0	2.755726099E0
9.181275770E-1	7.606379032E0	2.396595955E0	2.765302896E0
9.201729110E-1	7.673416615E0	2.327163935E0	2.832340717E0
9.213896540E-1	7.821856976E0	2.348711967E0	2.937685490E0
9.242290260E-1	8.049305916E0	2.418143749E0	3.014299870E0
9.260973840E-1	8.283937454E0	2.489969730E0	3.031059265E0
9.280579610E-1	8.463502884E0	2.549824715E0	2.992752075E0
9.295571540E-1	8.585607529E0	2.614468336E0	2.916137695E0
9.323140650E-1	8.676587105E0	2.695871115E0	2.856282711E0
9.342986920E-1	8.738836288E0	2.789244890E0	2.829946518E0
9.363584490E-1	8.779537201E0	2.875436306E0	2.822763920E0
9.380575000E-1	8.832210541E0	2.952050686E0	2.841917515E0
9.403605260E-1	8.908824921E0	3.014299870E0	2.873042107E0
9.423539490E-1	9.014169693E0	3.066972494E0	2.906560898E0
9.443551420E-1	9.143456459E0	3.100491285E0	2.942473888E0
9.457034610E-1	9.270348549E0	3.110068083E0	2.968810081E0
9.484115260E-1	9.366117477E0	3.107673883E0	2.961627483E0
9.503150000E-1	9.411606789E0	3.107673883E0	2.908955097E0
9.524418720E-1	9.390059471E0	3.100491285E0	2.813186884E0
9.538005000E-1	9.291896820E0	3.066972494E0	2.698265314E0
9.564975260E-1	9.157821655E0	3.033453465E0	2.595314741E0
9.584545380E-1	9.026140213E0	2.990357876E0	2.523488522E0
9.605196030E-1	8.930372238E0	2.937685490E0	2.468421936E0
9.617899610E-1	8.892065048E0	2.880224705E0	2.437297344E0
9.645761030E-1	8.930372238E0	2.798821688E0	2.425326347E0
9.664137690E-1	8.992621422E0	2.726995707E0	2.415749550E0
9.683560000E-1	9.054870605E0	2.650381327E0	2.403778553E0
9.698725000E-1	9.088389397E0	2.583343744E0	2.420537949E0
9.723798070E-1	9.102754593E0	2.523488522E0	2.468421936E0
9.746369610E-1	9.102754593E0	2.456450939E0	2.525882721E0
9.766930260E-1	9.081207275E0	2.396595955E0	2.571372509E0
9.781010000E-1	9.038111687E0	2.339135170E0	2.573766708E0
9.806869880E-1	8.959102631E0	2.286462545E0	2.549824715E0
9.825310000E-1	8.846575737E0	2.243366957E0	2.540247917E0
9.846987950E-1	8.741230011E0	2.197877169E0	2.537853718E0
9.861070770E-1	8.655038834E0	2.142810583E0	2.542642117E0
9.887560260E-1	8.583212852E0	2.066195965E0	2.540247917E0
9.906390380E-1	8.535328865E0	1.991975784E0	2.511517525E0
9.927870260E-1	8.535328865E0	1.932120800E0	2.466027737E0
9.942545000E-1	8.578424454E0	1.877054095E0	2.422932148E0
9.968432570E-1	8.588001251E0	1.821987510E0	2.396595955E0
9.988721030E-1	8.549694061E0	1.759738207E0	2.394201756E0
1.000883334E0	8.504204750E0	1.695094824E0	2.403778553E0
1.002167230E0	8.482656479E0	1.649604917E0	2.444479942E0
1.004940064E0	8.473079681E0	1.637633920E0	2.521094322E0
1.006968641E0	8.487444878E0	1.620874524E0	2.588132143E0
1.008743000E0	8.544905663E0	1.575384736E0	2.621650934E0
1.010239307E0	8.616731644E0	1.515529633E0	2.636016130E0
1.013044141E0	8.674192429E0	1.441309452E0	2.607285738E0
1.014964192E0	8.731653214E0	1.362300754E0	2.549824715E0
1.017075218E0	8.808267593E0	1.307234168E0	2.475604534E0
1.018481538E0	8.899248123E0	1.295263171E0	2.418143749E0
1.021073680E0	9.004592896E0	1.335964561E0	2.353500366E0
1.022921692E0	9.131484985E0	1.412579060E0	2.284068346E0
1.025069295E0	9.255983353E0	1.498770237E0	2.219424963E0
1.026412923E0	9.378087997E0	1.592144132E0	2.142810583E0
1.029125487E0	9.521739960E0	1.687912226E0	2.032677174E0
1.030995615E0	9.732429504E0	1.798045516E0	1.932120800E0
1.033169680E0	9.991003990E0	1.934514999E0	1.850717902E0
1.034394269E0	1.024478912E1	2.090138197E0	1.774103403E0
1.037226487E0	1.045787334E1	2.260126352E0	1.723825216E0
1.039255218E0	1.061589050E1	2.427720547E0	1.687912226E0
1.041267141E0	1.071165848E1	2.573766708E0	1.656787634E0
1.042790615E0	1.074517727E1	2.674323320E0	1.642422318E0
1.045324295E0	1.070926380E1	2.698265314E0	1.642422318E0
1.047181692E0	1.062546730E1	2.655169725E0	1.647210717E0
1.049354064E0	1.051772785E1	2.552218914E0	1.683123827E0
1.050582192E0	1.039322948E1	2.398990154E0	1.745373011E0
1.053147692E0	1.026873112E1	2.166752577E0	1.788468719E0
1.055305615E0	1.014902115E1	1.826775908E0	1.762132406E0
1.057456487E0	9.988609314E0	1.290474772E0	1.733402014E0
1.058823384E0	9.773131371E0	5.267243981E-1	1.999158382E0
1.061458795E0	9.706093788E0	-6.703764945E-2	2.518700123E0
1.063452526E0	9.919178009E0	-1.460463107E-1	2.604891539E0
1.065453833E0	1.019211674E1	1.436521020E-2	2.300827742E0
1.066847961E0	1.036689377E1	2.035071403E-1	2.030282974E0
1.069510141E0	1.043871975E1	4.189853072E-1	1.889025092E0
1.071380538E0	1.036689377E1	4.429273009E-1	1.951274395E0
1.073540487E0	1.025436592E1	1.556231081E-1	1.970427990E0
1.074838384E0	1.023760605E1	1.197100803E-2	1.951274395E0
1.077597026E0	1.020408726E1	-4.285621047E-1	2.020706177E0
1.079625603E0	1.020408726E1	-6.320692301E-1	2.166752577E0
1.081651526E0	1.024000072E1	-7.422025204E-1	2.324769735E0
1.082923230E0	1.028549004E1	-7.924807668E-1	2.468421936E0
1.085707872E0	1.034055710E1	-8.379706144E-1	2.576161146E0
1.087594577E0	1.042435455E1	-9.050082564E-1	2.636016130E0
1.089582307E0	1.054885292E1	-9.959878922E-1	2.607285738E0
1.090949846E0	1.070447540E1	-1.072602391E0	2.451662540E0
1.093794141E0	1.086488724E1	-1.142034173E0	2.236184359E0
1.095764153E0	1.101093388E1	-1.216254473E0	2.018311977E0
1.097825641E0	1.113064384E1	-1.276109457E0	1.905784607E0
1.099176384E0	1.126232433E1	-1.290474772E0	1.929726601E0
1.101819602E0	1.141555405E1	-1.285686255E0	2.054224968E0
1.103700384E0	1.157117653E1	-1.261744261E0	2.195482969E0
1.105829795E0	1.169567490E1	-1.206677675E0	2.303221941E0
1.107203615E0	1.178426075E1	-1.142034173E0	2.343923569E0
1.109886910E0	1.182496262E1	-1.077390790E0	2.327163935E0
1.111737692E0	1.183693314E1	-1.027112484E0	2.269703150E0
1.113919410E0	1.182735634E1	-9.840168953E-1	2.176329374E0
1.115248384E0	1.178426075E1	-9.409212470E-1	2.070984364E0
1.117976602E0	1.172201157E1	-9.002198577E-1	1.975216389E0
1.119960192E0	1.163103199E1	-8.619126081E-1	1.905784607E0
1.122016679E0	1.150653362E1	-8.212111592E-1	1.891419291E0
1.123542269E0	1.136527538E1	-7.852981687E-1	1.924938202E0
1.126074218E0	1.121683502E1	-7.565677166E-1	1.977610588E0
1.127976461E0	1.105163479E1	-7.517793179E-1	2.023100376E0
1.129941500E0	1.086249352E1	-7.469909191E-1	2.056619167E0
1.131381115E0	1.065419769E1	-7.517793179E-1	2.049436569E0
1.133900346E0	1.045069027E1	-7.541735172E-1	1.996764183E0
1.136043115E0	1.026394272E1	-7.565677166E-1	1.951274395E0
1.138208141E0	1.008677197E1	-7.422025204E-1	1.929726601E0
1.139674923E0	9.935936928E0	-7.278373241E-1	1.932120800E0
1.142202641E0	9.849745750E0	-7.326257229E-1	1.927332401E0
1.144019000E0	9.830592155E0	-7.374141216E-1	1.905784607E0
1.146198910E0	9.830592155E0	-7.398083210E-1	1.860294700E0
1.147516077E0	9.849745750E0	-7.326257229E-1	1.800439715E0
1.150256218E0	9.888052940E0	-7.158663273E-1	1.726219416E0
1.152140730E0	9.945513725E0	-6.919242740E-1	1.635239720E0
1.154302833E0	1.002212811E1	-6.464344859E-1	1.534683347E0
1.155702230E0	1.014423275E1	-5.650315881E-1	1.448492050E0
1.158360679E0	1.030703831E1	-4.381389022E-1	1.371877551E0
1.160378269E0	1.048420906E1	-2.705447972E-1	1.300051570E0
1.162401602E0	1.062546730E1	-7.661445439E-2	1.233013868E0
1.163741307E0	1.074278259E1	1.077390760E-1	1.177947283E0
1.166459025E0	1.086488724E1	2.729389966E-1	1.185129881E0
1.168285576E0	1.097741508E1	3.926490843E-1	1.244984865E0
1.170353846E0	1.110670185E1	4.860229492E-1	1.290474772E0
1.171765153E0	1.124795914E1	5.626373887E-1	1.300051570E0
1.174548756E0	1.145146656E1	5.913678408E-1	1.259350061E0
1.176437153E0	1.158075333E1	6.009446383E-1	1.221042871E0
1.178595448E0	1.171482849E1	5.650315881E-1	1.192312479E0
1.180019192E0	1.187524033E1	5.075707436E-1	1.158793569E0
1.182599179E0	1.203804588E1	4.644751251E-1	1.146822572E0
1.184560884E0	1.218169785E1	3.950432837E-1	1.163581967E0
1.186595487E0	1.229901409E1	2.896983922E-1	1.221042871E0
1.187849269E0	1.238041687E1	1.771709323E-1	1.264138460E0
1.190653217E0	1.242590714E1	5.506663769E-2	1.216254473E0
1.192682294E0	1.241393566E1	-6.943184882E-2	1.089361787E0
1.194684525E0	1.234929276E1	-2.202665508E-1	1.039083481E0
1.195986807E0	1.226549530E1	-4.118026793E-1	1.204283476E0
1.198741641E0	1.216254425E1	-6.033388376E-1	1.446097851E0
1.200770794E0	1.202368069E1	-7.278373241E-1	1.551442742E0
1.202765256E0	1.188002872E1	-8.020575643E-1	1.486799240E0
1.204152461E0	1.173877048E1	-8.690952063E-1	1.395819545E0
1.206822871E0	1.159990692E1	-9.385270476E-1	1.307234168E0
1.208774000E0	1.151611042E1	-1.022324085E0	1.173158884E0
1.210719807E0	1.147780323E1	-1.089361787E0	9.959878922E-1
1.212107423E0	1.150653362E1	-1.163581967E0	8.331822157E-1
1.214675769E0	1.157835960E1	-1.261744261E0	7.852981687E-1
1.216923692E0	1.164539719E1	-1.369483352E0	8.403648138E-1
1.218941910E0	1.172440529E1	-1.522712231E0	1.019929886E0
1.220315692E0	1.183693314E1	-1.750161409E0	1.235408068E0
1.222936833E0	1.190397072E1	-1.905784607E0	1.340752959E0
1.224873423E0	1.190636539E1	-1.889025092E0	1.350329757E0
1.226948064E0	1.188481712E1	-1.836352706E0	1.321599364E0
1.228292730E0	1.187045193E1	-1.824381709E0	1.273715258E0
1.230987807E0	1.185608673E1	-1.826775908E0	1.233013868E0
1.232948384E0	1.182735634E1	-1.831564307E0	1.230619669E0
1.235036948E0	1.180102062E1	-1.766920805E0	1.223437071E0
1.236238307E0	1.180102062E1	-1.630451322E0	1.142034173E0
1.239094794E0	1.181059742E1	-1.575384736E0	1.110909581E0
1.241094038E0	1.182496262E1	-1.561019540E0	1.103726983E0
1.243135640E0	1.186326981E1	-1.503558636E0	1.106121182E0
1.244339038E0	1.190875912E1	-1.477222443E0	1.027112484E0
1.247192217E0	1.196861458E1	-1.383848548E0	8.834604025E-1
1.249084500E0	1.202128696E1	-1.221042871E0	8.930372596E-1
1.251003461E0	1.201410389E1	-1.149216771E0	1.086967587E0
1.252525384E0	1.194946098E1	-1.165976286E0	1.177947283E0
1.255265538E0	1.188002872E1	-1.156399369E0	1.055842996E0
1.257188538E0	1.178904915E1	-1.108515382E0	7.709329724E-1
1.259326833E0	1.176031876E1	-1.072602391E0	3.854664862E-1
1.260673500E0	1.171482849E1	-1.024718285E0	2.920926213E-1
1.263322140E0	1.163103199E1	-9.696516991E-1	5.841852427E-1
1.265316525E0	1.158793640E1	-9.145850539E-1	8.236053586E-1
1.267318371E0	1.158075333E1	-9.145850539E-1	7.781155705E-1
1.268531346E0	1.158793640E1	-8.954314590E-1	6.320692301E-1
1.271374948E0	1.169088650E1	-6.584054828E-1	4.860229492E-1
1.273389307E0	1.184650993E1	-3.974374831E-1	2.801215947E-1
1.275420102E0	1.193748951E1	-3.256114423E-1	1.795651317E-1
1.276637538E0	1.195903778E1	-3.495534360E-1	3.016694188E-1
1.279476717E0	1.198297977E1	-3.399766386E-1	5.363011956E-1
1.281412923E0	1.201171017E1	-3.160346150E-1	5.147533417E-1
1.283516025E0	1.201410389E1	-2.609679997E-1	1.460463107E-1
1.284721192E0	1.201889229E1	-1.101332754E-1	-3.184288144E-1
1.287572640E0	1.199255657E1	2.801215947E-1	-2.489969730E-1
1.289411423E0	1.179144382E1	4.620809257E-1	2.370259613E-1
1.291356846E0	1.162624359E1	5.889736414E-1	6.416460276E-1
1.292833269E0	1.159751320E1	7.637503147E-1	7.278373241E-1
1.295507769E0	1.152329254E1	7.996633649E-1	7.709329724E-1
1.297585884E0	1.141794777E1	7.565677166E-1	8.116343617E-1
1.299705794E0	1.129105568E1	7.062895298E-1	8.116343617E-1
1.301051615E0	1.117134476E1	6.775590777E-1	7.948749661E-1
1.303709102E0	1.123120022E1	8.882488012E-1	7.278373241E-1
1.305703025E0	1.136527538E1	1.225831270E0	6.871358752E-1
1.307704832E0	1.138921738E1	1.436521053E0	7.445967197E-1
1.308916653E0	1.129105568E1	1.513135433E0	8.667010069E-1
1.311761332E0	1.113303757E1	1.532289028E0	9.624691010E-1
1.313747576E0	1.094389629E1	1.503558636E0	1.007958889E0
1.315792217E0	1.073799419E1	1.426944256E0	1.053448796E0
1.316992461E0	1.053448772E1	1.347935557E0	1.065419793E0
1.319848679E0	1.031661510E1	1.256955862E0	9.768342972E-1
1.321867538E0	1.015380955E1	1.182735682E0	9.409212470E-1
1.323903948E0	1.002212811E1	1.091755986E0	1.041477680E0
1.325115999E0	9.892841339E0	9.864110947E-1	1.086967587E0
1.327960602E0	9.775525093E0	9.241618514E-1	9.792284966E-1
1.329828923E0	9.634267807E0	9.121908545E-1	8.259995580E-1
1.331733230E0	9.445125580E0	9.241618514E-1	7.374141216E-1
1.333202769E0	9.222464561E0	9.241618514E-1	7.565677166E-1
1.336048140E0	9.011775017E0	9.576807022E-1	8.116343617E-1
1.337918230E0	8.817844391E0	1.065419793E0	8.140285611E-1
1.340079486E0	8.588001251E0	1.268926859E0	9.816226959E-1
1.341428923E0	8.343792915E0	1.513135433E0	1.525106430E0
1.344073332E0	8.157045364E0	1.594538331E0	2.403778553E0
1.345921730E0	8.001421928E0	1.419761658E0	3.459621429E0
1.348084102E0	7.869740963E0	1.110909581E0	4.319139957E0
1.349311461E0	7.690176010E0	8.571242094E-1	4.797980309E0
1.352140794E0	7.450755596E0	6.895300746E-1	4.934449673E0
1.353982423E0	7.168240070E0	5.506663918E-1	4.845864296E0
1.356171678E0	6.871358871E0	3.926490843E-1	4.752490520E0
1.357599653E0	6.564900875E0	2.059013397E-1	4.730942726E0
1.360227794E0	6.263231754E0	-1.675941236E-2	4.762067318E0
1.362256140E0	5.889736176E0	-2.561795712E-1	4.759673119E0
1.364267448E0	5.497087002E0	-4.548983276E-1	4.604049683E0
1.365604923E0	5.128379822E0	-6.177040339E-1	4.362235546E0
1.368323371E0	4.860229492E0	-7.924807668E-1	4.156333923E0
1.370168192E0	4.671087742E0	-9.768342972E-1	4.058171749E0
1.372120615E0	4.522646904E0	-1.125274777E0	3.948038578E0
1.373657230E0	4.448426723E0	-1.233013868E0	3.742137194E0
1.376147115E0	4.350264549E0	-1.441309452E0	3.450044632E0
1.378262384E0	4.319139957E0	-1.745373011E0	3.232172251E0
1.380455948E0	4.374206543E0	-2.035071373E0	3.069366693E0
1.381859153E0	4.407725334E0	-2.272097349E0	2.870647907E0
1.384448601E0	4.407725334E0	-2.398990154E0	2.652775526E0
1.386281115E0	4.424484730E0	-2.446874142E0	2.439691544E0
1.388444640E0	4.460397720E0	-2.489969730E0	2.250549555E0
1.390066922E0	4.525041103E0	-2.614468336E0	2.140416384E0
1.392500909E0	4.635174274E0	-2.765302896E0	2.092532396E0
1.394529717E0	4.829104900E0	-2.865859509E0	1.900996208E0
1.396558217E0	5.003881454E0	-2.887407303E0	1.774103403E0
1.397839730E0	5.236119270E0	-2.928108692E0	1.719036818E0
1.400605832E0	5.540182590E0	-2.983175278E0	1.745373011E0
1.402634563E0	5.825092793E0	-2.983175278E0	1.764526606E0
1.404645255E0	6.002263546E0	-2.911349297E0	1.683123827E0
1.406031038E0	5.983109951E0	-2.782062292E0	1.510741234E0
1.408702140E0	5.767632008E0	-2.626439333E0	1.338358760E0
1.410640884E0	5.458779812E0	-2.494758129E0	1.185129881E0
1.412598730E0	5.152322292E0	-2.396595955E0	1.036689281E0
1.413988846E0	4.929661274E0	-2.317587137E0	8.499416113E-1
1.416730192E0	4.788403511E0	-2.255337954E0	6.177040339E-1
1.418647615E0	4.642356873E0	-2.121262789E0	1.651999205E-1
1.420834024E0	4.479551315E0	-1.877054095E0	-6.105214357E-1
1.422190922E0	4.314351559E0	-1.539471745E0	-1.635239720E0
1.424837192E0	4.096478939E0	-1.134851575E0	-2.961627483E0
1.426653076E0	3.653551817E0	-6.464344859E-1	-4.853046894E0
1.428834601E0	2.798821688E0	7.182605099E-3	-7.685387611E0
1.430135076E0	1.204283476E0	9.074024558E-1	-1.190157700E1
1.432891293E0	-8.379706144E-1	1.905784607E0	-1.661097145E1
1.434774807E0	-3.708618402E0	3.004723072E0	-2.029325294E1
1.436923217E0	-9.715670586E0	4.903325081E0	-2.405933380E1
1.438366576E0	-1.567244434E1	6.746860504E0	-2.700420189E1
1.440980678E0	-1.623029327E1	7.082048416E0	-2.557246780E1
1.442958307E0	-1.249294472E1	6.148310184E0	-1.907221031E1
1.445004293E0	-7.520187378E0	4.879383087E0	-1.188960552E1
1.446346346E0	-3.830722809E0	4.156333923E0	-7.163451672E0
1.449061255E0	-2.662352324E0	3.907337189E0	-4.335899353E0
1.450944615E0	-2.078166962E0	3.258508444E0	-8.283938169E-1
1.452934615E0	-2.681505978E-1	2.576161146E0	2.200271368E0
1.454313576E0	1.015141487E0	2.401384354E0	3.421314240E0
1.456897422E0	1.194706678E0	2.640804529E0	3.244143248E0
1.459099999E0	7.948749661E-1	3.023876667E0	2.695871115E0
1.461179601E0	2.250549644E-1	3.505111217E0	2.221819162E0
1.462544769E0	-4.261679053E-1	4.022258759E0	1.893813491E0
1.465172293E0	-1.244984865E0	4.572925091E0	1.946485996E0
1.467095230E0	-1.977610588E0	5.085284233E0	2.274491549E0
1.469182986E0	-2.327163935E0	5.415684223E0	2.693476915E0
1.470478961E0	-2.415749550E0	5.714959621E0	3.033453465E0
1.473239832E0	-2.521094322E0	6.184223175E0	3.397372246E0
1.475264346E0	-2.784456491E0	6.854599476E0	3.991134167E0
1.477270332E0	-3.105279684E0	7.615955830E0	4.805162907E0
1.478634769E0	-3.337517262E0	8.362946510E0	5.652710438E0
1.481327601E0	-3.500322819E0	9.050082207E0	6.505045891E0
1.483279076E0	-3.610456228E0	9.655815125E0	7.242460251E0
1.485368024E0	-3.682282209E0	1.019929886E1	7.750030994E0
1.486665307E0	-3.756502390E0	1.067574501E1	8.042123795E0
1.489424947E0	-3.904942989E0	1.110670185E1	8.243236542E0
1.491352922E0	-4.039018154E0	1.152808094E1	8.403648376E0
1.493314538E0	-4.137180328E0	1.197100830E1	8.559270859E0
1.494686076E0	-4.228160381E0	1.243548393E1	8.719682693E0
1.497366153E0	-4.338293552E0	1.328303146E1	8.748413086E0
1.499549884E0	-4.462791920E0	1.409466553E1	8.473079681E0
1.501559562E0	-4.673481941E0	1.506431675E1	7.975085735E0
1.503163576E0	-4.970362663E0	1.584243298E1	7.295132637E0
1.505552524E0	-5.348646641E0	1.633324432E1	6.447585106E0
1.507546909E0	-5.719748020E0	1.674265289E1	5.489904404E0
1.509548486E0	-5.951985359E0	1.722867584E1	4.515464306E0
1.510998384E0	-6.078877926E0	1.786074448E1	3.763684988E0
1.513605562E0	-6.189011574E0	1.867237854E1	3.263296843E0
1.515633947E0	-6.351817131E0	1.968991470E1	2.928108692E0
1.517650524E0	-6.567295074E0	2.077927589E1	2.284068346E0
1.518885461E0	-6.509834290E0	2.158133507E1	7.230489254E-1
1.521707062E0	-6.347028732E0	2.246240044E1	-4.141969085E-1
1.523653422E0	-6.325480938E0	2.363795280E1	-9.337386489E-1
1.525747409E0	-6.102819920E0	2.486857224E1	-1.525106430E0
1.526991269E0	-5.559336185E0	2.595075226E1	-2.384624958E0
1.529805255E0	-4.496310711E0	2.675520325E1	-3.035847664E0
1.531683269E0	-2.638410330E0	2.730826378E1	-3.339911461E0
1.533602269E0	-1.434126854E0	2.779668236E1	-3.529053211E0
1.535131269E0	-7.374141216E-1	2.824439812E1	-3.907337189E0
1.537732961E0	-1.221042871E-1	2.860592270E1	-4.544194698E0
1.539739730E0	6.655880809E-1	2.879985237E1	-5.315127850E0
1.541940639E0	1.697489023E0	2.881421661E1	-6.078877926E0
1.543380461E0	3.155557871E0	2.856521988E1	-6.600813866E0
1.545952639E0	4.637568474E0	2.811989975E1	-7.077260017E0
1.547807576E0	6.232107162E0	2.749501228E1	-7.412448406E0
1.549949255E0	8.231265068E0	2.668337822E1	-7.345410824E0
1.551220115E0	1.017296314E1	2.575682259E1	-7.046135426E0
1.554006139E0	1.227267838E1	2.478238106E1	-6.749254704E0
1.555897692E0	1.449449730E1	2.380075836E1	-6.426037312E0
1.558037139E0	1.667322159E1	2.277364731E1	-6.126761913E0
1.559270076E0	1.872983932E1	2.172977448E1	-5.851428986E0
1.562093985E0	2.052788544E1	2.064280701E1	-5.482721806E0
1.564037269E0	2.204820251E1	1.946246529E1	-4.929661274E0
1.566148601E0	2.325248718E1	1.821748161E1	-4.276044369E0
1.567349499E0	2.414791870E1	1.695812988E1	-3.632004023E0
1.570205755E0	2.470337296E1	1.568441486E1	-3.023876667E0
1.572037922E0	2.444479942E1	1.438915253E1	-2.444479942E0
1.574186192E0	2.274970436E1	1.308191776E1	-1.814804912E0
1.575617615E0	1.996764183E1	1.182496262E1	-1.072602391E0
1.578239192E0	1.681926727E1	1.064222622E1	-2.896983922E-1
1.580222999E0	1.388876438E1	9.574412346E0	4.213795066E-1
1.582325908E0	1.138921738E1	8.621520042E0	1.041477680E0
1.583681615E0	9.351752281E0	7.781155586E0	1.539471745E0
1.586320293E0	8.216899872E0	7.149086475E0	1.865083098E0
1.588271153E0	8.384494781E0	6.694188118E0	1.980004787E0
1.590332331E0	8.341399193E0	6.184223175E0	2.037465572E0
1.591633884E0	7.814674377E0	5.705382824E0	2.133233786E0
1.594389485E0	7.295132637E0	5.324704647E0	2.200271368E0
1.596230038E0	6.974309444E0	5.006275654E0	2.159569979E0
1.598420831E0	6.811503887E0	4.726154327E0	2.015917778E0
1.599662922E0	6.825869083E0	4.539406300E0	1.757344007E0
1.602478062E0	7.072471619E0	4.527435303E0	1.295263171E0
1.604470192E0	7.295132637E0	4.120420933E0	9.672574997E-1
1.606518447E0	6.962338448E0	3.811569214E0	1.122880578E0
1.607738615E0	6.533776283E0	3.701435804E0	1.206677675E0
1.610575447E0	6.217741966E0	3.684676409E0	1.113303781E0
1.612504422E0	5.997475147E0	3.691859007E0	9.481038451E-1
1.614495115E0	5.820304394E0	3.766079187E0	8.116343617E-1
1.615860807E0	5.681440830E0	3.928884983E0	6.607996821E-1
1.618388576E0	5.592854977E0	4.182670593E0	3.734954596E-1
1.620532576E0	5.597643375E0	4.465186119E0	7.182605099E-3
1.622709985E0	5.600037575E0	4.697423935E0	-1.268926859E-1
1.624161384E0	5.492298603E0	4.917690277E0	-9.097966552E-2
1.626705100E0	5.298368454E0	5.221754074E0	-1.771709323E-1
1.628635115E0	5.135562420E0	5.573701382E0	-4.189853072E-1
1.630701293E0	4.963180065E0	5.868188381E0	-5.434837937E-1
1.632350499E0	4.807557106E0	6.148310184E0	-5.985504389E-1
1.634758716E0	4.726154327E0	6.428431511E0	-7.110779285E-1
1.636616807E0	4.616020679E0	6.670246124E0	-7.996633649E-1
1.638804139E0	4.431667328E0	6.892906666E0	-8.283938169E-1
1.640074922E0	4.283226967E0	7.105990410E0	-8.643068075E-1
1.642852922E0	4.220977783E0	7.299921036E0	-9.337386489E-1
1.644820807E0	4.209006786E0	7.431602001E0	-9.983820915E-1
1.646902062E0	4.223371983E0	7.491456985E0	-1.041477680E0
1.648083884E0	4.307168961E0	7.510610580E0	-1.060631394E0
1.650958908E0	4.446032524E0	7.524975777E0	-1.058237195E0
1.652766615E0	4.635174274E0	7.524975777E0	-1.091755986E0
1.654714153E0	4.924872875E0	7.496245384E0	-1.173158884E0
1.656187192E0	5.269638062E0	7.429207802E0	-1.249773264E0
1.658815884E0	5.647922039E0	7.331045628E0	-1.300051570E0
1.660915807E0	6.014234543E0	7.223306656E0	-1.319205165E0
1.663087422E0	6.368576527E0	7.113173485E0	-1.295263171E0
1.664410730E0	6.677428722E0	7.000645638E0	-1.233013868E0
1.667082538E0	6.885724068E0	6.897695065E0	-1.137245774E0
1.668873538E0	7.019799232E0	6.799532890E0	-1.029506683E0
1.671089677E0	7.079654217E0	6.706159115E0	-9.145850539E-1
1.672354192E0	7.072471619E0	6.646304131E0	-7.852981687E-1
1.675127153E0	7.096413612E0	6.603208065E0	-6.440402865E-1
1.676965115E0	7.094019413E0	6.550535679E0	-4.740519226E-1
1.679177100E0	7.058106422E0	6.512228489E0	-3.088520169E-1
1.680358230E0	7.017405033E0	6.517016888E0	-1.628057212E-1
1.683212768E0	6.991068840E0	6.560112476E0	-5.506663769E-2
1.685211807E0	6.943184853E0	6.593631268E0	5.746084079E-2
1.687254038E0	6.873753071E0	6.634333134E0	1.843535304E-1
1.688492884E0	6.761225700E0	6.687005520E0	3.112462163E-1
1.691295461E0	6.610390663E0	6.744466305E0	4.189853072E-1
1.693114461E0	6.485892296E0	6.780379295E0	5.003881454E-1
1.695114461E0	6.382941723E0	6.813898087E0	5.602431893E-1
1.696532961E0	6.270414352E0	6.868964672E0	6.153098345E-1
1.699098845E0	6.160281181E0	6.926425457E0	6.512228847E-1
1.701229422E0	6.093243122E0	6.983886242E0	6.631938815E-1
1.703431292E0	6.052541733E0	7.036558628E0	6.655880809E-1
1.704807422E0	6.019022942E0	7.079654217E0	6.607996821E-1
1.707426139E0	5.980715752E0	7.120356083E0	6.512228847E-1
1.709231999E0	5.966350555E0	7.158663273E0	6.129156351E-1
1.711435946E0	5.971138954E0	7.208941460E0	5.578489900E-1
1.712650153E0	5.987898350E0	7.252037048E0	4.836287498E-1
1.715492062E0	6.045359135E0	7.285555840E0	3.423708379E-1
1.717327461E0	6.054935932E0	7.319074631E0	2.489969730E-1
1.719521985E0	6.054935932E0	7.347805023E0	1.556231081E-1
1.720762961E0	6.035782337E0	7.343016624E0	1.197100878E-1
1.723578754E0	5.966350555E0	7.309497833E0	1.412578970E-1
1.725607292E0	5.875370979E0	7.290344238E0	1.268926859E-1
1.727618215E0	5.813121796E0	7.309497833E0	5.027823523E-2
1.728958922E0	5.786785603E0	7.347805023E0	-4.548983276E-2
1.731675023E0	5.772420406E0	7.378929615E0	-1.412578970E-1
1.733580345E0	5.758055210E0	7.407660007E0	-2.346317619E-1
1.735505268E0	5.762843609E0	7.436390400E0	-3.280056417E-1
1.737158115E0	5.815515995E0	7.462726593E0	-4.285621047E-1
1.739637115E0	5.904101372E0	7.489062786E0	-5.315127969E-1
1.741623230E0	6.016628742E0	7.510610580E0	-6.320692301E-1
1.743807985E0	6.090848923E0	7.520187378E0	-7.110779285E-1
1.745208038E0	6.105214119E0	7.544129372E0	-7.661445141E-1
1.747802138E0	6.102819920E0	7.584830761E0	-8.092401624E-1
1.749671422E0	6.112396717E0	7.632715225E0	-8.331822157E-1
1.751798638E0	6.126761913E0	7.663839817E0	-8.523358107E-1
1.753038538E0	6.133944988E0	7.685387611E0	-8.714894056E-1
1.755855292E0	6.148310184E0	7.726089001E0	-8.738836050E-1
1.757735499E0	6.181828976E0	7.773972988E0	-8.762778044E-1
1.759900677E0	6.217741966E0	7.829039574E0	-8.810662031E-1
1.761109076E0	6.224924564E0	7.869740963E0	-8.714894056E-1
1.763957446E0	6.181828976E0	7.893682957E0	-8.403648138E-1
1.765911153E0	6.119579315E0	7.912836552E0	-8.020575643E-1
1.767997331E0	6.064512730E0	7.922413349E0	-7.565677166E-1
1.769227884E0	6.045359135E0	7.908048153E0	-7.110779285E-1
1.772054523E0	6.033388138E0	7.884106159E0	-6.488286853E-1
1.773868691E0	6.011840343E0	7.848193169E0	-5.770025849E-1
1.775819999E0	5.973533154E0	7.802703381E0	-4.932055473E-1
1.777286691E0	5.961562157E0	7.762001991E0	-4.022258818E-1
1.779873230E0	6.035782337E0	7.742848396E0	-3.040636182E-1
1.781996961E0	6.215347767E0	7.723694801E0	-2.202665508E-1
1.784185177E0	6.311115742E0	7.663839817E0	-1.460463107E-1
1.785867576E0	6.337451935E0	7.565677166E0	-9.576806426E-2
1.788188331E0	6.399701118E0	7.496245384E0	-6.224924326E-2
1.790182292E0	6.459556103E0	7.496245384E0	1.675941236E-2
1.792184177E0	6.526593685E0	7.568071365E0	7.900865376E-2
1.793382153E0	6.584054470E0	7.673416615E0	8.619125932E-2
1.796240715E0	6.567295074E0	7.733271599E0	9.816227108E-2
1.798234768E0	6.454767704E0	7.800309181E0	1.460463107E-1
1.800271523E0	6.299144745E0	7.876923561E0	2.178723514E-1
1.801505153E0	6.268020153E0	7.864952564E0	2.729389966E-1
1.804328331E0	6.318298340E0	7.807491779E0	2.466027737E-1
1.806274114E0	6.430825710E0	7.831433773E0	2.011129409E-1
1.808357807E0	6.524199486E0	7.910442352E0	1.723825186E-1
1.809587884E0	6.564900875E0	7.977479935E0	1.221042871E-1
1.812436461E0	6.521805286E0	8.051700592E0	2.154781483E-2
1.814230038E0	6.505045891E0	8.116343498E0	-1.604115069E-1
1.816196422E0	6.663063526E0	8.128314972E0	-4.285621047E-1
1.817666076E0	6.847416878E0	8.068459511E0	-6.943184733E-1
1.820318038E0	6.797138691E0	7.943961143E0	-8.834604025E-1
1.822353653E0	6.519411087E0	7.903259754E0	-8.044517636E-1
1.824555907E0	6.189011574E0	7.934384346E0	-6.081272364E-1
1.825933384E0	5.932831764E0	8.001421928E0	-4.094084799E-1
1.828550484E0	5.801150799E0	8.092401505E0	-2.896983922E-1
1.830544946E0	5.717353821E0	8.204929352E0	-2.466027737E-1
1.832562023E0	5.640739441E0	8.341399193E0	-2.681505978E-1
1.833816999E0	5.571307182E0	8.477868080E0	-3.399766386E-1
1.836619715E0	5.516240597E0	8.573636055E0	-4.548983276E-1
1.838513922E0	5.477933407E0	8.638279915E0	-6.153098345E-1
1.840651484E0	5.477933407E0	8.655038834E0	-7.924807668E-1
1.841873999E0	5.497087002E0	8.633491516E0	-9.576807022E-1
1.844708369E0	5.499481201E0	8.599972725E0	-1.096544385E0
1.846669153E0	5.456385612E0	8.554482460E0	-1.197100878E0
1.848748061E0	5.379771233E0	8.520963669E0	-1.273715258E0
1.849982999E0	5.288791656E0	8.482656479E0	-1.319205165E0
1.852805023E0	5.216965675E0	8.434772491E0	-1.323993564E0
1.854735422E0	5.166687489E0	8.372523308E0	-1.314416766E0
1.856636384E0	5.128379822E0	8.310274124E0	-1.290474772E0
1.858073345E0	5.085284233E0	8.233659744E0	-1.247379065E0
1.860662191E0	5.056553841E0	8.157045364E0	-1.185129881E0
1.862785884E0	5.068524837E0	8.080430984E0	-1.108515382E0
1.864937215E0	5.145139217E0	7.996633530E0	-1.034295082E0
1.866280653E0	5.272032261E0	7.905653954E0	-9.481038451E-1
1.868931100E0	5.394136429E0	7.812280178E0	-8.379706144E-1
1.870812461E0	5.504269600E0	7.738059998E0	-7.398083210E-1
1.872927100E0	5.585672379E0	7.682993412E0	-6.847416759E-1
1.874194384E0	5.652710438E0	7.620744228E0	-6.560112834E-1
1.876984176E0	5.710171223E0	7.548917770E0	-6.177040339E-1
1.878843499E0	5.770026207E0	7.455543995E0	-5.722141862E-1
1.881029715E0	5.825092793E0	7.371747017E0	-5.195417404E-1
1.882301961E0	5.872976780E0	7.287950039E0	-4.740519226E-1
1.885086484E0	5.947196960E0	7.180211067E0	-4.525041282E-1
1.887048461E0	6.016628742E0	7.082048416E0	-4.453215301E-1
1.889127523E0	6.038176537E0	7.005434036E0	-4.285621047E-1
1.890321499E0	6.057330132E0	6.928819656E0	-3.950432837E-1
1.893184753E0	6.138733387E0	6.840234280E0	-3.495534360E-1
1.895213830E0	6.289567947E0	6.763619900E0	-3.184288144E-1
1.896972114E0	6.485892296E0	6.720524311E0	-3.112462163E-1
1.898479845E0	6.658275127E0	6.703764915E0	-3.112462163E-1
1.901085153E0	6.866570473E0	6.742072105E0	-3.160346150E-1
1.903176845E0	7.036558628E0	6.833051682E0	-3.567360640E-1
1.905318984E0	7.022193432E0	6.890512466E0	-3.806780577E-1
1.906690922E0	6.902483463E0	6.904877663E0	-3.998316824E-1
1.909321946E0	6.833051682E0	6.876147270E0	-4.285621047E-1
1.911251614E0	6.845022678E0	6.904877663E0	-4.548983276E-1
1.913317753E0	6.775590897E0	7.015010834E0	-4.668693244E-1
1.914576614E0	6.545747280E0	7.134721279E0	-4.836287498E-1
1.917374253E0	6.380547523E0	7.218518257E0	-4.740519226E-1
1.919402945E0	6.303933144E0	7.235277653E0	-4.285621047E-1
1.921405176E0	6.327875137E0	7.223306656E0	-3.471592367E-1
1.922726691E0	6.248866558E0	7.252037048E0	-2.561795712E-1
1.925461830E0	5.724536419E0	7.450755596E0	-1.460463107E-1
1.927440499E0	5.702988625E0	7.599195957E0	-1.244984865E-1
1.929485176E0	5.872976780E0	7.594407558E0	-5.746084079E-2
1.930686384E0	5.978321552E0	7.541735172E0	2.154781483E-2
1.933542407E0	6.167463779E0	7.479485989E0	5.027823523E-2
1.935377384E0	6.478709698E0	7.374141216E0	2.394201700E-3
1.937328114E0	6.730101109E0	7.242460251E0	-1.077390760E-1
1.938786461E0	6.878541470E0	7.139509678E0	-1.963245422E-1
1.941355076E0	6.950367451E0	7.091625214E0	-2.274491638E-1
1.943543114E0	6.921637058E0	7.096413612E0	-2.106897533E-1
1.945663176E0	6.816292286E0	7.156269073E0	-1.939303428E-1
1.947135614E0	6.732495308E0	7.232883453E0	-2.082955539E-1
1.949657715E0	6.694188118E0	7.278373241E0	-2.633621991E-1
1.951551614E0	6.708553314E0	7.283161640E0	-3.256114423E-1
1.953668792E0	6.670246124E0	7.086836815E0	-2.442085743E-1
1.954906076E0	6.500257492E0	6.658275127E0	-1.675941236E-2
1.957726407E0	6.308721542E0	6.260837555E0	7.900865376E-2
1.959589499E0	6.136339188E0	5.959167957E0	-2.633621916E-2
1.961758061E0	6.107608318E0	5.777208805E0	-1.771709323E-1
1.963002499E0	5.916072369E0	5.564124584E0	-2.250549644E-1
1.965815368E0	5.707777023E0	5.185841084E0	-2.059013397E-1
1.967776884E0	5.509057999E0	4.740519524E0	-1.819593310E-1
1.969856984E0	5.327098846E0	4.469974518E0	-1.244984865E-1
1.971046807E0	5.228936672E0	4.522646904E0	-1.101332754E-1
1.973914022E0	5.209783077E0	4.718971729E0	-1.077390760E-1
1.975747461E0	5.365406036E0	4.948814869E0	-1.532289088E-1
1.977745768E0	5.640739441E0	5.221754074E0	-2.418143749E-1
1.979160537E0	5.956773758E0	5.540182590E0	-3.974374831E-1
1.981798730E0	6.306327343E0	5.899312973E0	-6.057330370E-1
1.983868537E0	6.670246124E0	6.253654957E0	-8.307880163E-1
1.986047214E0	6.967126846E0	6.591237068E0	-1.074996591E0
1.987528845E0	7.228095055E0	6.928819656E0	-1.302445769E0
1.990042407E0	7.457938194E0	7.216124058E0	-1.472434044E0
1.991894384E0	7.644686222E0	7.429207802E0	-1.616086125E0
1.994039061E0	7.769184589E0	7.589619160E0	-1.788468719E0
1.995354730E0	7.838616371E0	7.716512203E0	-1.910573006E0
1.998096714E0	7.857769966E0	7.795520782E0	-1.927332401E0
1.999942845E0	7.838616371E0	7.829039574E0	-1.855506301E0
2.002143561E0	7.814674377E0	7.814674377E0	-1.716642618E0
2.003374961E0	7.841010571E0	7.764396191E0	-1.539471745E0
2.006201022E0	7.931990147E0	7.718906403E0	-1.340752959E0
2.008124384E0	8.030152321E0	7.697358608E0	-1.113303781E0
2.010239999E0	8.116343498E0	7.690176010E0	-8.643068075E-1
2.011568961E0	8.228871346E0	7.709329605E0	-6.440402865E-1
2.014298907E0	8.350975990E0	7.762001991E0	-4.836287498E-1
2.016147922E0	8.441955566E0	7.860164165E0	-3.711012602E-1
2.018069768E0	8.477868080E0	8.015787125E0	-2.561795712E-1
2.019540153E0	8.489839554E0	8.209717751E0	-1.292868853E-1
2.022041576E0	8.504204750E0	8.446743965E0	-4.548983276E-2
2.024287268E0	8.482656479E0	8.678980827E0	7.182605099E-3
2.026433368E0	8.379706383E0	8.939949036E0	9.576806799E-3
2.027944884E0	8.348581314E0	9.172186852E0	9.337386489E-2
2.030436984E0	8.283937454E0	9.366117477E0	2.466027737E-1
2.032319384E0	8.094796181E0	9.516951561E0	4.141969085E-1
2.034433060E0	7.838616371E0	9.624691010E0	5.339069963E-1
2.035654768E0	7.501033783E0	9.715670586E0	6.009446383E-1
2.038489676E0	6.979097843E0	9.763554573E0	6.224924326E-1
2.040321845E0	6.679822922E0	9.725247383E0	5.889736414E-1
2.042521022E0	6.440402508E0	9.627084732E0	5.267243981E-1
2.043823037E0	6.229712963E0	9.526528358E0	4.477157295E-1
2.046578791E0	6.071695328E0	9.414001465E0	3.687070608E-1
2.048608099E0	5.961562157E0	9.291896820E0	2.777273953E-1
2.050634560E0	5.894524574E0	9.174580574E0	1.580173075E-1
2.051916076E0	5.882553577E0	9.050082207E0	3.351882473E-2
2.054691791E0	5.920860767E0	8.904036522E0	-7.661445439E-2
2.056574845E0	5.995080948E0	8.726864815E0	-1.508347094E-1
2.058540345E0	6.014234543E0	8.588001251E0	-1.867477298E-1
2.059937922E0	5.973533154E0	8.487444878E0	-2.035071403E-1
2.062723191E0	5.899312973E0	8.408436775E0	-1.915361285E-1
2.064637114E0	5.839457989E0	8.348581314E0	-1.604115069E-1
2.066811406E0	5.810727596E0	8.295908928E0	-1.173158810E-1
2.068214268E0	5.774814606E0	8.240841866E0	-6.224924326E-2
2.070806214E0	5.695806026E0	8.178592682E0	-1.675941236E-2
2.072647499E0	5.542576790E0	8.152256966E0	7.182605099E-3
2.074818137E0	5.413290024E0	8.142680168E0	-7.182605099E-3
2.076544653E0	5.293580055E0	8.133103371E0	2.394201700E-3
2.078875983E0	5.171475887E0	8.130708694E0	3.112462163E-2
2.080737960E0	5.080495834E0	8.173804283E0	6.464344263E-2
2.082906829E0	4.939238071E0	8.233659744E0	1.316810995E-1
2.084156614E0	4.764461517E0	8.283937454E0	1.771709323E-1
2.086964753E0	4.604049683E0	8.319850922E0	1.987187415E-1
2.088994022E0	4.532223701E0	8.339004517E0	1.843535304E-1
2.091005906E0	4.690241337E0	8.305485725E0	2.442085743E-1
2.092380691E0	5.104437828E0	8.149862289E0	3.758896589E-1
2.095063983E0	5.331887245E0	7.941566944E0	4.860229492E-1
2.096906884E0	4.580107689E0	7.814674377E0	6.679822803E-1
2.098883999E0	2.566584110E0	8.145073891E0	1.213860273E0
2.100343499E0	2.691082716E0	7.941566944E0	1.096544385E0
2.102884422E0	3.406949043E0	7.496245384E0	1.175553083E0
2.105016537E0	4.448426723E0	7.062894821E0	1.019929886E0
2.107199714E0	5.140350819E0	6.825869083E0	7.996633649E-1
2.108567345E0	5.442020416E0	6.742072105E0	6.224924326E-1
2.111193829E0	5.623979568E0	6.754043102E0	4.261679053E-1
2.113009307E0	5.468356609E0	6.816292286E0	3.112462163E-1
2.115189368E0	5.667075634E0	6.876147270E0	7.182605099E-3
2.116483653E0	5.269638062E0	7.055712223E0	-1.029506698E-1
2.119246983E0	4.893748283E0	7.280767441E0	-4.668693244E-1
2.121102460E0	4.276044369E0	7.594407558E0	-9.409212470E-1
2.123292829E0	3.900154591E0	7.900865555E0	-1.211466074E0
2.124519230E0	3.596091032E0	8.133103371E0	-1.233013868E0
2.127350522E0	3.576937437E0	8.236053467E0	-1.173158884E0
2.129379560E0	3.924096584E0	8.221688271E0	-1.051054597E0
2.131390637E0	4.491522312E0	8.123526573E0	-9.097966552E-1
2.132785845E0	5.176264286E0	7.965508938E0	-8.140285611E-1
2.135447560E0	6.174646378E0	7.678205013E0	-7.852981687E-1
2.137297460E0	6.739677906E0	7.486668587E0	-7.876923680E-1
2.139334153E0	7.086836815E0	7.319074631E0	-7.493851185E-1
2.140717076E0	7.400477409E0	7.177816868E0	-6.919242740E-1
2.143380845E0	7.678205013E0	7.067683220E0	-6.272808313E-1
2.145422845E0	7.762001991E0	6.983886242E0	-5.554547906E-1
2.147582406E0	7.738059998E0	6.931213856E0	-5.003881454E-1
2.149033499E0	7.639897823E0	6.907271862E0	-4.668693244E-1
2.151587445E0	7.520187378E0	6.907271862E0	-4.477157295E-1
2.153581483E0	7.402871609E0	6.897695065E0	-4.357447028E-1
2.155583137E0	7.273584843E0	6.866570473E0	-4.309563041E-1
2.156887037E0	7.151480675E0	6.849811077E0	-4.357447028E-1
2.159640175E0	6.957550049E0	6.864176273E0	-4.237737060E-1
2.161668906E0	6.634333134E0	6.909666061E0	-3.806780577E-1
2.163671368E0	6.224924564E0	6.938396454E0	-2.705447972E-1
2.164960653E0	5.882553577E0	6.885724068E0	-1.723825186E-1
2.167728214E0	5.674258232E0	6.777985096E0	-1.268926859E-1
2.169757445E0	5.647922039E0	6.689399719E0	-1.316810995E-1
2.171751521E0	5.741295815E0	6.600813866E0	-1.795651317E-1
2.173356307E0	5.882553577E0	6.466738701E0	-2.705447972E-1
2.175808983E0	6.076483727E0	6.325480938E0	-3.447650373E-1
2.177653191E0	6.234501362E0	6.200982571E0	-4.046200812E-1
2.179787999E0	6.330269337E0	6.081272125E0	-4.644751251E-1
2.181068960E0	6.387730122E0	5.995080948E0	-5.386953950E-1
2.183694691E0	6.404489517E0	5.935225964E0	-6.009446383E-1
2.185743576E0	6.375759125E0	5.906495571E0	-6.105214357E-1
2.187928406E0	6.320692539E0	5.918466568E0	-5.626373887E-1
2.189278883E0	6.282385349E0	5.947196960E0	-4.860229492E-1
2.191922983E0	6.299144745E0	5.980715752E0	-3.758896589E-1
2.193798768E0	6.409277916E0	6.035782337E0	-2.059013397E-1
2.195934137E0	6.519411087E0	6.105214119E0	-3.830722719E-2
2.197200653E0	6.576871872E0	6.177040577E0	8.858546615E-2
2.199991867E0	6.643909931E0	6.253654957E0	1.628057212E-1
2.201932768E0	6.737283707E0	6.354211330E0	2.082955539E-1
2.204022752E0	6.825869083E0	6.457161903E0	2.466027737E-1
2.205277460E0	6.828263283E0	6.567295074E0	2.753331959E-1
2.208080483E0	6.787561893E0	6.667851925E0	2.920926213E-1
2.210059730E0	6.849811077E0	6.754043102E0	2.968810201E-1
2.212110383E0	7.101202011E0	6.837840080E0	3.256114423E-1
2.213366114E0	7.297526836E0	6.892906666E0	3.471592367E-1
2.216176037E0	7.388506413E0	6.943184853E0	3.830722570E-1
2.218042691E0	7.383718014E0	7.005434036E0	3.974374831E-1
2.219971345E0	7.422025204E0	7.103596210E0	3.926490843E-1
2.221408268E0	7.422025204E0	7.208941460E0	3.926490843E-1
2.224089345E0	7.405265808E0	7.299921036E0	4.070142806E-1
2.226146383E0	7.412448406E0	7.359776020E0	4.046200812E-1
2.228317598E0	7.331045628E0	7.410054207E0	4.070142806E-1
2.229690307E0	7.326257229E0	7.481880188E0	4.070142806E-1
2.232312867E0	7.335834026E0	7.544129372E0	4.213795066E-1
2.234161845E0	7.333439827E0	7.548917770E0	4.213795066E-1
2.236309060E0	7.264008045E0	7.517793179E0	3.854664862E-1
2.237781230E0	7.235277653E0	7.522581577E0	3.327940404E-1
2.240355999E0	7.232883453E0	7.580042362E0	2.729389966E-1
2.242187653E0	7.144298077E0	7.613561630E0	2.178723514E-1
2.244414906E0	7.101202011E0	7.572859764E0	1.244984865E-1
2.245735768E0	7.244854450E0	7.524975777E0	2.154781483E-2
2.248473137E0	7.048529625E0	7.465120792E0	1.005564705E-1
2.250422076E0	6.952761650E0	7.369352818E0	7.422025502E-2
2.252513944E0	7.065289021E0	7.321468830E0	2.154781483E-2
2.253737345E0	7.048529625E0	7.266402245E0	-2.154781483E-2
2.256571521E0	6.967126846E0	7.204153061E0	-5.506663769E-2
2.258417114E0	7.151480675E0	7.168240070E0	-1.316810995E-1
2.260509191E0	7.220912457E0	7.278373241E0	-1.101332754E-1
2.261911460E0	7.015010834E0	7.453149796E0	-4.309562966E-2
2.264387268E0	6.924031258E0	7.532158375E0	-7.900865376E-2
2.266568922E0	7.096413612E0	7.527369976E0	-1.029506698E-1
2.268707098E0	7.137115479E0	7.544129372E0	-2.633621916E-2
2.270163306E0	6.957550049E0	7.587224960E0	6.703764945E-2
2.272714752E0	6.761225700E0	7.623138428E0	1.675941199E-1
2.274562614E0	6.634333134E0	7.575253963E0	2.346317619E-1
2.276710752E0	6.421248913E0	7.501033783E0	2.466027737E-1
2.277923576E0	6.174646378E0	7.445967197E0	1.843535304E-1
2.280768367E0	5.975927353E0	7.402871609E0	3.351882473E-2
2.282585345E0	5.908889771E0	7.333439827E0	-1.723825186E-1
2.284800252E0	6.002263546E0	7.213729858E0	-3.471592367E-1
2.286014768E0	6.174646378E0	7.101202011E0	-4.213795066E-1
2.288857636E0	6.332663536E0	7.127538681E0	-3.399766386E-1
2.290875614E0	6.471527100E0	7.328651428E0	-1.604115069E-1
2.292913559E0	6.543353081E0	7.508216381E0	2.154781483E-2
2.294187691E0	6.457161903E0	7.570465565E0	1.699883193E-1
2.296971406E0	6.349422932E0	7.515398979E0	2.681505978E-1
2.298791845E0	6.354211330E0	7.395689011E0	2.418143749E-1
2.300734730E0	6.442796707E0	7.280767441E0	1.580173075E-1
2.302201345E0	6.591237068E0	7.175422668E0	7.422025502E-2
2.304879422E0	6.720524311E0	7.117961884E0	4.788403213E-2
2.306875730E0	6.825869083E0	7.096413612E0	2.873042040E-2
2.309090790E0	6.809109688E0	7.129932880E0	2.394201607E-2
2.310454922E0	6.754043102E0	7.216124058E0	9.576806799E-3
2.313085021E0	6.782773495E0	7.283161640E0	-4.788403213E-2
2.315007614E0	6.797138691E0	7.287950039E0	-1.244984865E-1
2.317096098E0	6.811503887E0	7.220912457E0	-1.987187415E-1
2.318310037E0	6.883329868E0	7.120356083E0	-3.064578176E-1
2.321152944E0	6.971915245E0	7.026981831E0	-4.213795066E-1
2.323182021E0	6.962338448E0	6.969521046E0	-4.357447028E-1
2.325183790E0	6.957550049E0	7.007828236E0	-3.232172430E-1
2.326386845E0	6.986280441E0	7.158663273E0	-1.891419291E-1
2.329240367E0	6.993463039E0	7.275979042E0	-1.053448766E-1
2.331193076E0	7.031770229E0	7.228095055E0	-1.197100878E-1
2.333281021E0	7.067683220E0	7.103596210E0	-2.130839527E-1
2.334499383E0	7.055712223E0	7.019799232E0	-2.873041928E-1
2.337337944E0	7.007828236E0	7.050923824E0	-2.418143749E-1
2.339177153E0	7.053318024E0	7.096413612E0	-1.556231081E-1
2.341129460E0	7.084442616E0	7.094019413E0	-1.029506698E-1
2.342706306E0	7.067683220E0	7.055712223E0	-9.097966552E-2
2.345152153E0	7.031770229E0	6.907271862E0	-1.939303428E-1
2.347300153E0	6.962338448E0	6.799532890E0	-2.202665508E-1
2.349471944E0	6.888118267E0	6.754043102E0	-1.604115069E-1
2.350808153E0	6.859387875E0	6.770802498E0	-1.005564705E-1
2.353466675E0	6.868964672E0	6.782773495E0	-5.027823523E-2
2.355287614E0	6.892906666E0	6.730101109E0	-4.309562966E-2
2.357462405E0	6.976703644E0	6.658275127E0	-1.316810995E-1
2.358708806E0	7.204153061E0	6.598419666E0	-2.753331959E-1
2.361519790E0	7.386112213E0	6.588842869E0	-3.830722570E-1
2.363451999E0	7.189787865E0	6.737283707E0	-2.609679997E-1
2.365566175E0	7.005434036E0	6.964732647E0	-4.309562966E-2
2.366808614E0	6.957550049E0	7.074865818E0	5.985504389E-2
2.369623790E0	6.924031258E0	7.022193432E0	-9.576806799E-3
2.371587537E0	6.847416878E0	6.933608055E0	-5.506663769E-2
2.373663982E0	6.852205276E0	6.849811077E0	-6.943184882E-2
2.374898614E0	7.108384609E0	6.825869083E0	-1.244984865E-1
2.377721444E0	7.378929615E0	6.809109688E0	-1.723825186E-1
2.379550653E0	7.534552574E0	6.816292286E0	-1.747767180E-1
2.381581768E0	7.534552574E0	6.845022678E0	-9.576806426E-2
2.383057845E0	7.513004780E0	6.859387875E0	-8.619125932E-2
2.385738383E0	7.601590633E0	6.861782074E0	-1.244984865E-1
2.387664422E0	7.671022415E0	6.885724068E0	-1.460463107E-1
2.389846460E0	7.592013359E0	6.983886242E0	-1.364694983E-1
2.391190999E0	7.366958618E0	7.003039837E0	-1.340752989E-1
2.393860521E0	7.113173485E0	6.938396454E0	-1.651999205E-1
2.395729383E0	6.938396454E0	6.873753071E0	-2.154781520E-1
2.397857174E0	6.897695065E0	6.825869083E0	-2.896983922E-1
2.399144999E0	6.864176273E0	6.780379295E0	-3.615244627E-1
2.401914828E0	6.742072105E0	6.840234280E0	-3.806780577E-1
2.403762037E0	6.689399719E0	6.928819656E0	-3.974374831E-1
2.405946405E0	6.687005520E0	6.873753071E0	-3.902548850E-1
2.407504806E0	6.837840080E0	6.809109688E0	-3.663128614E-1
2.410004021E0	7.225700855E0	6.804321289E0	-3.663128614E-1
2.412018153E0	7.520187378E0	6.861782074E0	-4.405331016E-1
2.414027674E0	7.498639584E0	7.007828236E0	-4.261679053E-1
2.415233076E0	7.405265808E0	7.158663273E0	-2.537853718E-1
2.418085444E0	7.216124058E0	7.125144482E0	-1.101332754E-1
2.420003191E0	7.079654217E0	7.060500622E0	5.746084079E-2
2.421882691E0	7.132327080E0	7.082048416E0	1.340752989E-1
2.423333114E0	7.194576263E0	7.196970463E0	2.035071403E-1
2.425950114E0	7.065289021E0	7.307103634E0	3.543418646E-1
2.428003845E0	6.816292286E0	7.321468830E0	4.764461517E-1
2.430185576E0	6.710947514E0	7.319074631E0	5.865794420E-1
2.431503422E0	6.643909931E0	7.328651428E0	6.177040339E-1
2.434199597E0	6.469132900E0	7.354987621E0	5.722141862E-1
2.436062499E0	6.284779549E0	7.424419403E0	5.386953950E-1
2.438210713E0	6.098031521E0	7.477091789E0	5.267243981E-1
2.439455806E0	5.975927353E0	7.462726593E0	5.195417404E-1
2.442268867E0	5.971138954E0	7.405265808E0	4.716577232E-1
2.444113729E0	6.042964935E0	7.326257229E0	4.477157295E-1
2.446300559E0	6.157886982E0	7.235277653E0	4.429273009E-1
2.447556422E0	6.296750546E0	7.144298077E0	4.213795066E-1
2.450358559E0	6.447585106E0	7.041347027E0	3.567360640E-1
2.452336729E0	6.550535679E0	6.943184853E0	2.418143749E-1
2.454399943E0	6.639121532E0	6.840234280E0	1.292868853E-1
2.455621691E0	6.715735912E0	6.742072105E0	0.000000000E0
2.458457520E0	6.756437302E0	6.675034523E0	-1.388636976E-1
2.460435614E0	6.727706909E0	6.672640324E0	-2.011129409E-1
2.462251345E0	6.706159115E0	6.677428722E0	-2.298433632E-1
2.463716883E0	6.663063526E0	6.708553314E0	-2.657563984E-1
2.466354268E0	6.588842869E0	6.773196697E0	-3.064578176E-1
2.468417114E0	6.502651691E0	6.859387875E0	-3.351882398E-1
2.470593290E0	6.449979305E0	6.931213856E0	-3.663128614E-1
2.471938806E0	6.416460514E0	6.993463039E0	-4.429273009E-1
2.474586597E0	6.423643112E0	7.041347027E0	-5.075707436E-1
2.476395576E0	6.485892296E0	7.070077419E0	-5.506663918E-1
2.478583482E0	6.579266071E0	7.062894821E0	-5.817909837E-1
2.479949191E0	6.687005520E0	7.036558628E0	-6.177040339E-1
2.482640713E0	6.775590897E0	7.041347027E0	-6.440402865E-1
2.484509191E0	6.828263283E0	7.067683220E0	-6.488286853E-1
2.486686789E0	6.852205276E0	7.086836815E0	-6.440402865E-1
2.487926422E0	6.856993675E0	7.182605267E0	-6.703764796E-1
2.490744059E0	6.888118267E0	7.405265808E0	-8.259995580E-1
2.492757768E0	6.825869083E0	7.666234016E0	-1.022324085E0
2.494785751E0	6.703764915E0	7.841010571E0	-1.060631394E0
2.496007076E0	6.507440090E0	7.915230751E0	-9.385270476E-1
2.498843020E0	6.217741966E0	7.951143742E0	-7.445967197E-1
2.500687922E0	5.973533154E0	7.955932140E0	-5.458779931E-1
2.502633729E0	5.906495571E0	7.908048153E0	-3.950432837E-1
2.504245999E0	5.968744755E0	7.829039574E0	-3.064578176E-1
2.506772499E0	6.083666325E0	7.718906403E0	-2.537853718E-1
2.508827576E0	6.191405773E0	7.594407558E0	-2.035071403E-1
2.510977636E0	6.301538944E0	7.467514992E0	-1.436520964E-1
2.512408345E0	6.351817131E0	7.359776020E0	-9.337386489E-2
2.514982097E0	6.265625954E0	7.292738438E0	-2.873042040E-2
2.516976136E0	6.186617374E0	7.302315235E0	2.154781483E-2
2.518978982E0	6.191405773E0	7.338228226E0	9.816227108E-2
2.520343114E0	6.179434776E0	7.321468830E0	1.580173075E-1
2.523035789E0	6.174646378E0	7.249642849E0	1.388636976E-1
2.524854268E0	6.198588371E0	7.173028469E0	9.816227108E-2
2.527066866E0	6.234501362E0	7.134721279E0	7.182604820E-2
2.528297460E0	6.169857979E0	7.177816868E0	9.097966552E-2
2.531124559E0	6.081272125E0	7.283161640E0	1.053448766E-1
2.533110152E0	6.143521786E0	7.398083210E0	1.005564705E-1
2.535179982E0	6.239289761E0	7.496245384E0	9.337386489E-2
2.536400960E0	6.215347767E0	7.536946774E0	1.029506698E-1
2.539237559E0	6.114790916E0	7.510610580E0	1.221042871E-1
2.541081499E0	6.014234543E0	7.714118004E0	1.699883193E-1
2.543037268E0	5.995080948E0	7.991845131E0	1.460463107E-1
2.544505652E0	6.066906929E0	8.121131897E0	8.858546615E-2
2.547123345E0	6.248866558E0	8.032546997E0	-9.576806799E-3
2.549301960E0	6.361393929E0	7.776367188E0	-1.723825186E-1
2.551355405E0	6.217741966E0	7.556100368E0	-2.849099934E-1
2.552765845E0	5.987898350E0	7.546523571E0	-2.561795712E-1
2.555349212E0	5.870582581E0	7.472303391E0	-1.508347094E-1
2.557268499E0	5.882553577E0	7.314286232E0	-8.140286058E-2
2.559361674E0	6.042964935E0	7.244854450E0	-4.548983276E-2
2.560605614E0	6.296750546E0	7.187393665E0	-5.027823523E-2
2.563418674E0	6.730101109E0	7.005434036E0	-1.580173075E-1
2.565322614E0	6.914454460E0	6.852205276E0	-1.963245422E-1
2.567449674E0	7.003039837E0	6.852205276E0	-1.747767180E-1
2.568650499E0	7.079654217E0	6.924031258E0	-1.436520964E-1
2.571506943E0	7.134721279E0	7.096413612E0	-1.364694983E-1
2.573535828E0	7.165845871E0	7.137115479E0	-1.843535304E-1
2.575547981E0	7.103596210E0	7.070077419E0	-2.561795712E-1
2.576775652E0	7.012616634E0	7.048529625E0	-3.016694188E-1
2.579605135E0	6.931213856E0	7.043741226E0	-2.920926213E-1
2.581551345E0	6.890512466E0	7.031770229E0	-2.849099934E-1
2.583478768E0	6.926425457E0	7.062894821E0	-3.280056417E-1
2.584866537E0	7.010222435E0	7.022193432E0	-4.070142806E-1
2.587591345E0	7.089231014E0	6.988674641E0	-5.003881454E-1
2.589561075E0	7.173028469E0	7.022193432E0	-5.698199868E-1
2.591739289E0	7.244854450E0	7.086836815E0	-6.248866320E-1
2.593146999E0	7.285555840E0	7.122750282E0	-6.368576288E-1
2.595733174E0	7.232883453E0	7.132327080E0	-6.296750307E-1
2.597620422E0	7.105990410E0	7.151480675E0	-6.320692301E-1
2.599728943E0	6.986280441E0	7.149086475E0	-6.177040339E-1
2.601097960E0	6.859387875E0	7.151480675E0	-5.841852427E-1
2.603785981E0	6.710947514E0	7.168240070E0	-5.291185975E-1
2.605663806E0	6.622362137E0	7.196970463E0	-4.860229492E-1
2.607831520E0	6.622362137E0	7.223306656E0	-4.453215301E-1
2.609130114E0	6.636727333E0	7.244854450E0	-3.974374831E-1
2.611888751E0	6.694188118E0	7.228095055E0	-2.992752194E-1
2.613862306E0	6.845022678E0	7.175422668E0	-1.173158810E-1
2.615929443E0	6.931213856E0	7.156269073E0	-1.675941236E-2
2.617184075E0	6.959944248E0	7.182605267E0	-2.394201607E-2
2.619986712E0	7.031770229E0	7.247248650E0	-4.788403213E-2
2.621849575E0	7.125144482E0	7.319074631E0	-6.943184882E-2
2.623852037E0	7.175422668E0	7.366958618E0	-1.580173075E-1
2.625240614E0	7.206547260E0	7.433996201E0	-2.250549644E-1
2.627965499E0	7.220912457E0	7.524975777E0	-1.580173075E-1
2.629960268E0	7.146692276E0	7.613561630E0	-3.351882473E-2
2.632121443E0	7.007828236E0	7.682993412E0	1.197100803E-2
2.633501652E0	6.912060261E0	7.723694801E0	-1.915361360E-2
2.636125058E0	6.845022678E0	7.733271599E0	-1.125274822E-1
2.638119250E0	6.801927090E0	7.723694801E0	-2.202665508E-1
2.640121597E0	6.744466305E0	7.716512203E0	-2.896983922E-1
2.641480383E0	6.682217121E0	7.716512203E0	-3.256114423E-1
2.644178673E0	6.631938934E0	7.711723804E0	-3.423708379E-1
2.646141345E0	6.586448669E0	7.699752808E0	-3.471592367E-1
2.648209712E0	6.540958881E0	7.678205013E0	-3.351882398E-1
2.649470114E0	6.466738701E0	7.675810814E0	-3.016694188E-1
2.652266827E0	6.373364925E0	7.687781811E0	-2.537853718E-1
2.654250422E0	6.282385349E0	7.699752808E0	-1.843535304E-1
2.656289866E0	6.191405773E0	7.709329605E0	-8.140286058E-2
2.657533383E0	6.124367714E0	7.711723804E0	-1.197100803E-2
2.660347289E0	6.062118530E0	7.699752808E0	3.112462163E-2
2.662208268E0	5.968744755E0	7.666234016E0	5.267243832E-2
2.664149075E0	5.892130375E0	7.623138428E0	5.027823523E-2
2.665609998E0	5.841852188E0	7.587224960E0	5.267243832E-2
2.668178614E0	5.784391403E0	7.548917770E0	9.816227108E-2
2.670304729E0	5.750872612E0	7.539340973E0	1.556231081E-1
2.672465981E0	5.674258232E0	7.532158375E0	1.436520964E-1
2.673935498E0	5.578489780E0	7.517793179E0	3.351882473E-2
2.676459866E0	5.525817394E0	7.479485989E0	-6.943184882E-2
2.678303075E0	5.442020416E0	7.455543995E0	-1.340752989E-1
2.680470827E0	5.343858242E0	7.469909191E0	-1.221042871E-1
2.682053537E0	5.295974255E0	7.524975777E0	-2.394201607E-2
2.684528443E0	5.269638062E0	7.553706169E0	-2.394201607E-2
2.686417114E0	5.233725071E0	7.548917770E0	-1.388636976E-1
2.688558443E0	5.157110691E0	7.515398979E0	-4.189853072E-1
2.689903575E0	5.080495834E0	7.445967197E0	-8.379706144E-1
2.692615327E0	5.058948040E0	7.395689011E0	-9.959878922E-1
2.694619575E0	5.039794445E0	7.383718014E0	-9.696516991E-1
2.696655443E0	5.044582844E0	7.388506413E0	-8.667010069E-1
2.698040575E0	5.171475887E0	7.441178799E0	-7.230489254E-1
2.700712866E0	5.453991413E0	7.522581577E0	-6.679822803E-1
2.702741673E0	5.726930618E0	7.575253963E0	-6.105214357E-1
2.704544152E0	5.882553577E0	7.587224960E0	-5.530605912E-1
2.706001229E0	5.999869347E0	7.577648163E0	-5.123591423E-1
2.708734268E0	6.172252178E0	7.572859764E0	-4.596867263E-1
2.710844673E0	6.368576527E0	7.577648163E0	-4.309563041E-1
2.712846789E0	6.555324078E0	7.582436562E0	-3.854664862E-1
2.714198729E0	6.696582317E0	7.560888767E0	-3.327940404E-1
2.716841712E0	6.794744492E0	7.481880188E0	-2.944868207E-1
2.718835942E0	6.847416878E0	7.347805023E0	-2.561795712E-1
2.720838289E0	6.902483463E0	7.259219646E0	-2.442085743E-1
2.722084460E0	6.952761650E0	7.223306656E0	-2.537853718E-1
2.724896173E0	6.976703644E0	7.232883453E0	-2.753331959E-1
2.726857960E0	6.943184853E0	7.223306656E0	-2.896983922E-1
2.728943789E0	6.876147270E0	7.170634270E0	-3.088520169E-1
2.730187152E0	6.787561893E0	7.122750282E0	-4.046200812E-1
2.733001673E0	6.746860504E0	7.098807812E0	-5.099649429E-1
2.734933845E0	6.727706909E0	7.101202011E0	-5.841852427E-1
2.737043404E0	6.698976517E0	7.115567684E0	-6.344634295E-1
2.738301152E0	6.600813866E0	7.141903877E0	-6.967126727E-1
2.741101096E0	6.471527100E0	7.175422668E0	-7.422025204E-1
2.742960191E0	6.366182327E0	7.206547260E0	-7.829039693E-1
2.744873114E0	6.358999729E0	7.216124058E0	-8.020575643E-1
2.746383306E0	6.368576527E0	7.196970463E0	-8.283938169E-1
2.748912998E0	6.344634533E0	7.137115479E0	-8.547300100E-1
2.751040191E0	6.320692539E0	7.070077419E0	-8.092401624E-1
2.753237442E0	6.275202751E0	7.012616634E0	-7.326257229E-1
2.754659268E0	6.256049156E0	6.967126846E0	-6.775590777E-1
2.757241173E0	6.390124321E0	6.940790653E0	-6.200982332E-1
2.759147537E0	6.593631268E0	6.916848660E0	-5.506663918E-1
2.761237173E0	6.754043102E0	6.890512466E0	-4.836287498E-1
2.762514922E0	6.868964672E0	6.892906666E0	-4.189853072E-1
2.765294750E0	6.969521046E0	6.916848660E0	-3.495534360E-1
2.767125075E0	7.058106422E0	6.969521046E0	-3.064578176E-1
2.769326096E0	7.098807812E0	7.022193432E0	-3.806780577E-1
2.770535383E0	7.079654217E0	7.058106422E0	-5.386953950E-1
2.773383827E0	7.077260017E0	7.050923824E0	-7.254431248E-1
2.775412865E0	7.055712223E0	7.029376030E0	-7.493851185E-1
2.777439135E0	7.003039837E0	6.998251438E0	-7.398083210E-1
2.778766960E0	6.962338448E0	6.964732647E0	-7.374141216E-1
2.781496250E0	6.933608055E0	6.931213856E0	-7.469909191E-1
2.783349037E0	6.904877663E0	6.888118267E0	-7.493851185E-1
2.785418498E0	6.888118267E0	6.828263283E0	-7.469909191E-1
2.786759998E0	6.902483463E0	6.761225700E0	-6.823474765E-1
2.789435114E0	6.974309444E0	6.701370716E0	-5.434837937E-1
2.791482037E0	7.072471619E0	6.646304131E0	-4.094084799E-1
2.793616327E0	7.161057472E0	6.596025467E0	-3.088520169E-1
2.794988883E0	7.252037048E0	6.557718277E0	-2.394201756E-1
2.797610327E0	7.331045628E0	6.526593685E0	-2.059013397E-1
2.799604673E0	7.414842606E0	6.497863293E0	-1.867477298E-1
2.801621211E0	7.489062786E0	6.473921299E0	-1.771709323E-1
2.802909345E0	7.517793179E0	6.459556103E0	-1.651999205E-1
2.805678481E0	7.522581577E0	6.449979305E0	-1.628057212E-1
2.807707865E0	7.486668587E0	6.440402508E0	-2.035071403E-1
2.809710250E0	7.386112213E0	6.438008308E0	-2.513911724E-1
2.810974498E0	7.264008045E0	6.435614109E0	-2.657563984E-1
2.813768250E0	7.141903877E0	6.435614109E0	-2.513911724E-1
2.815797442E0	7.043741226E0	6.447585106E0	-2.466027737E-1
2.817809365E0	6.986280441E0	6.464344501E0	-2.537853718E-1
2.819043883E0	6.976703644E0	6.493074894E0	-2.777273953E-1
2.821866173E0	7.000645638E0	6.531382084E0	-3.064578176E-1
2.823745306E0	7.055712223E0	6.572083473E0	-3.447650373E-1
2.825698152E0	7.141903877E0	6.641515732E0	-3.902548850E-1
2.827158037E0	7.232883453E0	6.739677906E0	-4.237737060E-1
2.829707998E0	7.309497833E0	6.840234280E0	-4.381389022E-1
2.831852921E0	7.354987621E0	6.931213856E0	-4.309563041E-1
2.834004788E0	7.364564419E0	7.012616634E0	-3.950432837E-1
2.835700652E0	7.333439827E0	7.074865818E0	-3.519476354E-1
2.838000519E0	7.268796444E0	7.125144482E0	-3.040636182E-1
2.839995327E0	7.199364662E0	7.163451672E0	-2.418143749E-1
2.841998134E0	7.158663273E0	7.189787865E0	-1.723825186E-1
2.843239921E0	7.144298077E0	7.201758862E0	-1.173158810E-1
2.846056519E0	7.153874874E0	7.216124058E0	-7.182604820E-2
2.848062421E0	7.189787865E0	7.220912457E0	-2.633621916E-2
2.850103711E0	7.237671852E0	7.223306656E0	1.197100803E-2
2.851320075E0	7.302315235E0	7.240066051E0	4.548983276E-2
2.854162827E0	7.364564419E0	7.266402245E0	6.703764945E-2
2.856128691E0	7.364564419E0	7.304709435E0	8.140286058E-2
2.858205096E0	7.307103634E0	7.350199223E0	8.379705995E-2
2.859586998E0	7.223306656E0	7.383718014E0	7.900865376E-2
2.862262980E0	7.139509678E0	7.402871609E0	7.900865376E-2
2.864129114E0	7.060500622E0	7.422025204E0	8.858546615E-2
2.866054652E0	6.983886242E0	7.462726593E0	8.140286058E-2
2.867517575E0	6.924031258E0	7.496245384E0	5.746084079E-2
2.870255075E0	6.876147270E0	7.544129372E0	9.576806799E-3
2.872224306E0	6.861782074E0	7.608773232E0	-5.506663769E-2
2.874397903E0	6.902483463E0	7.618350029E0	-9.576806426E-2
2.875754883E0	6.969521046E0	7.659051418E0	-1.508347094E-1
2.878402096E0	7.050923824E0	7.733271599E0	-2.226607651E-1
2.880395980E0	7.146692276E0	7.829039574E0	-2.920926213E-1
2.882398096E0	7.230489254E0	7.939172745E0	-3.471592367E-1
2.883668537E0	7.280767441E0	8.042123795E0	-3.471592367E-1
2.886456057E0	7.275979042E0	8.154650688E0	-3.399766386E-1
2.888404652E0	7.223306656E0	8.271966934E0	-3.064578176E-1
2.890488749E0	7.129932880E0	8.353369713E0	-2.777273953E-1
2.891816421E0	6.979097843E0	8.446743965E0	-2.873041928E-1
2.894546749E0	6.833051682E0	8.532935143E0	-2.753331959E-1
2.896548344E0	6.713341713E0	8.611943245E0	-2.896983922E-1
2.898570557E0	6.629544735E0	8.669404030E0	-3.232172430E-1
2.899878575E0	6.567295074E0	8.734047890E0	-3.734954596E-1
2.902627711E0	6.509834290E0	8.820239067E0	-4.668693244E-1
2.904492191E0	6.461950302E0	8.880094528E0	-5.147533417E-1
2.906526768E0	6.373364925E0	8.894459724E0	-4.644751251E-1
2.907876806E0	6.198588371E0	8.892065048E0	-3.758896589E-1
2.910484883E0	5.997475147E0	8.894459724E0	-2.681505978E-1
2.912592960E0	5.791574001E0	8.911218643E0	-1.005564705E-1
2.914748788E0	5.561730385E0	8.906430244E0	2.154781483E-2
2.916122306E0	5.370194435E0	8.872911453E0	6.943184882E-2
2.918743442E0	5.173870087E0	8.836998940E0	5.267243832E-2
2.920700114E0	4.932055473E0	8.822632790E0	-4.309562966E-2
2.922755211E0	4.663905144E0	8.805873871E0	-1.316810995E-1
2.924385806E0	4.405331135E0	8.774748802E0	-1.508347094E-1
2.926812788E0	4.161122322E0	8.767566681E0	-1.843535304E-1
2.928685152E0	3.943250179E0	8.762778282E0	-2.202665508E-1
2.930844095E0	3.758896589E0	8.717288017E0	-2.106897533E-1
2.932131037E0	3.562572241E0	8.614337921E0	-1.197100878E-1
2.934901365E0	3.069366693E0	8.329427719E0	1.915361285E-1
2.936897114E0	3.112462282E0	8.113949776E0	4.357447028E-1
2.938943019E0	3.682282209E0	8.147468567E0	3.303998411E-1
2.940236383E0	4.398148537E0	8.317456245E0	1.125274822E-1
2.943001480E0	4.905719280E0	8.480262756E0	-9.097966552E-2
2.944879768E0	5.102043629E0	8.580819130E0	-2.370259613E-1
2.946828152E0	5.046977043E0	8.623914719E0	-3.040636182E-1
2.948284921E0	4.417302132E0	8.487444878E0	-2.226607651E-1
2.951013075E0	3.292027235E0	8.161833763E0	-4.309562966E-2
2.952967498E0	2.861071110E0	8.082824707E0	1.580173075E-1
2.955138749E0	3.213018656E0	8.288725853E0	2.777273953E-1
2.956563806E0	3.869029999E0	8.556877136E0	2.442085743E-1
2.959133788E0	4.340687752E0	8.757989883E0	5.267243832E-2
2.960973037E0	4.446032524E0	8.899248123E0	-2.370259613E-1
2.963130711E0	4.307168961E0	8.997409821E0	-5.243301988E-1
2.964419306E0	4.067748547E0	9.076418877E0	-7.661445141E-1
2.967188903E0	3.816357613E0	9.129091263E0	-9.361328483E-1
2.969067460E0	3.586514235E0	9.155426979E0	-1.005564690E0
2.971235595E0	3.371036053E0	9.148244858E0	-1.015141487E0
2.972616229E0	3.167528868E0	9.066842079E0	-9.289502501E-1
2.975294018E0	3.167528868E0	8.942343712E0	-6.392518282E-1
2.977227306E0	3.560178041E0	8.868123055E0	-3.950432837E-1
2.979337441E0	4.197035789E0	8.836998940E0	-4.165911078E-1
2.980604960E0	4.762067318E0	8.798690796E0	-6.224924326E-1
2.983395788E0	5.063736439E0	8.671798706E0	-2.346317619E-1
2.985425288E0	5.195417881E0	8.520963669E0	1.005564705E-1
2.987274383E0	5.430049419E0	8.353369713E0	2.346317619E-1
2.988674729E0	5.748478413E0	8.180987358E0	2.489969730E-1
2.991180383E0	6.095637321E0	7.999027729E0	2.250549644E-1
2.993335844E0	6.454767704E0	7.795520782E0	3.088520169E-1
2.995533903E0	6.797138691E0	7.580042362E0	5.099649429E-1
2.997003037E0	7.113173485E0	7.381323814E0	7.374141216E-1
2.999538826E0	7.369352818E0	7.213729858E0	9.241618514E-1
3.001381383E0	7.637503624E0	7.074865818E0	9.433154464E-1
3.003536018E0	7.869740963E0	6.969521046E0	8.236053586E-1
3.004987921E0	7.948749542E0	6.902483463E0	7.565677166E-1
3.007595057E0	7.867346764E0	6.854599476E0	7.278373241E-1
3.009624672E0	7.690176010E0	6.789956093E0	6.967126727E-1
3.011627518E0	7.457938194E0	6.713341713E0	6.560112834E-1
3.013057652E0	7.182605267E0	6.641515732E0	5.674257874E-1
3.015685364E0	6.926425457E0	6.603208065E0	3.711012602E-1
3.017640306E0	6.710947514E0	6.593631268E0	1.053448766E-1
3.019741711E0	6.533776283E0	6.596025467E0	-1.340752989E-1
3.021053537E0	6.411672115E0	6.581660271E0	-3.160346150E-1
3.023798826E0	6.335057735E0	6.562506676E0	-4.405331016E-1
3.025698460E0	6.275202751E0	6.543353081E0	-4.955997467E-1
3.027579421E0	6.186617374E0	6.536170483E0	-4.716577232E-1
3.029182614E0	6.042964935E0	6.536170483E0	-3.639186621E-1
3.031872883E0	5.820304394E0	6.533776283E0	-2.202665508E-1
3.033918095E0	5.521028996E0	6.517016888E0	-1.580173075E-1
3.035920057E0	5.260061264E0	6.483498096E0	-2.681505978E-1
3.037286767E0	5.221754074E0	6.430825710E0	-5.123591423E-1
3.039914057E0	5.458779812E0	6.382941723E0	-7.422025204E-1
3.041760806E0	5.813121796E0	6.330269337E0	-9.337386489E-1
3.043925249E0	6.129156113E0	6.284779549E0	-1.074996591E0
3.045185806E0	6.375759125E0	6.277596951E0	-1.218648672E0
3.047982480E0	6.555324078E0	6.332663536E0	-1.364694953E0
3.049847421E0	6.672640324E0	6.423643112E0	-1.369483352E0
3.052013480E0	6.758831501E0	6.512228489E0	-1.254561663E0
3.053291267E0	6.856993675E0	6.579266071E0	-1.101332784E0
3.056071364E0	6.993463039E0	6.639121532E0	-9.624691010E-1
3.058100441E0	7.208941460E0	6.703764915E0	-8.571242094E-1
3.060111441E0	7.510610580E0	6.739677906E0	-8.116343617E-1
3.061382075E0	7.922413349E0	6.732495308E0	-7.924807668E-1
3.064168710E0	8.370129585E0	6.713341713E0	-7.110779285E-1
3.066093229E0	8.750806808E0	6.691793919E0	-5.793967843E-1
3.067967037E0	9.090784073E0	6.655880928E0	-4.740519226E-1
3.069422767E0	9.366117477E0	6.624756336E0	-4.189853072E-1
3.071979037E0	9.538499832E0	6.615179062E0	-3.854664862E-1
3.074156614E0	9.574412346E0	6.636727333E0	-3.351882398E-1
3.076303095E0	9.488221169E0	6.684611320E0	-2.705447972E-1
3.077661614E0	9.339780807E0	6.730101109E0	-2.298433632E-1
3.080298364E0	9.212887764E0	6.782773495E0	-2.633621991E-1
3.082284614E0	9.148244858E0	6.833051682E0	-3.567360640E-1
3.084295441E0	9.131484985E0	6.888118267E0	-4.357447028E-1
3.085585267E0	9.062053680E0	6.952761650E0	-5.099649429E-1
3.088352672E0	8.705317497E0	7.082048416E0	-6.655880809E-1
3.090381287E0	8.312667847E0	7.213729858E0	-7.613561153E-1
3.092397941E0	8.044517517E0	7.328651428E0	-8.212111592E-1
3.093591152E0	8.169015884E0	7.328651428E0	-6.153098345E-1
3.096455364E0	8.334216118E0	7.206547260E0	1.101332754E-1
3.098484672E0	8.140285492E0	7.122750282E0	5.817909837E-1
3.100496826E0	7.627926826E0	7.146692276E0	3.232172430E-1
3.101706537E0	6.900089264E0	7.252037048E0	-3.064578176E-1
3.104554826E0	6.054935932E0	7.407660007E0	-8.547300100E-1
3.106412729E0	5.279214859E0	7.558494568E0	-1.177947283E0
3.108316460E0	4.709394932E0	7.668628216E0	-1.249773264E0
3.109846229E0	4.429273129E0	7.747636795E0	-1.244984865E0
3.112431306E0	4.410119534E0	7.824251175E0	-1.350329757E0
3.114506306E0	4.479551315E0	7.876923561E0	-1.359906554E0
3.116691402E0	4.508281708E0	7.876923561E0	-1.072602391E0
3.118039383E0	4.616020679E0	7.843404770E0	-7.086837292E-1
3.120695056E0	4.857835293E0	7.809885979E0	-3.998316824E-1
3.122512152E0	5.178658485E0	7.762001991E0	-1.173158810E-1
3.124691749E0	5.451597214E0	7.682993412E0	1.388636976E-1
3.125918229E0	5.621585369E0	7.613561630E0	2.035071403E-1
3.128748787E0	5.707777023E0	7.601590633E0	1.149216816E-1
3.130626729E0	5.813121796E0	7.608773232E0	1.891419291E-1
3.132780095E0	5.940014362E0	7.592013359E0	3.232172430E-1
3.134005690E0	6.004657745E0	7.556100368E0	5.434837937E-1
3.136837556E0	5.983109951E0	7.536946774E0	8.283938169E-1
3.138837537E0	5.980715752E0	7.529764175E0	1.077390790E0
3.140860556E0	5.987898350E0	7.548917770E0	1.182735682E0
3.142084460E0	6.002263546E0	7.606379032E0	1.175553083E0
3.144917249E0	6.002263546E0	7.687781811E0	1.127668977E0
3.146742575E0	5.966350555E0	7.783549786E0	1.101332784E0
3.148683114E0	5.906495571E0	7.884106159E0	1.067813993E0
3.150150229E0	5.808333397E0	7.977479935E0	1.029506683E0
3.152659383E0	5.568912983E0	8.085219383E0	9.074024558E-1
3.154863344E0	4.872200489E0	8.283937454E0	3.782838583E-1
3.157034364E0	4.223371983E0	8.492233276E0	3.208230138E-1
3.158404114E0	4.340687752E0	8.329427719E0	1.939303398E0
3.161028479E0	4.884171486E0	7.912836552E0	3.028665066E0
3.163021902E0	5.932831764E0	7.649474621E0	2.142810583E0
3.165038748E0	6.607996464E0	7.548917770E0	1.189918280E0
3.166281614E0	6.936002254E0	7.580042362E0	8.714894056E-1
3.169095287E0	7.467514992E0	7.759607792E0	5.985504389E-1
3.170945383E0	7.771578789E0	8.049305916E0	5.626373887E-1
3.173126095E0	7.714118004E0	8.307879448E0	7.781155705E-1
3.174393844E0	7.079654217E0	8.401253700E0	1.225831270E0
3.177182787E0	5.564124584E0	8.291120529E0	1.889025092E0
3.179114652E0	4.448426723E0	8.073247910E0	1.896207690E0
3.181222018E0	4.565742493E0	7.960720539E0	1.347935557E0
3.182462537E0	5.564124584E0	8.147468567E0	7.182605267E-1
3.185278864E0	5.963956356E0	8.427590370E0	8.858546019E-1
3.187184921E0	4.687847137E0	8.386888504E0	1.805228114E0
3.189099075E0	3.706224203E0	8.046912193E0	1.850717902E0
3.190548652E0	4.699818134E0	7.812280178E0	8.307880163E-1
3.193284383E0	5.140350819E0	7.879317760E0	1.637633920E0
3.195248190E0	4.465186119E0	7.824251175E0	2.219424963E0
3.197413056E0	4.582501888E0	7.726089001E0	1.726219416E0
3.198876960E0	4.369418144E0	7.762001991E0	1.637633920E0
3.201405941E0	3.782838583E0	7.797914982E0	1.865083098E0
3.203267883E0	4.173093796E0	7.766790390E0	1.228225470E0
3.205402364E0	4.029441357E0	7.752425194E0	1.211466074E0
3.207135575E0	3.840299606E0	7.668628216E0	1.359906554E0
3.209459171E0	3.916913986E0	7.462726593E0	1.331176162E0
3.211487902E0	3.828328609E0	7.082048416E0	1.496376038E0
3.213505017E0	3.699041605E0	6.713341713E0	1.853112102E0
3.214765575E0	4.096478939E0	6.591237068E0	1.771709204E0
3.217561479E0	4.594472885E0	6.586448669E0	1.496376038E0
3.219503921E0	5.164293289E0	6.564900875E0	1.094150186E0
3.221600594E0	5.803544998E0	6.409277916E0	6.847416759E-1
3.222844383E0	6.416460514E0	6.155492783E0	3.902548850E-1
3.225657364E0	6.821080685E0	5.935225964E0	2.418143749E-1
3.227603767E0	7.165845871E0	5.829881191E0	1.340752989E-1
3.229445960E0	7.455543995E0	5.832275391E0	6.943184882E-2
3.230992767E0	7.407660007E0	5.920860767E0	4.548983276E-2
3.233479075E0	6.967126846E0	5.930437565E0	4.788403213E-2
3.235625960E0	6.631938934E0	5.892130375E0	1.244984865E-1
3.237792094E0	6.320692539E0	5.853823185E0	2.777273953E-1
3.239201037E0	6.212953568E0	5.851428986E0	4.668693244E-1
3.241795364E0	6.397306919E0	5.990292549E0	5.746083856E-1
3.243789556E0	6.414066315E0	6.196194172E0	5.937620401E-1
3.245792056E0	6.287173748E0	6.421248913E0	6.009446383E-1
3.247146767E0	6.064512730E0	6.615179062E0	6.775590777E-1
3.249848787E0	5.932831764E0	6.782773495E0	7.781155705E-1
3.251744537E0	6.071695328E0	6.926425457E0	8.930372596E-1
3.253879363E0	6.485892296E0	6.947973251E0	9.935936928E-1
3.255182883E0	6.684611320E0	6.940790653E0	1.137245774E0
3.257936325E0	6.581660271E0	7.048529625E0	1.132457376E0
3.259965210E0	6.449979305E0	7.165845871E0	8.643068075E-1
3.261969037E0	6.603208065E0	7.218518257E0	7.661445141E-1
3.263161998E0	6.552929878E0	7.144298077E0	1.759738207E0
3.266023421E0	6.361393929E0	7.015010834E0	2.463633537E0
3.267840690E0	6.244078159E0	6.916848660E0	2.178723574E0
3.269787190E0	5.803544998E0	6.880935669E0	1.611297727E0
3.271248883E0	5.262455463E0	6.919242859E0	1.252167463E0
3.273874960E0	5.075707436E0	6.943184853E0	1.158793569E0
3.275925537E0	5.276820660E0	6.964732647E0	1.094150186E0
3.278137383E0	5.954379559E0	7.060500622E0	8.020575643E-1
3.279463690E0	7.211335659E0	7.249642849E0	2.250549644E-1
3.282129844E0	7.496245384E0	7.417236805E0	9.504981041E-1
3.283931383E0	6.969521046E0	7.441178799E0	1.857900500E0
3.286150306E0	5.911283970E0	7.264008045E0	2.035071373E0
3.287353190E0	4.809951305E0	7.098807812E0	1.735796213E0
3.290226286E0	4.194641590E0	7.060500622E0	1.419761658E0
3.292029844E0	4.355052948E0	7.151480675E0	1.113303781E0
3.294256863E0	5.260061264E0	7.347805023E0	7.589619160E-1
3.295510460E0	5.386953831E0	7.371747017E0	1.477222443E0
3.298291152E0	5.152322292E0	7.182605267E0	2.226607561E0
3.300250421E0	5.195417881E0	7.058106422E0	1.719036818E0
3.302353786E0	5.204994678E0	7.194576263E0	9.217676520E-1
3.303543113E0	5.190629482E0	7.393294811E0	3.998316824E-1
3.306393921E0	5.281609058E0	7.515398979E0	1.987187415E-1
3.308390344E0	5.518634796E0	7.508216381E0	2.585737705E-1
3.310341921E0	5.920860767E0	7.436390400E0	3.902548850E-1
3.311634575E0	6.347028732E0	7.431602001E0	3.926490843E-1
3.314186844E0	6.603208065E0	7.465120792E0	3.327940404E-1
3.316303806E0	6.892906666E0	7.503427982E0	2.322375625E-1
3.318517613E0	6.974309444E0	7.532158375E0	2.059013397E-1
3.319838152E0	6.931213856E0	7.563282967E0	2.585737705E-1
3.322505613E0	6.964732647E0	7.584830761E0	3.543418646E-1
3.324292267E0	6.789956093E0	7.548917770E0	5.339069963E-1
3.326519113E0	6.823474884E0	7.498639584E0	6.799532771E-1
3.327701998E0	7.079654217E0	7.515398979E0	6.584054828E-1
3.330586883E0	7.084442616E0	7.560888767E0	6.320692301E-1
3.332408383E0	7.156269073E0	7.611167431E0	5.841852427E-1
3.334636555E0	7.137115479E0	7.637503624E0	6.224924326E-1
3.335812883E0	7.426813602E0	7.690176010E0	6.512228847E-1
3.338678767E0	8.121131897E0	7.903259754E0	5.482721925E-1
3.340590998E0	7.977479935E0	8.169015884E0	6.153098345E-1
3.342734940E0	7.383718014E0	8.353369713E0	8.331822157E-1
3.344011767E0	7.438784599E0	8.535328865E0	9.528923035E-1
3.346791979E0	7.558494568E0	8.705317497E0	1.031900883E0
3.348581344E0	6.938396454E0	8.769960403E0	1.218648672E0
3.350529036E0	6.433219910E0	8.755595207E0	1.343147159E0
3.352002460E0	6.682217121E0	8.767566681E0	1.357512355E0
3.354728883E0	7.165845871E0	8.839392662E0	1.295263171E0
3.356683421E0	7.517793179E0	8.947132111E0	1.180341482E0
3.358926902E0	7.639897823E0	9.100360870E0	1.089361787E0
3.360273767E0	7.716512203E0	9.289502144E0	1.031900883E0
3.362904460E0	8.013393402E0	9.481039047E0	9.648633003E-1
3.364710075E0	9.272743225E0	9.866505623E0	6.823474765E-1
3.366901960E0	1.039801788E1	1.039562416E1	4.237737060E-1
3.368104536E0	1.174595356E1	1.097980881E1	6.703764945E-2
3.370984786E0	1.287362289E1	1.163342571E1	-1.197100803E-2
3.372928498E0	1.192551899E1	1.206438255E1	3.495534360E-1
3.375015555E0	1.124556541E1	1.212902546E1	5.458779931E-1
3.376193844E0	1.132936287E1	1.205001736E1	9.217676520E-1
3.379061229E0	1.171004009E1	1.194227791E1	1.699883223E0
3.381013306E0	1.215536213E1	1.169088650E1	2.430114746E0
3.383074152E0	9.964667320E0	1.136527538E1	2.317587137E0
3.384273306E0	6.375759125E0	1.106121159E1	1.960851192E0
3.387142536E0	3.557783842E0	1.079066753E1	1.900996208E0
3.388946767E0	1.977610588E0	1.051772785E1	2.070984364E0
3.390894344E0	1.386242747E0	1.022324085E1	2.233790159E0
3.392363767E0	1.206677675E0	9.919178009E0	2.197877169E0
3.394902498E0	1.316810966E0	9.605537415E0	2.006340981E0
3.397097383E0	1.704671621E0	9.263166428E0	1.762132406E0
3.399264421E0	2.085349798E0	8.868123055E0	1.482010841E0
3.400584267E0	2.291250944E0	8.453926086E0	1.187524080E0
3.403266863E0	2.494758129E0	8.070854187E0	8.762778044E-1
3.405081883E0	2.911349297E0	7.694964409E0	6.177040339E-1
3.407271267E0	3.632004023E0	7.316680431E0	4.237737060E-1
3.408467267E0	4.541800499E0	6.959944248E0	1.963245422E-1
3.411335517E0	5.430049419E0	6.488286495E0	-7.900865376E-2
3.413191075E0	5.652710438E0	6.277596951E0	-1.843535304E-1
3.415367517E0	5.676652431E0	6.129156113E0	-1.963245422E-1
3.416571306E0	5.592854977E0	6.007051945E0	-9.576806426E-2
3.419425094E0	5.485116005E0	5.884947777E0	7.900865376E-2
3.421414459E0	5.401319027E0	5.777208805E0	2.992752194E-1
3.423465632E0	5.353435040E0	5.674258232E0	5.458779931E-1
3.424750690E0	5.319916248E0	5.585672379E0	7.924807668E-1
3.427523863E0	5.269638062E0	5.499481201E0	1.015141487E0
3.429371806E0	5.207388878E0	5.446808815E0	1.209071875E0
3.431351190E0	5.188235283E0	5.427655220E0	1.395819545E0
3.432767306E0	5.200206280E0	5.432443619E0	1.553836942E0
3.435361036E0	5.193023682E0	5.463568211E0	1.695094824E0
3.437456229E0	5.133168221E0	5.506663799E0	1.817199111E0
3.439660209E0	5.046977043E0	5.549759388E0	1.905784607E0
3.441004690E0	4.958391666E0	5.607220173E0	1.956062794E0
3.443654363E0	4.872200489E0	5.664681435E0	1.996764183E0
3.445555498E0	4.797980309E0	5.712565422E0	2.013523579E0
3.447651017E0	4.764461517E0	5.765237808E0	1.994369984E0
3.448878036E0	4.762067318E0	5.808333397E0	1.934514999E0
3.451708940E0	4.817133904E0	5.827486992E0	1.857900500E0
3.453572536E0	4.934449673E0	5.813121796E0	1.798045516E0
3.455755017E0	5.092466831E0	5.765237808E0	1.728613615E0
3.456970844E0	5.075707436E0	5.784391403E0	1.651999116E0
3.459806459E0	4.855441093E0	5.884947777E0	1.568202138E0
3.461756306E0	4.733336926E0	5.940014362E0	1.472434044E0
3.463853632E0	4.766855717E0	5.956773758E0	1.369483352E0
3.465086075E0	4.845864296E0	5.961562157E0	1.273715258E0
3.467911324E0	4.920084476E0	5.968744755E0	1.173158884E0
3.469761883E0	4.984727859E0	5.999869347E0	1.074996591E0
3.471821383E0	5.049371243E0	6.045359135E0	9.840168953E-1
3.473207498E0	5.080495834E0	6.107608318E0	8.714894056E-1
3.475730729E0	5.008669853E0	6.193799973E0	7.829039693E-1
3.477879998E0	4.869806290E0	6.265625954E0	7.326257229E-1
3.480045670E0	4.860229492E0	6.385335922E0	6.272808313E-1
3.481453190E0	5.133168221E0	6.624756336E0	3.878606856E-1
3.484049593E0	5.152322292E0	6.880935669E0	4.309563041E-1
3.485880652E0	4.752490520E0	6.993463039E0	8.834604025E-1
3.488045016E0	4.525041103E0	7.031770229E0	1.070208192E0
3.489323421E0	4.486733913E0	7.086836815E0	1.000776291E0
3.492102363E0	4.436455727E0	7.168240070E0	9.145850539E-1
3.494131555E0	4.316745758E0	7.275979042E0	8.619126081E-1
3.496133363E0	4.158728123E0	7.381323814E0	8.379706144E-1
3.497420498E0	4.041412354E0	7.491456985E0	8.236053586E-1
3.500190324E0	3.988739967E0	7.603984833E0	7.829039693E-1
3.502219286E0	3.931279182E0	7.711723804E0	7.230489254E-1
3.504245439E0	3.847482204E0	7.750030994E0	6.943184733E-1
3.505472613E0	3.804386616E0	7.682993412E0	6.440402865E-1
3.508303055E0	3.842693806E0	7.637503624E0	5.386953950E-1
3.510144998E0	3.938461781E0	7.699752808E0	4.046200812E-1
3.512111536E0	4.010287762E0	7.742848396E0	3.471592367E-1
3.513573267E0	4.084507942E0	7.747636795E0	2.968810201E-1
3.516186806E0	4.192247391E0	7.711723804E0	2.250549644E-1
3.518233959E0	4.742913723E0	7.606379032E0	-1.963245422E-1
3.520424670E0	5.640739441E0	7.455543995E0	-1.003170490E0
3.521794190E0	6.327875137E0	7.354987621E0	-1.826775908E0
3.524420016E0	6.667851925E0	7.283161640E0	-2.626439333E0
3.526261421E0	6.581660271E0	7.237671852E0	-2.822763920E0
3.528431862E0	6.344634533E0	7.261613846E0	-2.355894566E0
3.529727729E0	5.973533154E0	7.441178799E0	-1.623268723E0
3.532489632E0	5.329493046E0	7.728483200E0	-1.022324085E0
3.534406882E0	4.671087742E0	8.001421928E0	-6.368576288E-1
3.536520939E0	4.223371983E0	8.207323074E0	-4.118026793E-1
3.538005459E0	4.053383350E0	8.305485725E0	-2.992752194E-1
3.540578439E0	3.979163170E0	8.324639320E0	-2.274491638E-1
3.542567498E0	3.881000996E0	8.293514252E0	-1.508347094E-1
3.544619478E0	3.895366192E0	8.274360657E0	-1.795651317E-1
3.545954729E0	4.209006786E0	8.291120529E0	-2.968810201E-1
3.548676939E0	4.728548527E0	8.322244644E0	-4.692635238E-1
3.550551382E0	5.204994678E0	8.341399193E0	-6.679822803E-1
3.552488729E0	5.499481201E0	8.367734909E0	-9.121908545E-1
3.553963152E0	5.710171223E0	8.437167168E0	-1.199495077E0
3.556533998E0	5.765237808E0	8.547300339E0	-1.431732655E0
3.558637729E0	5.623979568E0	8.674192429E0	-1.505952835E0
3.560813132E0	5.473145008E0	8.784325600E0	-1.398213744E0
3.562177152E0	5.475539207E0	8.851364136E0	-1.180341482E0
3.564810939E0	5.650316238E0	8.846575737E0	-9.457096457E-1
3.566637613E0	5.968744755E0	8.772355080E0	-7.206547260E-1
3.568807555E0	6.385335922E0	8.662221909E0	-5.219359994E-1
3.570075921E0	6.840234280E0	8.520963669E0	-3.615244627E-1
3.572865362E0	7.333439827E0	8.355764389E0	-2.346317619E-1
3.574830536E0	7.807491779E0	8.185775757E0	-1.221042871E-1
3.576911862E0	8.262390137E0	8.013393402E0	-1.915361360E-2
3.578307267E0	8.712499619E0	7.855375767E0	8.858546615E-2
3.580969093E0	9.157821655E0	7.711723804E0	1.987187415E-1
3.582998285E0	9.595960617E0	7.587224960E0	2.944868207E-1
3.585009362E0	1.000536919E1	7.477091789E0	3.663128614E-1
3.586318421E0	1.040041256E1	7.359776020E0	4.118026793E-1
3.589067208E0	1.073799419E1	7.235277653E0	4.812345505E-1
3.590961498E0	1.088643551E1	7.122750282E0	5.410895944E-1
3.592901652E0	1.087207031E1	7.026981831E0	5.626373887E-1
3.594388998E0	1.083376312E1	6.936002254E0	5.770025849E-1
3.596877498E0	1.077869606E1	6.864176273E0	5.746083856E-1
3.599022113E0	1.065659142E1	6.816292286E0	5.889736414E-1
3.601202401E0	1.047942066E1	6.777985096E0	6.081272364E-1
3.602562767E0	1.026633644E1	6.744466305E0	6.057330370E-1
3.605204785E0	9.976638794E0	6.744466305E0	5.746083856E-1
3.607035113E0	9.689333916E0	6.761225700E0	5.410895944E-1
3.609201401E0	9.428366661E0	6.758831501E0	4.860229492E-1
3.610434575E0	9.088389397E0	6.789956093E0	4.237737060E-1
3.613258901E0	8.755595207E0	6.852205276E0	3.232172430E-1
3.615244075E0	8.544905663E0	6.859387875E0	2.633621991E-1
3.617290747E0	8.391676903E0	6.837840080E0	2.561795712E-1
3.618513959E0	8.236053467E0	6.813898087E0	2.178723514E-1
3.621348785E0	8.010998726E0	6.742072105E0	1.819593310E-1
3.623377785E0	7.917624950E0	6.655880928E0	1.771709323E-1
3.625372054E0	7.874529362E0	6.538564682E0	2.178723514E-1
3.626600536E0	7.848193169E0	6.382941723E0	2.825157940E-1
3.629428862E0	7.841010571E0	6.210559368E0	3.327940404E-1
3.631457516E0	7.848193169E0	6.071695328E0	3.519476354E-1
3.633251190E0	7.888894558E0	5.963956356E0	3.136404157E-1
3.634719305E0	8.020575523E0	5.808333397E0	2.825157940E-1
3.637224459E0	8.140285492E0	5.626373768E0	3.016694188E-1
3.639362075E0	8.180987358E0	5.494692802E0	3.016694188E-1
3.641547054E0	8.307879448E0	5.365406036E0	2.705447972E-1
3.643002036E0	8.489839554E0	5.216965675E0	2.178723514E-1
3.645540747E0	8.604761124E0	5.099649429E0	1.556231081E-1
3.647534747E0	8.633491516E0	5.023035049E0	1.125274822E-1
3.649551900E0	8.597578049E0	4.965574265E0	5.985504389E-2
3.650886767E0	8.492233276E0	4.946420670E0	-4.788403399E-3
3.653608477E0	8.365341187E0	4.948814869E0	-6.943184882E-2
3.655637747E0	8.286332130E0	4.934449673E0	-1.125274822E-1
3.657640093E0	8.190564156E0	4.944026470E0	-1.460463107E-1
3.658928959E0	8.042123795E0	5.003881454E0	-1.939303428E-1
3.661697285E0	7.836222172E0	5.106832027E0	-2.274491638E-1
3.663686421E0	7.644686222E0	5.231330872E0	-2.657563984E-1
3.665738247E0	7.484274387E0	5.365406036E0	-3.136404157E-1
3.667100613E0	7.328651428E0	5.499481201E0	-3.758896589E-1
3.669796131E0	7.182605267E0	5.638344765E0	-4.453215301E-1
3.671728805E0	7.038952827E0	5.784391403E0	-5.195417404E-1
3.673734382E0	6.931213856E0	5.894524574E0	-5.722141862E-1
3.675071690E0	6.849811077E0	5.975927353E0	-5.985504389E-1
3.677690190E0	6.763619900E0	6.066906929E0	-6.272808313E-1
3.679756613E0	6.675034523E0	6.181828976E0	-6.943184733E-1
3.681932785E0	6.615179062E0	6.289567947E0	-7.829039693E-1
3.683321844E0	6.584054470E0	6.354211330E0	-8.403648138E-1
3.685927170E0	6.564900875E0	6.414066315E0	-8.738836050E-1
3.687842305E0	6.536170483E0	6.505045891E0	-9.169792533E-1
3.689924093E0	6.495469093E0	6.591237068E0	-9.624691010E-1
3.691175959E0	6.478709698E0	6.660669327E0	-1.003170490E0
3.693981823E0	6.505045891E0	6.737283707E0	-1.060631394E0
3.695871036E0	6.514622688E0	6.816292286E0	-1.127668977E0
3.698028246E0	6.481103897E0	6.866570473E0	-1.177947283E0
3.699226844E0	6.435614109E0	6.924031258E0	-1.213860273E0
3.702085785E0	6.390124321E0	6.993463039E0	-1.261744261E0
3.704021536E0	6.335057735E0	7.053318024E0	-1.302445769E0
3.706126439E0	6.291962147E0	7.091625214E0	-1.328781962E0
3.707357036E0	6.234501362E0	7.122750282E0	-1.355118155E0
3.710184362E0	6.172252178E0	7.161057472E0	-1.374271750E0
3.712027844E0	6.136339188E0	7.218518257E0	-1.393425345E0
3.713964267E0	6.150704384E0	7.285555840E0	-1.412579060E0
3.715487536E0	6.186617374E0	7.359776020E0	-1.434126854E0
3.717956844E0	6.234501362E0	7.441178799E0	-1.441309452E0
3.720138882E0	6.303933144E0	7.570465565E0	-1.403002143E0
3.722321708E0	6.318298340E0	7.663839817E0	-1.374271750E0
3.723710690E0	6.330269337E0	7.776367188E0	-1.362300754E0
3.726325746E0	6.347028732E0	7.896077156E0	-1.352723956E0
3.728301305E0	6.366182327E0	8.032546997E0	-1.355118155E0
3.730322708E0	6.411672115E0	8.161833763E0	-1.434126854E0
3.731702459E0	6.519411087E0	8.298302650E0	-1.687912226E0
3.734380592E0	6.665457726E0	8.401253700E0	-1.867477298E0
3.736262190E0	6.818686485E0	8.444349289E0	-1.707065821E0
3.738412631E0	6.856993675E0	8.508993149E0	-1.436521053E0
3.739811036E0	6.722918510E0	8.592789650E0	-1.290474772E0
3.742470169E0	6.435614109E0	8.669404030E0	-1.213860273E0
3.744499477E0	6.019022942E0	8.722076416E0	-1.115697980E0
3.746526285E0	5.595249176E0	8.736441612E0	-1.046266198E0
3.747763613E0	5.267243862E0	8.772355080E0	-1.029506683E0
3.750583208E0	5.058948040E0	8.846575737E0	-1.019929886E0
3.752464921E0	4.991910458E0	8.911218643E0	-9.241618514E-1
3.754441652E0	5.023035049E0	8.947132111E0	-7.398083210E-1
3.755874690E0	5.102043629E0	8.947132111E0	-5.315127969E-1
3.758505382E0	5.200206280E0	8.932766914E0	-3.830722570E-1
3.760565113E0	5.305551052E0	8.935160637E0	-3.136404157E-1
3.762703669E0	5.379771233E0	8.923190117E0	-2.657563984E-1
3.764057113E0	5.415684223E0	8.894459724E0	-2.106897533E-1
3.766697669E0	5.415684223E0	8.856152534E0	-1.651999205E-1
3.768483228E0	5.418078423E0	8.813055992E0	-1.532289088E-1
3.770709900E0	5.430049419E0	8.762778282E0	-1.675941199E-1
3.771962190E0	5.451597214E0	8.707711220E0	-2.346317619E-1
3.774767631E0	5.468356609E0	8.633491516E0	-3.758896589E-1
3.776678498E0	5.492298603E0	8.540117264E0	-4.955997467E-1
3.778798900E0	5.532999992E0	8.434772491E0	-5.195417404E-1
3.780150728E0	5.571307182E0	8.331821442E0	-4.596867263E-1
3.782856592E0	5.588066578E0	8.219294548E0	-3.423708379E-1
3.784885438E0	5.580883980E0	8.092401505E0	-1.723825186E-1
3.786896438E0	5.542576790E0	7.975085735E0	2.633621916E-2
3.788148382E0	5.475539207E0	7.874529362E0	2.035071403E-1
3.790953592E0	5.394136429E0	7.805097580E0	3.160346150E-1
3.792810344E0	5.293580055E0	7.752425194E0	3.639186621E-1
3.794767228E0	5.212177277E0	7.702147007E0	3.902548850E-1
3.796213844E0	5.171475887E0	7.642292023E0	4.165911078E-1
3.798773152E0	5.147533417E0	7.589619160E0	4.501099288E-1
3.800912844E0	5.154716492E0	7.546523571E0	4.836287498E-1
3.803088131E0	5.200206280E0	7.505822182E0	5.123591423E-1
3.804546882E0	5.257667065E0	7.474697590E0	5.267243981E-1
3.807082592E0	5.295974255E0	7.445967197E0	5.315127969E-1
3.808893998E0	5.336675644E0	7.426813602E0	5.410895944E-1
3.811078361E0	5.391742229E0	7.419631004E0	5.530605912E-1
3.812362267E0	5.444414616E0	7.419631004E0	5.722141862E-1
3.815135784E0	5.499481201E0	7.422025204E0	5.937620401E-1
3.817066690E0	5.590460777E0	7.417236805E0	6.153098345E-1
3.819181131E0	5.695806026E0	7.407660007E0	6.368576288E-1
3.820412498E0	5.817910194E0	7.398083210E0	6.584054828E-1
3.823238092E0	5.954379559E0	7.398083210E0	6.727706790E-1
3.825196305E0	6.098031521E0	7.398083210E0	6.799532771E-1
3.827278515E0	6.253654957E0	7.393294811E0	6.871358752E-1
3.828500767E0	6.392518520E0	7.393294811E0	6.895300746E-1
3.831335130E0	6.564900875E0	7.438784599E0	6.943184733E-1
3.833218652E0	6.665457726E0	7.460332394E0	7.230489254E-1
3.835230382E0	6.768408298E0	7.467514992E0	7.517793179E-1
3.836590959E0	6.828263283E0	7.491456985E0	7.637503147E-1
3.839210421E0	6.861782074E0	7.534552574E0	7.781155705E-1
3.841281036E0	6.916848660E0	7.565677166E0	7.900865674E-1
3.843468515E0	7.012616634E0	7.568071365E0	7.996633649E-1
3.844813767E0	7.122750282E0	7.572859764E0	8.236053586E-1
3.847472515E0	7.228095055E0	7.592013359E0	8.379706144E-1
3.849295036E0	7.304709435E0	7.615955830E0	8.451532125E-1
3.851468553E0	7.350199223E0	7.639897823E0	8.451532125E-1
3.852860690E0	7.371747017E0	7.661445618E0	8.331822157E-1
3.855525707E0	7.374141216E0	7.692570210E0	8.140285611E-1
3.857467613E0	7.366958618E0	7.738059998E0	7.852981687E-1
3.859556823E0	7.366958618E0	7.778761387E0	7.589619160E-1
3.860804575E0	7.366958618E0	7.807491779E0	7.469909191E-1
3.863613130E0	7.362170219E0	7.833827972E0	7.374141216E-1
3.865586113E0	7.345410824E0	7.867346764E0	7.254431248E-1
3.867636284E0	7.331045628E0	7.876923561E0	7.086837292E-1
3.868886536E0	7.338228226E0	7.843404770E0	6.584054828E-1
3.871694130E0	7.321468830E0	7.807491779E0	5.650315881E-1
3.873649651E0	7.287950039E0	7.776367188E0	4.716577232E-1
3.875618882E0	7.266402245E0	7.778761387E0	4.237737060E-1
3.876985844E0	7.225700855E0	7.819462776E0	4.118026793E-1
3.879621767E0	7.165845871E0	7.857769966E0	4.046200812E-1
3.881667421E0	7.122750282E0	7.867346764E0	3.854664862E-1
3.883816438E0	7.108384609E0	7.867346764E0	3.303998411E-1
3.885165882E0	7.067683220E0	7.872135162E0	2.370259613E-1
3.887811053E0	6.988674641E0	7.860164165E0	1.795651317E-1
3.889675421E0	6.892906666E0	7.841010571E0	1.532289088E-1
3.891822399E0	6.773196697E0	7.831433773E0	9.816227108E-2
3.893144036E0	6.703764915E0	7.805097580E0	1.915361360E-2
3.895879553E0	6.787561893E0	7.726089001E0	-6.703764945E-2
3.897772305E0	6.955155849E0	7.623138428E0	-1.460463107E-1
3.899910053E0	7.058106422E0	7.548917770E0	-1.795651317E-1
3.901148728E0	7.026981831E0	7.522581577E0	-1.819593310E-1
3.903968169E0	6.921637058E0	7.522581577E0	-1.795651317E-1
3.905982459E0	6.842628479E0	7.515398979E0	-1.963245422E-1
3.908010246E0	6.811503887E0	7.489062786E0	-2.274491638E-1
3.909312998E0	6.837840080E0	7.441178799E0	-2.705447972E-1
3.912067746E0	6.907271862E0	7.381323814E0	-3.375824392E-1
3.913934305E0	7.010222435E0	7.323863029E0	-3.519476354E-1
3.915896382E0	7.117961884E0	7.275979042E0	-3.663128614E-1
3.917398959E0	7.220912457E0	7.230489254E0	-4.309563041E-1
3.919968036E0	7.232883453E0	7.232883453E0	-3.830722570E-1
3.922022267E0	7.127538681E0	7.352593422E0	-2.849099934E-1
3.924203553E0	7.113173485E0	7.515398979E0	-5.363011956E-1
3.925576498E0	7.204153061E0	7.632715225E0	-1.046266198E0
3.928197669E0	7.285555840E0	7.668628216E0	-1.448492050E0
3.930192361E0	7.309497833E0	7.682993412E0	-1.618480325E0
3.932195130E0	7.302315235E0	7.757213593E0	-1.618480325E0
3.933447151E0	7.230489254E0	7.862558365E0	-1.498770237E0
3.936252899E0	7.079654217E0	7.955932140E0	-1.276109457E0
3.938125690E0	6.730101109E0	8.018181801E0	-7.972691655E-1
3.940298322E0	6.449979305E0	8.044517517E0	-4.165911078E-1
3.941486267E0	6.189011574E0	8.090007782E0	-6.224924326E-2
3.944355899E0	5.966350555E0	8.164227486E0	2.250549644E-1
3.946331305E0	5.832275391E0	8.219294548E0	4.716577232E-1
3.948397092E0	5.832275391E0	8.224082947E0	6.799532771E-1
3.949650690E0	5.916072369E0	8.152256966E0	9.026140571E-1
3.952454438E0	6.023811340E0	8.025363922E0	1.058237195E0
3.954292651E0	6.165069580E0	7.845798969E0	1.120486379E0
3.956344190E0	6.315904140E0	7.613561630E0	1.113303781E0
3.957700690E0	6.469132900E0	7.362170219E0	1.094150186E0
3.960336651E0	6.519411087E0	7.168240070E0	1.053448796E0
3.962430998E0	6.478709698E0	7.062894821E0	9.864110947E-1
3.964588284E0	6.421248913E0	6.971915245E0	9.169792533E-1
3.965959998E0	6.332663536E0	6.897695065E0	8.714894056E-1
3.968592092E0	6.150704384E0	6.890512466E0	8.475474119E-1
3.970586322E0	5.920860767E0	6.928819656E0	8.140285611E-1
3.972588361E0	5.748478413E0	6.943184853E0	7.733271718E-1
3.973892459E0	5.667075634E0	6.924031258E0	7.230489254E-1
3.976645322E0	5.688623428E0	6.892906666E0	6.296750307E-1
3.978544305E0	5.772420406E0	6.876147270E0	4.884171486E-1
3.980675553E0	5.877765179E0	6.880935669E0	3.256114423E-1
3.981985921E0	6.050147533E0	6.878541470E0	1.292868853E-1
3.984732245E0	6.251260757E0	6.847416878E0	-6.224924326E-2
3.986687767E0	6.354211330E0	6.837840080E0	-2.154781520E-1
3.988787745E0	6.447585106E0	6.825869083E0	-3.591302633E-1
3.990225882E0	6.560112476E0	6.825869083E0	-5.291185975E-1
3.992844784E0	6.648698330E0	6.854599476E0	-6.967126727E-1
3.994703421E0	6.648698330E0	6.902483463E0	-8.259995580E-1
3.996637536E0	6.555324078E0	6.991068840E0	-9.481038451E-1
3.998190382E0	6.521805286E0	7.055712223E0	-1.058237195E0
4.000679613E0	6.500257492E0	7.079654217E0	-1.134851575E0
4.002789844E0	6.505045891E0	7.082048416E0	-1.201889277E0
4.004964322E0	6.464344501E0	7.077260017E0	-1.295263171E0
4.006351959E0	6.390124321E0	7.082048416E0	-1.407790542E0
4.008958822E0	6.390124321E0	7.101202011E0	-1.438915253E0
4.010784805E0	6.548141479E0	7.089231014E0	-1.467645645E0
4.012970553E0	6.694188118E0	7.070077419E0	-1.455674648E0
4.014226305E0	6.816292286E0	7.041347027E0	-1.424550056E0
4.017028168E0	6.931213856E0	7.022193432E0	-1.388636947E0
4.018934805E0	6.967126846E0	7.015010834E0	-1.323993564E0
4.021059514E0	6.955155849E0	6.998251438E0	-1.230619669E0
4.022298690E0	6.981492043E0	6.964732647E0	-1.151610970E0
4.025116476E0	7.048529625E0	6.914454460E0	-1.065419793E0
4.027144976E0	7.125144482E0	6.854599476E0	-9.648633003E-1
4.029155976E0	7.189787865E0	6.811503887E0	-8.667010069E-1
4.030564228E0	7.206547260E0	6.799532890E0	-7.661445141E-1
4.033212553E0	7.235277653E0	6.806715488E0	-6.775590777E-1
4.035241168E0	7.247248650E0	6.823474884E0	-6.177040339E-1
4.037059651E0	7.225700855E0	6.845022678E0	-5.841852427E-1
4.038461036E0	7.213729858E0	6.830657482E0	-5.578489900E-1
4.041018844E0	7.182605267E0	6.833051682E0	-5.482721925E-1
4.043166536E0	7.144298077E0	6.866570473E0	-5.793967843E-1
4.045345322E0	7.146692276E0	6.888118267E0	-6.224924326E-1
4.046697728E0	7.184999466E0	6.890512466E0	-6.631938815E-1
4.049338630E0	7.208941460E0	6.866570473E0	-6.823474765E-1
4.051174382E0	7.240066051E0	6.823474884E0	-6.943184733E-1
4.053334514E0	7.254431248E0	6.789956093E0	-6.895300746E-1
4.054863344E0	7.237671852E0	6.756437302E0	-6.703764796E-1
4.057391014E0	7.187393665E0	6.737283707E0	-6.368576288E-1
4.059314690E0	7.108384609E0	6.725312710E0	-5.817909837E-1
4.061435899E0	7.038952827E0	6.732495308E0	-5.291185975E-1
4.062671036E0	6.947973251E0	6.744466305E0	-4.764461517E-1
4.065491437E0	6.821080685E0	6.758831501E0	-4.572925270E-1
4.067519668E0	6.734889507E0	6.785167694E0	-4.740519226E-1
4.069528921E0	6.679822922E0	6.828263283E0	-5.171475410E-1
4.070742267E0	6.588842869E0	6.888118267E0	-5.602431893E-1
4.073586899E0	6.497863293E0	6.940790653E0	-6.081272364E-1
4.075516805E0	6.454767704E0	6.998251438E0	-6.751648784E-1
4.077376613E0	6.454767704E0	7.060500622E0	-7.469909191E-1
4.078844497E0	6.442796707E0	7.110779285E0	-8.068459630E-1
4.081427882E0	6.418854713E0	7.158663273E0	-8.762778044E-1
4.083564113E0	6.375759125E0	7.206547260E0	-9.409212470E-1
4.085721437E0	6.349422932E0	7.256825447E0	-1.003170490E0
4.087063305E0	6.337451935E0	7.307103634E0	-1.058237195E0
4.089721805E0	6.311115742E0	7.366958618E0	-1.103726983E0
4.091713344E0	6.251260757E0	7.443572998E0	-1.161187768E0
4.093720629E0	6.174646378E0	7.517793179E0	-1.225831270E0
4.094922959E0	6.131550789E0	7.570465565E0	-1.283292055E0
4.097776437E0	6.133944988E0	7.608773232E0	-1.331176162E0
4.099663228E0	6.162675381E0	7.625532627E0	-1.376665950E0
4.101807283E0	6.186617374E0	7.639897823E0	-1.412579060E0
4.103015997E0	6.210559368E0	7.666234016E0	-1.453280449E0
4.105863822E0	6.224924564E0	7.692570210E0	-1.493981838E0
4.107892629E0	6.222530365E0	7.718906403E0	-1.532289028E0
4.110019014E0	6.177040577E0	7.745242596E0	-1.561019540E0
4.111118805E0	6.133944988E0	7.766790390E0	-1.596932530E0
4.113963514E0	6.124367714E0	7.790732384E0	-1.654393315E0
4.115806613E0	6.124367714E0	7.809885979E0	-1.709460020E0
4.117749382E0	6.090848923E0	7.841010571E0	-1.752555609E0
4.119206767E0	5.990292549E0	7.879317760E0	-1.778891921E0
4.121758074E0	5.844246387E0	7.917624950E0	-1.790862918E0
4.123878690E0	5.707777023E0	7.972691536E0	-1.814804912E0
4.126084629E0	5.600037575E0	8.039729118E0	-1.843535304E0
4.127526767E0	5.511452198E0	8.118738174E0	-1.855506301E0
4.130079629E0	5.477933407E0	8.202534676E0	-1.848323703E0
4.131956267E0	5.482721806E0	8.281543732E0	-1.833958507E0
4.134091937E0	5.456385612E0	8.360552788E0	-1.824381709E0
4.135332613E0	5.386953831E0	8.439560890E0	-1.798045516E0
4.138149514E0	5.307945251E0	8.532935143E0	-1.786074519E0
4.140004651E0	5.202600479E0	8.640673637E0	-1.788468719E0
4.142180052E0	5.104437828E0	8.784325600E0	-1.783680320E0
4.143569151E0	5.023035049E0	8.916007042E0	-1.747767210E0
4.146237283E0	4.946420670E0	9.023746490E0	-1.692700624E0
4.148218805E0	4.814739704E0	9.193734169E0	-1.616086125E0
4.150277091E0	4.716577530E0	9.294290543E0	-1.556231141E0
4.151594536E0	4.570530891E0	9.378087997E0	-1.477222443E0
4.154334091E0	4.429273129E0	9.459490776E0	-1.410184860E0
4.156362668E0	4.259284973E0	9.562441826E0	-1.364694953E0
4.158137536E0	4.096478939E0	9.674968719E0	-1.319205165E0
4.159637497E0	3.921702385E0	9.753977776E0	-1.271321058E0
4.162231805E0	3.708618402E0	9.797073364E0	-1.213860273E0
4.164266613E0	3.569754839E0	9.880870819E0	-1.115697980E0
4.166468360E0	3.502717018E0	9.962273598E0	-1.005564690E0
4.167821844E0	3.426102638E0	1.003170490E1	-8.930372596E-1
4.170462398E0	3.313575268E0	1.008677197E1	-7.709329724E-1
4.172254920E0	3.246537447E0	1.012986755E1	-6.368576288E-1
4.174458514E0	3.236960649E0	1.016099167E1	-5.243301988E-1
4.175651959E0	3.246537447E0	1.016099167E1	-4.070142806E-1
4.178515745E0	3.251325846E0	1.015141487E1	-2.609679997E-1
4.180461920E0	3.239354849E0	1.013704967E1	-8.858546615E-2
4.182561514E0	3.227383852E0	1.011310768E1	1.053448766E-1
4.183794805E0	3.213018656E0	1.007958889E1	3.016694188E-1
4.186617937E0	3.205836058E0	1.004846478E1	4.955997467E-1
4.188579305E0	3.222595453E0	1.001733971E1	6.727706790E-1
4.190658129E0	3.248931646E0	9.959878922E0	8.283938169E-1
4.191895151E0	3.323152065E0	9.888052940E0	1.000776291E0
4.194714629E0	3.462015629E0	9.856928825E0	1.213860273E0
4.196521767E0	3.620033026E0	9.809044838E0	1.431732655E0
4.198512613E0	3.770867586E0	9.749189377E0	1.620874524E0
4.199944844E0	3.907337189E0	9.706093788E0	1.798045516E0
4.202476728E0	4.053383350E0	9.665391922E0	1.965639591E0
4.204615920E0	4.175487995E0	9.615114212E0	2.130839586E0
4.206823690E0	4.311957359E0	9.550470352E0	2.252943754E0
4.208165420E0	4.484339714E0	9.485827446E0	2.305616140E0
4.210851767E0	4.618414879E0	9.433155060E0	2.322375536E0
4.212666997E0	4.723760128E0	9.370905876E0	2.324769735E0
4.214848514E0	4.814739704E0	9.294290543E0	2.315192938E0
4.216054344E0	4.829104900E0	9.215282440E0	2.327163935E0
