"Time (s)"	"Gyroscope x (rad/s)"	"Gyroscope y (rad/s)"	"Gyroscope z (rad/s)"
7.885270000E-3	-2.822950855E-2	1.086569726E-1	-2.812298238E-1
9.179616000E-3	-2.822950855E-2	1.086569726E-1	-2.812298238E-1
1.188768400E-2	-2.822950855E-2	1.086569726E-1	-2.812298238E-1
1.367907700E-2	-2.822950855E-2	1.086569726E-1	-2.812298238E-1
1.590526000E-2	-2.822950855E-2	1.086569726E-1	-2.812298238E-1
1.714615400E-2	-2.822950855E-2	1.086569726E-1	-2.812298238E-1
1.996268300E-2	-2.822950855E-2	1.086569726E-1	-2.812298238E-1
2.176707700E-2	-2.822950855E-2	1.086569726E-1	-2.812298238E-1
2.399291400E-2	-2.822950855E-2	1.086569726E-1	-2.812298238E-1
2.520634700E-2	-2.822950855E-2	1.086569726E-1	-2.812298238E-1
2.805060700E-2	-2.822950855E-2	1.086569726E-1	-2.812298238E-1
3.000338500E-2	-2.822950855E-2	1.086569726E-1	-2.812298238E-1
3.209072200E-2	-2.822950855E-2	1.086569726E-1	-2.812298238E-1
3.327553900E-2	-2.822950855E-2	1.086569726E-1	-2.812298238E-1
3.614829900E-2	-2.822950855E-2	1.086569726E-1	-2.812298238E-1
3.799146200E-2	-2.822950855E-2	1.086569726E-1	-2.812298238E-1
3.995034700E-2	-7.201187611E-1	-6.572681665E-1	4.048004746E-2
4.138469300E-2	-7.179882526E-1	-6.647250056E-1	3.089267015E-2
4.412284700E-2	-7.089334726E-1	-6.684534550E-1	2.343581803E-2
4.608884700E-2	-6.988134980E-1	-6.748450398E-1	6.924218964E-3
4.828383700E-2	-6.908239722E-1	-6.844323874E-1	-6.924218964E-3
4.960215400E-2	-6.791061163E-1	-6.897587180E-1	-2.982740477E-2
5.227768300E-2	-6.636597514E-1	-6.950850487E-1	-4.793690145E-2
5.407361600E-2	-6.492787004E-1	-6.993461251E-1	-7.084008306E-2
5.627414500E-2	-6.370281577E-1	-6.988134980E-1	-9.534116834E-2
5.749142300E-2	-6.178534031E-1	-6.961503029E-1	-1.257012039E-1
6.033118300E-2	-6.024070382E-1	-6.854977012E-1	-1.533980817E-1
6.215080800E-2	-5.864281058E-1	-6.663229465E-1	-1.874865443E-1
6.437641400E-2	-5.661880374E-1	-6.466155052E-1	-2.199771106E-1
6.560019300E-2	-5.480785370E-1	-6.221144199E-1	-2.545982003E-1
6.843345300E-2	-5.267732739E-1	-5.970807076E-1	-2.892192900E-1
7.033757700E-2	-5.070658922E-1	-5.683186054E-1	-3.286340833E-1
7.247391400E-2	-4.889563918E-1	-5.368933082E-1	-3.680488765E-1
7.366323100E-2	-4.692489803E-1	-4.980111420E-1	-4.095941782E-1
7.653099100E-2	-4.383563101E-1	-4.399542212E-1	-4.740426838E-1
7.834223100E-2	-4.202468395E-1	-4.000068009E-1	-5.155879855E-1
8.031615400E-2	-4.000068009E-1	-3.568635881E-1	-5.555354357E-1
8.176173100E-2	-3.824299276E-1	-3.051982522E-1	-5.949501991E-1
8.436546200E-2	-3.637878001E-1	-2.503371537E-1	-6.343649626E-1
8.644015400E-2	-3.472762108E-1	-1.976065636E-1	-6.769755483E-1
8.866226000E-2	-3.334277868E-1	-1.395496428E-1	-7.195861340E-1
8.998411600E-2	-3.227751255E-1	-7.882957160E-2	-7.605988383E-1
9.266468300E-2	-3.142530024E-1	-1.544633508E-2	-7.989483476E-1
9.447261600E-2	-3.190467060E-1	3.195793182E-2	-8.612663150E-1
9.665929900E-2	-3.318298757E-1	8.096009493E-2	-9.257147908E-1
9.787703900E-2	-3.520699143E-1	1.294296384E-1	-9.832391143E-1
1.007152600E-1	-3.744404614E-1	1.981391907E-1	-1.018925428E0
1.025781540E-1	-4.058657587E-1	2.918824553E-1	-1.055677056E0
1.047469520E-1	-4.410194755E-1	3.542004228E-1	-1.085504532E0
1.059480000E-1	-4.783037305E-1	3.430151641E-1	-1.110005617E0
1.088037600E-1	-5.113269091E-1	2.753708661E-1	-1.135039330E0
1.108045000E-1	-5.379585624E-1	1.810949594E-1	-1.165399313E0
1.128587600E-1	-5.661880374E-1	7.350324839E-2	-1.193628788E0
1.140727310E-1	-6.008091569E-1	-3.515372798E-2	-1.226652026E0
1.169149140E-1	-6.380934119E-1	-1.326254308E-1	-1.262338400E0
1.187506160E-1	-6.743124127E-1	-2.141181529E-1	-1.293763638E0
1.206856160E-1	-7.174556255E-1	-2.854908705E-1	-1.328917384E0
1.221833850E-1	-7.590008974E-1	-3.547330499E-1	-1.361940622E0
1.249494230E-1	-8.058725595E-1	-4.202468395E-1	-1.391767979E0
1.268358460E-1	-8.543421030E-1	-4.868258536E-1	-1.415736437E0
1.290318750E-1	-9.076052904E-1	-5.581985712E-1	-1.435443878E0
1.303491540E-1	-9.582054019E-1	-6.332997084E-1	-1.447694421E0
1.330249520E-1	-1.011468649E0	-7.057377100E-1	-1.452488065E0
1.348460390E-1	-1.070590734E0	-7.829693556E-1	-1.453020692E0
1.370361450E-1	-1.127582431E0	-8.591358066E-1	-1.448759675E0
1.382263850E-1	-1.190965652E0	-9.432916641E-1	-1.436509132E0
1.410936060E-1	-1.253283620E0	-1.031708598E0	-1.415736437E0
1.429283080E-1	-1.315068960E0	-1.127049804E0	-1.392833233E0
1.451234910E-1	-1.377386928E0	-1.234641552E0	-1.366201639E0
1.463156540E-1	-1.441835403E0	-1.355016351E0	-1.331047893E0
1.491796060E-1	-1.502555490E0	-1.484446049E0	-1.292698383E0
1.510968460E-1	-1.565406084E0	-1.622397780E0	-1.252750993E0
1.532196450E-1	-1.626126170E0	-1.760349512E0	-1.204814076E0
1.544398080E-1	-1.688444138E0	-1.898833871E0	-1.156877160E0
1.572764140E-1	-1.753957868E0	-2.033057213E0	-1.113201380E0
1.591364620E-1	-1.816808581E0	-2.157160521E0	-1.065264463E0
1.610761540E-1	-1.883387566E0	-2.272741795E0	-1.020523310E0
1.625188460E-1	-1.945172906E0	-2.385127068E0	-9.784454107E-1
1.651100770E-1	-2.006425619E0	-2.487392426E0	-9.400959015E-1
1.672040000E-1	-2.066612959E0	-2.587527275E0	-9.006810784E-1
1.694101440E-1	-2.125202656E0	-2.682335854E0	-8.617989421E-1
1.707462310E-1	-2.176335335E0	-2.769687653E0	-8.234494328E-1
1.734068750E-1	-2.222141743E0	-2.861300230E0	-7.792409658E-1
1.752171930E-1	-2.264219522E0	-2.957174063E0	-7.371630073E-1
1.774023750E-1	-2.299906015E0	-3.024285793E0	-6.966829300E-1
1.785991540E-1	-2.326004982E0	-3.063700676E0	-6.551376581E-1
1.814594910E-1	-2.356364965E0	-3.073287964E0	-6.226470470E-1
1.833168850E-1	-2.388322830E0	-3.033340454E0	-5.842975378E-1
1.855050670E-1	-2.420280933E0	-2.918824673E0	-5.347627401E-1
1.867280770E-1	-2.434129238E0	-2.819222450E0	-5.017395616E-1
1.895619910E-1	-2.438390255E0	-2.711097956E0	-4.735100567E-1
1.914995000E-1	-2.431466103E0	-2.597647429E0	-4.436826408E-1
1.936026440E-1	-2.418683052E0	-2.475142002E0	-4.186489284E-1
1.948014620E-1	-2.397377729E0	-2.345179796E0	-3.925499618E-1
1.976599140E-1	-2.370213509E0	-2.204032183E0	-3.728425503E-1
1.994912690E-1	-2.330798626E0	-2.047438383E0	-3.552657068E-1
2.014072310E-1	-2.286057472E0	-1.873800159E0	-3.355582952E-1
2.029087690E-1	-2.227468014E0	-1.677258849E0	-3.195793331E-1
2.056634230E-1	-2.161421537E0	-1.458347082E0	-2.977414131E-1
2.075964230E-1	-2.091646671E0	-1.215466738E0	-2.828277051E-1
2.097904620E-1	-2.014415026E0	-9.560748339E-1	-2.593919039E-1
2.111352690E-1	-1.927063346E0	-6.844323874E-1	-2.396845073E-1
2.137975290E-1	-1.832254887E0	-4.048005044E-1	-2.183792144E-1
2.156242310E-1	-1.733185291E0	-1.177117229E-1	-1.976065636E-1
2.177930290E-1	-1.624528289E0	1.725728363E-1	-1.768338978E-1
2.190066930E-1	-1.514273405E0	4.559331834E-1	-1.565938741E-1
2.218501440E-1	-1.400822759E0	7.334345579E-1	-1.379517466E-1
2.237056540E-1	-1.286839485E0	9.992180467E-1	-1.246359423E-1
2.258806060E-1	-1.167529821E0	1.255946755E0	-1.123853996E-1
2.271046160E-1	-1.056209683E0	1.502555490E0	-1.075917110E-1
2.299371830E-1	-9.480853677E-1	1.731587410E0	-1.086569726E-1
2.319176930E-1	-8.490157723E-1	1.952097058E0	-1.193096191E-1
2.339435770E-1	-7.574030161E-1	2.153432131E0	-1.384843737E-1
2.351470770E-1	-6.695187092E-1	2.330798626E0	-1.667138934E-1
2.380163750E-1	-5.864281058E-1	2.474076748E0	-2.013349831E-1
2.398217310E-1	-5.118595958E-1	2.584864140E0	-2.412824035E-1
2.417833080E-1	-4.431500137E-1	2.655704260E0	-2.929477394E-1
2.432651540E-1	-3.792341352E-1	2.692988634E0	-3.419498801E-1
2.457826930E-1	-3.131877482E-1	2.698847532E0	-3.952131271E-1
2.479131540E-1	-2.588592768E-1	2.678607464E0	-4.527373910E-1
2.501242310E-1	-2.029328793E-1	2.640257835E0	-5.091964006E-1
2.514618460E-1	-1.544633508E-1	2.585396767E0	-5.629922748E-1
2.541301540E-1	-1.091896072E-1	2.516687393E0	-6.194512844E-1
2.559116930E-1	-6.817692518E-2	2.438922882E0	-6.700513363E-1
2.581423360E-1	-2.982740477E-2	2.345712423E0	-7.195861340E-1
2.593286540E-1	5.326322280E-3	2.249838591E0	-7.659251690E-1
2.621994520E-1	3.675162420E-2	2.144910097E0	-8.117315173E-1
2.640058080E-1	6.178534031E-2	2.035187721E0	-8.543421030E-1
2.662299130E-1	8.468852192E-2	1.920139194E0	-8.926916122E-1
2.674671540E-1	1.033306494E-1	1.797633767E0	-9.283779860E-1
2.702694230E-1	1.182443574E-1	1.672997832E0	-9.677927494E-1
2.722003850E-1	1.310275346E-1	1.537176609E0	-1.003479123E0
2.743084230E-1	1.384843737E-1	1.399224877E0	-1.038632870E0
2.755963080E-1	1.470064968E-1	1.255946755E0	-1.074851871E0
2.783758850E-1	1.512675583E-1	1.106277108E0	-1.110005617E0
2.802098850E-1	1.539307088E-1	9.464874864E-1	-1.144093990E0
2.821793080E-1	1.624528319E-1	7.776430249E-1	-1.178182483E0
2.836114620E-1	1.640507281E-1	5.960154533E-1	-1.216531992E0
2.863906160E-1	1.768338978E-1	2.966761589E-1	-1.276186824E0
2.882945770E-1	1.826928556E-1	8.309062570E-2	-1.315601587E0
2.905062690E-1	1.896170676E-1	-1.454086006E-1	-1.354483724E0
2.918590770E-1	1.965412945E-1	-3.818973005E-1	-1.393898487E0
2.945122980E-1	2.077265680E-1	-6.311691999E-1	-1.434378624E0
2.964524230E-1	2.162486911E-1	-8.905611038E-1	-1.472195506E0
2.985001920E-1	2.210423797E-1	-1.148887753E0	-1.512675524E0
2.997101920E-1	2.215750068E-1	-1.411475420E0	-1.549427152E0
3.025648750E-1	2.391518652E-1	-1.649562001E0	-1.584580898E0
3.044074230E-1	3.147856593E-1	-1.683117867E0	-1.618669391E0
3.066100290E-1	4.522047639E-1	-1.512142897E0	-1.642637849E0
3.077960770E-1	5.299690962E-1	-1.421595454E0	-1.669269443E0
3.106660670E-1	5.528722405E-1	-1.487109184E0	-1.707618952E0
3.126061540E-1	5.645901561E-1	-1.640507221E0	-1.745435834E0
3.147029230E-1	5.811017752E-1	-1.816808581E0	-1.774197936E0
3.159022690E-1	6.098638773E-1	-1.945172906E0	-1.801362157E0
3.187602980E-1	6.641923785E-1	-1.992044568E0	-1.820004344E0
3.205800390E-1	7.387608886E-1	-1.977130890E0	-1.829591751E0
3.225278460E-1	8.122641444E-1	-1.961684465E0	-1.830124378E0
3.239693080E-1	8.767126203E-1	-1.975000262E0	-1.823200107E0
3.265062310E-1	9.406285286E-1	-2.011751890E0	-1.810416937E0
3.287101920E-1	1.010403395E0	-2.066612959E0	-1.788046360E0
3.308907210E-1	1.078047633E0	-2.131594181E0	-1.760882139E0
3.322151540E-1	1.143561363E0	-2.223206997E0	-1.726793647E0
3.348931440E-1	1.207477212E0	-2.349440813E0	-1.686313629E0
3.368311160E-1	1.263403654E0	-2.514556646E0	-1.641572475E0
3.388880280E-1	1.311340570E0	-2.720152855E0	-1.596298814E0
3.401372690E-1	1.351287961E0	-2.971555233E0	-1.550492406E0
3.429373080E-1	1.369397402E0	-3.266633511E0	-1.495098710E0
3.447775770E-1	1.377386928E0	-3.594734907E0	-1.441835403E0
3.469732590E-1	1.368864775E0	-3.940413237E0	-1.383778572E0
3.481874230E-1	1.345961690E0	-4.297809601E0	-1.326786876E0
3.510121920E-1	1.318264723E0	-4.644020557E0	-1.266066790E0
3.530566820E-1	1.282578349E0	-4.973186970E0	-1.210140467E0
3.552189130E-1	1.256479383E0	-5.270928383E0	-1.155279279E0
3.562870390E-1	1.240500450E0	-5.542571068E0	-1.107874990E0
3.591265280E-1	1.236239433E0	-5.819539547E0	-1.076982379E0
3.609748850E-1	1.240500450E0	-6.069344044E0	-1.053546548E0
3.628798460E-1	1.246892095E0	-6.290919304E0	-1.046089649E0
3.643723850E-1	1.256479383E0	-6.480003834E0	-1.053546548E0
3.671592310E-1	1.263936281E0	-6.626477718E0	-1.080710769E0
3.690635000E-1	1.279915214E0	-6.688262939E0	-1.126517177E0
3.712429130E-1	1.301753163E0	-6.672284126E0	-1.176584601E0
3.725930770E-1	1.331580520E0	-6.608367920E0	-1.235174179E0
3.752373360E-1	1.360875368E0	-6.509298325E0	-1.290567875E0
3.770819230E-1	1.386974335E0	-6.399043560E0	-1.349157453E0
3.792484900E-1	1.404018521E0	-6.289854050E0	-1.411475420E0
3.804870770E-1	1.416801691E0	-6.175338268E0	-1.474326015E0
3.832979620E-1	1.419464946E0	-6.052299976E0	-1.539307117E0
3.851234620E-1	1.424258590E0	-5.913282871E0	-1.606418848E0
3.873356440E-1	1.419464946E0	-5.759352207E0	-1.661279917E0
3.885573080E-1	1.420530200E0	-5.591573238E0	-1.672465205E0
3.913844620E-1	1.416269064E0	-5.404619217E0	-1.585113525E0
3.933399620E-1	1.416801691E0	-5.205414772E0	-1.390170097E0
3.954311050E-1	1.420530200E0	-5.007275581E0	-1.156877160E0
3.966475770E-1	1.436509132E0	-4.817125797E0	-9.443569183E-1
3.994869130E-1	1.471662879E0	-4.534297943E0	-6.854977012E-1
4.013057310E-1	1.488174438E0	-4.341485500E0	-5.086637735E-1
4.032883850E-1	1.495098710E0	-4.149205208E0	-3.142530024E-1
4.047513850E-1	1.484446049E0	-3.963849068E0	-1.027980223E-1
4.072398080E-1	1.459412336E0	-3.785417318E0	1.001348570E-1
4.096174510E-1	1.424791217E0	-3.623497009E0	2.551308274E-1
4.116197970E-1	1.384843826E0	-3.481284142E0	3.563309610E-1
4.129946540E-1	1.344363689E0	-3.358246088E0	4.000068009E-1
4.156135670E-1	1.300155282E0	-3.250121832E0	4.010720551E-1
4.174990770E-1	1.252750993E0	-3.160639524E0	3.792341352E-1
4.196087590E-1	1.202683568E0	-3.095125914E0	3.446130455E-1
4.208079230E-1	1.144626617E0	-3.061569929E0	3.089267015E-1
4.236652970E-1	1.080710769E0	-3.055178404E0	2.705771625E-1
4.255879620E-1	1.016794920E0	-3.078081608E0	2.423476577E-1
4.277100280E-1	9.475527406E-1	-3.127083778E0	2.173139453E-1
4.289602690E-1	8.756473660E-1	-3.200587034E0	1.965412945E-1
4.317663360E-1	8.021441102E-1	-3.286340952E0	1.784317940E-1
4.336736540E-1	7.286409140E-1	-3.375823021E0	1.640507281E-1
4.357929620E-1	6.514092088E-1	-3.470631599E0	1.459412277E-1
4.370230390E-1	5.811017752E-1	-3.563842297E0	1.320927888E-1
4.398639510E-1	5.086637735E-1	-3.653856993E0	1.139832959E-1
4.417161920E-1	4.388889670E-1	-3.739610910E0	9.001484513E-2
4.436211920E-1	3.755057156E-1	-3.828560352E0	6.924218684E-2
4.451413850E-1	3.169161677E-1	-3.913781643E0	4.527373984E-2
4.479114230E-1	2.615224123E-1	-3.994741678E0	1.917476021E-2
4.498286150E-1	2.114549875E-1	-4.071440697E0	-4.261057824E-3
4.519968740E-1	1.656486243E-1	-4.143878937E0	-2.929477207E-2
4.533364230E-1	1.272991002E-1	-4.211523056E0	-5.379585549E-2
4.559997200E-1	9.747169912E-2	-4.271710396E0	-7.776430249E-2
4.577841920E-1	7.190535218E-2	-4.323375702E0	-1.097222418E-1
4.599947970E-1	5.379585549E-2	-4.364921093E0	-1.411475390E-1
4.611923460E-1	4.261057824E-2	-4.393683434E0	-1.757686287E-1
4.640512590E-1	3.728425503E-2	-4.410727501E0	-2.141181529E-1
4.658769230E-1	4.101268202E-2	-4.412858009E0	-2.492718846E-1
4.680817970E-1	5.273059011E-2	-4.391552925E0	-2.924150825E-1
4.692963080E-1	7.137271762E-2	-4.346811771E0	-3.318298757E-1
4.721381820E-1	1.001348570E-1	-4.278634548E0	-3.733751774E-1
4.740930770E-1	1.320927888E-1	-4.186489105E0	-4.085289240E-1
4.761601430E-1	1.683117896E-1	-4.071973324E0	-4.410194755E-1
4.774671540E-1	2.109223604E-1	-3.940945864E0	-4.719121456E-1
4.802096150E-1	2.514024079E-1	-3.794471979E0	-4.980111420E-1
4.820240770E-1	2.972087860E-1	-3.637878180E0	-5.187838078E-1
4.839787690E-1	3.494067490E-1	-3.479153633E0	-5.347627401E-1
4.854358850E-1	3.968110085E-1	-3.319896698E0	-5.448827744E-1
4.879970770E-1	4.495415986E-1	-3.162237644E0	-5.486112237E-1
4.901287690E-1	4.964132309E-1	-3.016829014E0	-5.550028086E-1
4.923338360E-1	5.400890708E-1	-2.933205605E0	-5.496764779E-1
4.937409230E-1	5.683186054E-1	-2.904976130E0	-5.400890708E-1
4.963271820E-1	6.029396653E-1	-2.852778196E0	-5.294364095E-1
4.981226920E-1	6.247776151E-1	-2.810700178E0	-5.150553584E-1
5.003375280E-1	6.386260390E-1	-2.786199093E0	-5.038700700E-1
5.016636920E-1	6.386260390E-1	-2.774481297E0	-4.910869002E-1
5.043938740E-1	6.317018270E-1	-2.762230635E0	-4.804342687E-1
5.061974230E-1	6.167881489E-1	-2.752643347E0	-4.687163532E-1
5.084239890E-1	5.944175720E-1	-2.755839109E0	-4.575310946E-1
5.096366150E-1	5.651227832E-1	-2.764894009E0	-4.452805519E-1
5.124805660E-1	5.187838078E-1	-2.798449755E0	-4.266384244E-1
5.144627690E-1	4.889563918E-1	-2.814428806E0	-4.138552547E-1
5.165206050E-1	4.580637217E-1	-2.832538128E0	-3.989415467E-1
5.177469620E-1	4.250405133E-1	-2.849049807E0	-3.861583769E-1
5.205766050E-1	3.920173049E-1	-2.859169722E0	-3.755057156E-1
5.224549230E-1	3.584614992E-1	-2.866094112E0	-3.664509654E-1
5.243431150E-1	3.206445873E-1	-2.865561485E0	-3.691141307E-1
5.258221540E-1	2.833603323E-1	-2.849582434E0	-3.771036267E-1
5.285878460E-1	2.476739883E-1	-2.822418213E0	-3.962783813E-1
5.305100380E-1	2.114549875E-1	-2.790460348E0	-4.245078862E-1
5.327012310E-1	1.757686287E-1	-2.748914957E0	-4.623247683E-1
5.340700000E-1	1.432780623E-1	-2.703108549E0	-5.044026971E-1
5.366996050E-1	1.161138266E-1	-2.651975870E0	-5.518069863E-1
5.385002690E-1	9.480853379E-2	-2.582201004E0	-6.056028605E-1
5.406879620E-1	7.510114461E-2	-2.501773596E0	-6.546050310E-1
5.419212690E-1	6.178534031E-2	-2.412823915E0	-7.020092607E-1
5.447502580E-1	5.166532472E-2	-2.326004982E0	-7.478156686E-1
5.465793850E-1	4.580637068E-2	-2.242381573E0	-7.840346098E-1
5.487947970E-1	4.474110901E-2	-2.159823656E0	-8.159925938E-1
5.499877690E-1	4.154531285E-2	-2.083124638E0	-8.415589333E-1
5.528504510E-1	4.048004746E-2	-2.010686636E0	-8.617989421E-1
5.547868850E-1	4.420847446E-2	-1.947303414E0	-8.772453070E-1
5.568765380E-1	4.633900523E-2	-1.896703362E0	-8.857674003E-1
5.580812310E-1	4.687163606E-2	-1.860484362E0	-8.884305358E-1
5.609462970E-1	4.846953228E-2	-1.834918022E0	-8.857674003E-1
5.627884230E-1	4.474110901E-2	-1.814677954E0	-8.761799932E-1
5.647286540E-1	4.207794741E-2	-1.801362157E0	-8.665926456E-1
5.661899230E-1	3.781688958E-2	-1.803492665E0	-8.495483994E-1
5.687509230E-1	3.142530099E-2	-1.809884310E0	-8.293083906E-1
5.709105770E-1	2.396845073E-2	-1.824265361E0	-8.037420511E-1
5.730739510E-1	1.065264456E-2	-1.842374921E0	-7.803062201E-1
5.744486920E-1	-4.793690052E-3	-1.866343379E0	-7.472830415E-1
5.770765660E-1	-2.396845073E-2	-1.891909719E0	-7.126619220E-1
5.788991920E-1	-3.994741663E-2	-1.920671821E0	-6.823018789E-1
5.810714510E-1	-6.551376730E-2	-1.945705533E0	-6.492787004E-1
5.822873850E-1	-9.427590668E-2	-1.967543483E0	-6.178534031E-1
5.851278740E-1	-1.251685768E-1	-1.987783432E0	-5.954828262E-1
5.869659620E-1	-1.608549356E-1	-2.002164602E0	-5.704491138E-1
5.891570660E-1	-2.002697140E-1	-2.014415026E0	-5.491438508E-1
5.903444620E-1	-2.412824035E-1	-2.027730942E0	-5.305017233E-1
5.932129510E-1	-2.838929892E-1	-2.044775009E0	-5.113269091E-1
5.951654230E-1	-3.302319944E-1	-2.062884569E0	-4.905542731E-1
5.972667580E-1	-3.739078343E-1	-2.076733112E0	-4.767058492E-1
5.984595770E-1	-4.223773479E-1	-2.091646671E0	-4.596616030E-1
6.012994620E-1	-4.719121456E-1	-2.099636316E0	-4.463458061E-1
6.031599230E-1	-5.257080197E-1	-2.102832079E0	-4.420847595E-1
6.051081540E-1	-5.795038939E-1	-2.104962587E0	-4.298342168E-1
6.065727690E-1	-6.354302764E-1	-2.101766825E0	-4.229099751E-1
6.094060660E-1	-6.924219131E-1	-2.088450909E0	-4.138552547E-1
6.112420380E-1	-7.563377619E-1	-2.076733112E0	-4.074636400E-1
6.134356040E-1	-8.202536106E-1	-2.059156179E0	-4.010720551E-1
6.147807310E-1	-8.857674003E-1	-2.039448738E0	-3.941478431E-1
6.174294890E-1	-9.550095797E-1	-2.021339417E0	-3.834952116E-1
6.192634610E-1	-1.022121191E0	-1.997903466E0	-3.744404614E-1
6.214398740E-1	-1.094026566E0	-1.977130890E0	-3.664509654E-1
6.226596920E-1	-1.171790957E0	-1.954227686E0	-3.701793849E-1
6.254959120E-1	-1.279382586E0	-1.925998092E0	-3.808320463E-1
6.274237690E-1	-1.356081605E0	-1.910019159E0	-3.893541694E-1
6.295262970E-1	-1.427986979E0	-1.899366498E0	-3.914846778E-1
6.307426920E-1	-1.499892354E0	-1.899899125E0	-3.968110085E-1
6.335822970E-1	-1.562742949E0	-1.913214922E0	-3.941478431E-1
6.356108350E-1	-1.629321933E0	-1.930791855E0	-3.946804702E-1
6.376215270E-1	-1.686846256E0	-1.957956076E0	-3.882888854E-1
6.388870000E-1	-1.747033715E0	-1.989914060E0	-3.802994192E-1
6.416780270E-1	-1.800296903E0	-2.024002552E0	-3.792341352E-1
6.436740770E-1	-1.858353853E0	-2.055960417E0	-3.749730885E-1
6.455884610E-1	-1.912682295E0	-2.091646671E0	-3.760383427E-1
6.469817690E-1	-1.964347601E0	-2.127333164E0	-3.744404614E-1
6.496050770E-1	-2.017610788E0	-2.157693148E0	-3.802994192E-1
6.516463850E-1	-2.068743467E0	-2.192846775E0	-3.936152160E-1
6.538091430E-1	-2.124137402E0	-2.234924793E0	-4.005394280E-1
6.552777310E-1	-2.172074318E0	-2.282861710E0	-4.111920893E-1
6.578019500E-1	-2.220011234E0	-2.335059643E0	-4.229099751E-1
6.597956040E-1	-2.269546032E0	-2.390453339E0	-4.394215941E-1
6.617971040E-1	-2.313754320E0	-2.452771425E0	-4.516721368E-1
6.632011920E-1	-2.361691236E0	-2.513491392E0	-4.703142643E-1
6.658535660E-1	-2.406965017E0	-2.576342106E0	-4.878911078E-1
6.677933460E-1	-2.452238798E0	-2.645584345E0	-5.065332651E-1
6.698989890E-1	-2.495382071E0	-2.719087601E0	-5.267732739E-1
6.712513850E-1	-2.543851614E0	-2.793656111E0	-5.502091050E-1
6.739557960E-1	-2.592321157E0	-2.862365484E0	-5.704491138E-1
6.759844120E-1	-2.644519091E0	-2.927879333E0	-5.949501991E-1
6.779962960E-1	-2.695651770E0	-2.989664793E0	-6.205165386E-1
6.792579230E-1	-2.752643347E0	-3.052515268E0	-6.471481323E-1
6.820532960E-1	-2.807504416E0	-3.107376337E0	-6.764429212E-1
6.840822960E-1	-2.866094112E0	-3.155313253E0	-7.073355913E-1
6.858621150E-1	-2.922553062E0	-3.202717543E0	-7.408914566E-1
6.873323080E-1	-2.979544640E0	-3.242665052E0	-7.701861858E-1
6.901406420E-1	-3.026948929E0	-3.292732477E0	-7.989483476E-1
6.920536920E-1	-3.080212116E0	-3.324690342E0	-8.319715261E-1
6.941875660E-1	-3.126551151E0	-3.355050325E0	-8.602010608E-1
6.957443080E-1	-3.169694424E0	-3.377420902E0	-8.921589851E-1
6.981906420E-1	-3.208576441E0	-3.426955700E0	-9.193232059E-1
7.001094610E-1	-3.214968204E0	-3.661314011E0	-9.544769526E-1
7.021856040E-1	-3.221359730E0	-3.785949945E0	-9.965549111E-1
7.037288080E-1	-3.252784967E0	-3.779025555E0	-1.040230751E0
7.062414890E-1	-3.292199850E0	-3.743871927E0	-1.086569786E0
7.081651920E-1	-3.324157715E0	-3.720968723E0	-1.133441329E0
7.102706040E-1	-3.356648207E0	-3.704989672E0	-1.176584601E0
7.115898460E-1	-3.382747173E0	-3.693271875E0	-1.216531992E0
7.143264120E-1	-3.407248259E0	-3.685282469E0	-1.256479383E0
7.163547190E-1	-3.429086208E0	-3.684749842E0	-1.287372112E0
7.183483730E-1	-3.439738989E0	-3.694337130E0	-1.315068960E0
7.196003460E-1	-3.443467379E0	-3.724164486E0	-1.331047893E0
7.224042190E-1	-3.441869497E0	-3.774231911E0	-1.332113147E0
7.242848460E-1	-3.431749344E0	-3.847735167E0	-1.324123740E0
7.263116540E-1	-3.416835785E0	-3.942011118E0	-1.310275316E0
7.277564610E-1	-3.393399954E0	-4.049070358E0	-1.291633129E0
7.302461920E-1	-3.364637852E0	-4.193413734E0	-1.259142637E0
7.324465380E-1	-3.344930410E0	-4.270112514E0	-1.239967823E0
7.345191810E-1	-3.318298817E0	-4.312190533E0	-1.220260382E0
7.360090380E-1	-3.275688171E0	-4.296211720E0	-1.191498280E0
7.385129880E-1	-3.201652288E0	-4.213120937E0	-1.155811906E0
7.404638460E-1	-3.098854303E0	-4.050668240E0	-1.115864515E0
7.425220650E-1	-2.953445673E0	-3.814179420E0	-1.078047633E0
7.438341540E-1	-2.797917128E0	-3.523894787E0	-1.046622276E0
7.465779500E-1	-2.634398937E0	-3.234142780E0	-1.013066530E0
7.485926150E-1	-2.482066154E0	-2.965163708E0	-9.853696227E-1
7.506069110E-1	-2.336124897E0	-2.739327431E0	-9.603359103E-1
7.518675770E-1	-2.192314148E0	-2.539057732E0	-9.400959015E-1
7.546623730E-1	-2.052232027E0	-2.349440813E0	-9.198558331E-1
7.566906420E-1	-1.918008685E0	-2.158225775E0	-9.001484513E-1
7.587009110E-1	-1.794438004E0	-1.970206618E0	-8.740494847E-1
7.599586150E-1	-1.674063087E0	-1.788046360E0	-8.468852639E-1
7.627574500E-1	-1.551025033E0	-1.621865153E0	-8.143946528E-1
7.647240380E-1	-1.430650115E0	-1.475923896E0	-7.797735929E-1
7.667711920E-1	-1.309742689E0	-1.352353215E0	-7.403587699E-1
7.680684610E-1	-1.188302517E0	-1.252218366E0	-7.014766335E-1
7.708582190E-1	-1.067927599E0	-1.182443500E0	-6.636597514E-1
7.727274610E-1	-9.507485032E-1	-1.134506702E0	-6.210491657E-1
7.748871810E-1	-8.351673484E-1	-1.090298176E0	-5.800365210E-1
7.762988080E-1	-7.206513882E-1	-1.048752904E0	-5.384911895E-1
7.788790650E-1	-6.066681147E-1	-1.002413869E0	-4.937500656E-1
7.807074230E-1	-4.894890189E-1	-9.464874864E-1	-4.463458061E-1
7.828739110E-1	-3.696467578E-1	-8.767126203E-1	-3.994741738E-1
7.842315380E-1	-2.498045117E-1	-7.957525253E-1	-3.462109566E-1
7.869291810E-1	-1.288969964E-1	-6.977482438E-1	-3.020024598E-1
7.889526540E-1	-2.130528912E-3	-5.864281058E-1	-2.567287385E-1
7.909740270E-1	1.251685768E-1	-4.740426838E-1	-2.130528986E-1
7.924106540E-1	2.450108230E-1	-3.717772961E-1	-1.731054783E-1
7.950292960E-1	3.605920076E-1	-2.790992856E-1	-1.395496428E-1
7.970332690E-1	4.713795185E-1	-2.071939409E-1	-1.107875034E-1
7.990674880E-1	5.789712071E-1	-1.560612470E-1	-7.882957160E-2
8.003334610E-1	6.801713705E-1	-1.187769845E-1	-5.379585549E-2
8.031226040E-1	7.771103978E-1	-8.948221803E-2	-3.195793182E-2
8.050200380E-1	8.660600185E-1	-6.231797114E-2	-1.065264456E-2
8.070351920E-1	9.448895454E-1	-4.261057824E-2	1.118527725E-2
8.084379230E-1	1.014664412E0	-2.556634694E-2	3.142530099E-2
8.111590380E-1	1.067927599E0	-6.924218964E-3	5.166532472E-2
8.132348730E-1	1.111070871E0	1.597896684E-3	6.498113275E-2
8.152507190E-1	1.143028736E0	1.065264456E-2	7.616640627E-2
8.167157690E-1	1.156877160E0	7.989482954E-3	8.575379103E-2
8.192528340E-1	1.161670923E0	1.065264456E-3	9.001484513E-2
8.212460270E-1	1.151550889E0	-1.651159860E-2	9.267801046E-2
8.232470650E-1	1.133441329E0	-4.527373984E-2	8.415589482E-2
8.245025770E-1	1.107342362E0	-8.681905270E-2	7.616640627E-2
8.273029500E-1	1.072188616E0	-1.411475390E-1	5.858954415E-2
8.292903080E-1	1.032773852E0	-2.061286718E-1	3.781688958E-2
8.313326800E-1	9.853696227E-1	-2.785666585E-1	5.326322280E-3
8.328610000E-1	9.353021979E-1	-3.520699143E-1	-3.355583176E-2
8.353884880E-1	8.804410696E-1	-4.324973822E-1	-7.882957160E-2
8.374168340E-1	8.229168057E-1	-5.065332651E-1	-1.310275346E-1
8.394426030E-1	7.334345579E-1	-6.162554622E-1	-2.226402760E-1
8.407000770E-1	6.721818447E-1	-6.929545403E-1	-2.838929892E-1
8.434990650E-1	6.077333689E-1	-7.669904232E-1	-3.456783295E-1
8.455276030E-1	5.427522659E-1	-8.415589333E-1	-4.074636400E-1
8.473751540E-1	4.767058492E-1	-9.129316211E-1	-4.633900523E-1
8.488475770E-1	4.085289240E-1	-9.784454107E-1	-5.171858668E-1
8.515851420E-1	3.419498801E-1	-1.040763378E0	-5.619270205E-1
8.536134500E-1	2.759034932E-1	-1.096689701E0	-6.056028605E-1
8.556151420E-1	2.119876295E-1	-1.144626617E0	-6.412891746E-1
8.576088730E-1	1.496696621E-1	-1.186704636E0	-6.737797856E-1
8.596079880E-1	9.108011425E-2	-1.232510924E0	-6.950850487E-1
8.616020260E-1	3.302319720E-2	-1.282045722E0	-7.163903713E-1
8.636187190E-1	-2.183792181E-2	-1.336906910E0	-7.313040495E-1
8.650420380E-1	-7.190535218E-2	-1.391235352E0	-7.414240837E-1
8.676753730E-1	-1.235706806E-1	-1.449824929E0	-7.451524734E-1
8.697039880E-1	-1.731054783E-1	-1.502022862E0	-7.451524734E-1
8.717058730E-1	-2.221076339E-1	-1.557416677E0	-7.376956344E-1
8.729974610E-1	-2.652508616E-1	-1.608549356E0	-7.291735411E-1
8.757618340E-1	-3.115898669E-1	-1.661812544E0	-7.131945491E-1
8.777901420E-1	-3.542004228E-1	-1.708684206E0	-6.966829300E-1
8.798018730E-1	-3.962783813E-1	-1.751294732E0	-6.737797856E-1
8.811155380E-1	-4.383563101E-1	-1.786981106E0	-6.450176239E-1
8.838573730E-1	-4.814995229E-1	-1.810949564E0	-6.114618182E-1
8.858386540E-1	-5.230448246E-1	-1.817341208E0	-5.763080716E-1
8.878086150E-1	-5.635249019E-1	-1.808819056E0	-5.336974859E-1
8.891874230E-1	-6.008091569E-1	-1.789111614E0	-4.846953154E-1
8.919263840E-1	-6.258428693E-1	-1.753957868E0	-4.298342168E-1
8.939814230E-1	-6.476807594E-1	-1.709749460E0	-3.691141307E-1
8.959881800E-1	-6.620618701E-1	-1.653823018E0	-3.051982522E-1
8.977480770E-1	-6.711165905E-1	-1.588841915E0	-2.396845073E-1
8.999823340E-1	-6.732471585E-1	-1.518001795E0	-1.715075821E-1
9.019150380E-1	-6.743124127E-1	-1.446629167E0	-9.906959534E-2
9.039770650E-1	-6.689860821E-1	-1.377386928E0	-2.290318534E-2
9.052862690E-1	-6.615292430E-1	-1.312405825E0	5.219795927E-2
9.080326030E-1	-6.530070901E-1	-1.248489976E0	1.331580579E-1
9.100607570E-1	-6.407565475E-1	-1.180845618E0	2.167813182E-1
9.120770260E-1	-6.359629035E-1	-1.100950837E0	3.014698327E-1
9.135722690E-1	-6.253102422E-1	-1.018392801E0	3.861583769E-1
9.161330650E-1	-6.210491657E-1	-9.321063757E-1	4.751079381E-1
9.181616030E-1	-6.173207760E-1	-8.474178910E-1	5.619270205E-1
9.201729110E-1	-6.146575809E-1	-7.819041014E-1	6.482134461E-1
9.215459230E-1	-6.130596995E-1	-7.424893379E-1	7.291735411E-1
9.242290260E-1	-6.125270724E-1	-7.179882526E-1	8.090683818E-1
9.261941150E-1	-6.146575809E-1	-6.924219131E-1	8.804410696E-1
9.281444610E-1	-6.183860302E-1	-6.631271243E-1	9.528790712E-1
9.296006540E-1	-6.237123609E-1	-6.295713186E-1	1.020523310E0
9.323140650E-1	-6.263754964E-1	-5.933523178E-1	1.082308650E0
9.343421030E-1	-6.354302764E-1	-5.518069863E-1	1.144626617E0
9.363584490E-1	-6.407565475E-1	-5.081311464E-1	1.199487805E0
9.381659610E-1	-6.498113275E-1	-4.777711034E-1	1.249555230E0
9.403605260E-1	-6.615292430E-1	-4.569984376E-1	1.298024774E0
9.423539490E-1	-6.785734296E-1	-4.554005563E-1	1.337439537E0
9.443551420E-1	-6.929545403E-1	-4.660531878E-1	1.376854300E0
9.457492690E-1	-7.089334726E-1	-4.846953154E-1	1.407214403E0
9.484115260E-1	-7.281082273E-1	-5.118595958E-1	1.437041759E0
9.503705770E-1	-7.600662112E-1	-5.534048676E-1	1.479119658E0
9.524418720E-1	-7.835019827E-1	-5.795038939E-1	1.504685998E0
9.538606540E-1	-8.111988902E-1	-6.013417840E-1	1.536643982E0
9.564975260E-1	-8.394283652E-1	-6.205165386E-1	1.561677694E0
9.584915000E-1	-8.687231541E-1	-6.359629035E-1	1.587776661E0
9.605196030E-1	-8.964200616E-1	-6.508765817E-1	1.613875628E0
9.618411920E-1	-9.262474179E-1	-6.631271243E-1	1.632517815E0
9.645761030E-1	-9.571400881E-1	-6.721818447E-1	1.645833611E0
9.664541150E-1	-9.896306992E-1	-6.796387434E-1	1.657551527E0
9.683972690E-1	-1.021055937E0	-6.886934638E-1	1.667138815E0
9.700215000E-1	-1.052481294E0	-6.993461251E-1	1.674063087E0
9.724733460E-1	-1.081776023E0	-7.094660997E-1	1.679922104E0
9.746872690E-1	-1.108940244E0	-7.233145833E-1	1.686846256E0
9.766930260E-1	-1.135571957E0	-7.323693037E-1	1.696966290E0
9.781433070E-1	-1.162736177E0	-7.392935157E-1	1.707618952E0
9.806869880E-1	-1.188835144E0	-7.435545921E-1	1.720402122E0
9.825700770E-1	-1.209075212E0	-7.494135499E-1	1.739044189E0
9.846987950E-1	-1.227717280E0	-7.531419992E-1	1.757153749E0
9.861235380E-1	-1.246892095E0	-7.478156686E-1	1.777926326E0
9.887560260E-1	-1.263936281E0	-7.334345579E-1	1.797633767E0
9.906828840E-1	-1.277252078E0	-7.206513882E-1	1.819471717E0
9.927870260E-1	-1.291100502E0	-7.078682184E-1	1.834918022E0
9.943540380E-1	-1.304416299E0	-6.913566589E-1	1.854092836E0
9.968432570E-1	-1.318797350E0	-6.695187092E-1	1.871137023E0
9.988721030E-1	-1.327319503E0	-6.434197426E-1	1.890311718E0
1.000883334E0	-1.332113147E0	-6.141249537E-1	1.908421278E0
1.002335269E0	-1.340102673E0	-5.837649107E-1	1.926530719E0
1.004940064E0	-1.343298435E0	-5.571333170E-1	1.943042397E0
1.006968641E0	-1.339570045E0	-5.326322317E-1	1.961684465E0
1.008784961E0	-1.338504791E0	-5.107942820E-1	1.975532889E0
1.010282346E0	-1.336906910E0	-4.916195571E-1	1.989914060E0
1.013044141E0	-1.337972164E0	-4.772384763E-1	2.000566721E0
1.014999884E0	-1.338504791E0	-4.697816372E-1	2.012817144E0
1.017075218E0	-1.333178520E0	-4.676510990E-1	2.022937298E0
1.018531577E0	-1.336906910E0	-4.655205607E-1	2.027198315E0
1.021073680E0	-1.333711147E0	-4.724447727E-1	2.025600433E0
1.023044961E0	-1.339570045E0	-4.846953154E-1	2.020273924E0
1.025069295E0	-1.345961690E0	-5.006743073E-1	2.008556128E0
1.026424423E0	-1.355016351E0	-5.187838078E-1	1.995772958E0
1.029125487E0	-1.368864775E0	-5.390238166E-1	1.970206618E0
1.031046692E0	-1.381647944E0	-5.581985712E-1	1.936650753E0
1.033169680E0	-1.400822759E0	-5.757754445E-1	1.892974973E0
1.034440346E0	-1.422128081E0	-5.896238685E-1	1.841842294E0
1.037226487E0	-1.445031285E0	-5.970807076E-1	1.789111614E0
1.039255218E0	-1.474326015E0	-5.954828262E-1	1.730522156E0
1.041267141E0	-1.505751252E0	-5.922870636E-1	1.669802070E0
1.042798923E0	-1.548894525E0	-5.826996565E-1	1.613875628E0
1.045324295E0	-1.593103051E0	-5.731122494E-1	1.564340830E0
1.047223461E0	-1.645833611E0	-5.667206645E-1	1.516403913E0
1.049354064E0	-1.703357816E0	-5.693838596E-1	1.471662879E0
1.050665846E0	-1.760349512E0	-5.795038939E-1	1.432780743E0
1.053230461E0	-1.862082243E0	-5.949501991E-1	1.384843826E0
1.055370346E0	-1.932922363E0	-6.189186573E-1	1.356614232E0
1.057456487E0	-1.964347601E0	-6.929545403E-1	1.340635300E0
1.058830730E0	-1.969141364E0	-7.707188129E-1	1.318264723E0
1.061458795E0	-1.985652924E0	-8.207862377E-1	1.283643723E0
1.063452526E0	-1.998968720E0	-8.564726114E-1	1.247957349E0
1.065453833E0	-2.022404671E0	-8.719189763E-1	1.206944585E0
1.066861961E0	-2.039448738E0	-8.884305358E-1	1.173921466E0
1.069510141E0	-2.047438383E0	-8.969526887E-1	1.138235092E0
1.071538910E0	-2.052764654E0	-8.937568665E-1	1.108940244E0
1.073540487E0	-2.054362535E0	-8.852347732E-1	1.076449752E0
1.074896307E0	-2.046373129E0	-8.767126203E-1	1.043426514E0
1.077597026E0	-2.031459332E0	-8.719189763E-1	1.011468649E0
1.079625603E0	-2.006958246E0	-8.644620776E-1	9.784454107E-1
1.081651526E0	-1.977130890E0	-8.623315692E-1	9.459548593E-1
1.082971692E0	-1.941444516E0	-8.617989421E-1	9.118663669E-1
1.085707872E0	-1.899366498E0	-8.633968234E-1	8.772453070E-1
1.087638923E0	-1.853027463E0	-8.644620776E-1	8.410263062E-1
1.089620692E0	-1.806155920E0	-8.575378656E-1	8.010788560E-1
1.090984384E0	-1.759284258E0	-8.458199501E-1	7.579356432E-1
1.093794141E0	-1.711879969E0	-8.266451955E-1	7.126619220E-1
1.095808730E0	-1.663943052E0	-8.021441102E-1	6.599313021E-1
1.097825641E0	-1.611212492E0	-7.803062201E-1	6.093312502E-1
1.099264307E0	-1.549959779E0	-7.600662112E-1	5.544701219E-1
1.101819602E0	-1.485511303E0	-7.440872192E-1	4.942827225E-1
1.103785884E0	-1.413605928E0	-7.206513882E-1	4.324973822E-1
1.105829795E0	-1.336374283E0	-6.982808709E-1	3.653857112E-1
1.107361307E0	-1.259675264E0	-6.679208279E-1	2.972087860E-1
1.109886910E0	-1.177117229E0	-6.317018270E-1	2.290318608E-1
1.111792423E0	-1.090298176E0	-5.885586143E-1	1.560612470E-1
1.113919410E0	-1.006674886E0	-5.470132828E-1	8.681905270E-2
1.115298807E0	-9.225190282E-1	-5.028048158E-1	1.438106969E-2
1.117976602E0	-8.426241875E-1	-4.623247683E-1	-5.486112088E-2
1.120003653E0	-7.616640925E-1	-4.277036786E-1	-1.214401498E-1
1.122016679E0	-6.791061163E-1	-3.888215125E-1	-1.880191714E-1
1.123596077E0	-5.965480804E-1	-3.584614992E-1	-2.556634545E-1
1.126074218E0	-5.107942820E-1	-3.259709179E-1	-3.190467060E-1
1.128029192E0	-4.293015897E-1	-2.945456207E-1	-3.781688809E-1
1.129995615E0	-3.499393761E-1	-2.609897852E-1	-4.356931746E-1
1.131481269E0	-2.711097896E-1	-2.221076339E-1	-4.889563918E-1
1.133949038E0	-1.997370869E-1	-1.885518134E-1	-5.363606811E-1
1.136093769E0	-1.320927888E-1	-1.624528319E-1	-5.757754445E-1
1.138208141E0	-6.977482140E-2	-1.459412277E-1	-6.098638773E-1
1.139683692E0	-1.651159860E-2	-1.363538504E-1	-6.391586661E-1
1.142202641E0	3.302319720E-2	-1.352885813E-1	-6.684534550E-1
1.144072961E0	7.776430249E-2	-1.400822699E-1	-6.881608367E-1
1.146198910E0	1.113201380E-1	-1.539307088E-1	-7.099987864E-1
1.147555884E0	1.358212233E-1	-1.731054783E-1	-7.286409140E-1
1.150256218E0	1.539307088E-1	-1.938781291E-1	-7.424893379E-1
1.152248038E0	1.608549356E-1	-2.199771106E-1	-7.558051348E-1
1.154302833E0	1.581917703E-1	-2.487392575E-1	-7.755125165E-1
1.155752384E0	1.486043930E-1	-2.743056118E-1	-7.850999236E-1
1.158360679E0	1.304948926E-1	-2.998719513E-1	-7.952198982E-1
1.160389564E0	9.161274135E-2	-3.291667104E-1	-8.048073053E-1
1.162401602E0	5.592638254E-2	-3.408846259E-1	-8.106662631E-1
1.163810461E0	2.396845073E-2	-3.478088379E-1	-8.175904751E-1
1.166459025E0	-1.384843793E-2	-3.531351686E-1	-8.223841786E-1
1.168326769E0	-5.592638254E-2	-3.494067490E-1	-8.335694075E-1
1.170397846E0	-9.747169912E-2	-3.494067490E-1	-8.442220688E-1
1.171810884E0	-1.400822699E-1	-3.478088379E-1	-8.596684337E-1
1.174548756E0	-1.853560209E-1	-3.483414650E-1	-8.836368918E-1
1.176487307E0	-2.327602804E-1	-3.563309610E-1	-9.113337398E-1
1.178595448E0	-2.817624509E-1	-3.637878001E-1	-9.528790712E-1
1.180062538E0	-3.259709179E-1	-3.824299276E-1	-9.928264618E-1
1.182599179E0	-3.685815036E-1	-3.994741738E-1	-1.047687650E0
1.184570038E0	-4.058657587E-1	-4.218447208E-1	-1.103081346E0
1.186595487E0	-4.415521026E-1	-4.468784332E-1	-1.163801432E0
1.187914692E0	-4.804342687E-1	-4.671184719E-1	-1.225054145E0
1.190653217E0	-5.155879855E-1	-4.772384763E-1	-1.289502621E0
1.192682294E0	-5.448827744E-1	-4.916195571E-1	-1.351287961E0
1.194684525E0	-5.704491138E-1	-5.123922229E-1	-1.416269064E0
1.196037692E0	-5.848301649E-1	-5.363606811E-1	-1.477521777E0
1.198741641E0	-5.981460214E-1	-5.539374948E-1	-1.534513474E0
1.200770794E0	-6.066681147E-1	-5.635249019E-1	-1.597896695E0
1.202765256E0	-6.125270724E-1	-5.667206645E-1	-1.654888391E0
1.204243384E0	-6.183860302E-1	-5.661880374E-1	-1.706553698E0
1.206822871E0	-6.237123609E-1	-5.629922748E-1	-1.755555868E0
1.208785192E0	-6.295713186E-1	-5.528722405E-1	-1.805090666E0
1.210828692E0	-6.348975897E-1	-5.406216979E-1	-1.854625463E0
1.212334615E0	-6.317018270E-1	-5.246427655E-1	-1.905758142E0
1.214734961E0	-6.263754964E-1	-5.145227313E-1	-1.959553957E0
1.216936076E0	-6.087986231E-1	-5.129248500E-1	-2.011751890E0
1.218941910E0	-5.789712071E-1	-5.107942820E-1	-2.074069977E0
1.220377000E0	-5.400890708E-1	-4.996090233E-1	-2.138518333E0
1.222936833E0	-4.980111420E-1	-4.942827225E-1	-2.197640657E0
1.224889038E0	-4.532700181E-1	-4.857605994E-1	-2.261023760E0
1.226948064E0	-4.106594622E-1	-4.751079381E-1	-2.316950083E0
1.228328807E0	-3.621899188E-1	-4.554005563E-1	-2.375539780E0
1.231005410E0	-3.153182864E-1	-4.271710515E-1	-2.439988136E0
1.232982538E0	-2.647182047E-1	-3.978762627E-1	-2.501773596E0
1.235036948E0	-2.215750068E-1	-3.621899188E-1	-2.557167292E0
1.236427423E0	-1.773665249E-1	-3.440804183E-1	-2.611495733E0
1.239094794E0	-1.374191195E-1	-3.270362020E-1	-2.674879074E0
1.241123910E0	-9.747169912E-2	-3.142530024E-1	-2.734533787E0
1.243135640E0	-6.604639441E-2	-2.870887816E-1	-2.799515009E0
1.244374846E0	-3.781688958E-2	-2.487392575E-1	-2.861300230E0
1.247192217E0	-1.970739290E-2	-2.242381722E-1	-2.896986723E0
1.249126615E0	4.261057824E-3	-2.231729031E-1	-2.941727877E0
1.251048961E0	2.716424316E-2	-2.242381722E-1	-2.992860556E0
1.252577153E0	3.941478580E-2	-2.178465873E-1	-3.043460608E0
1.255294756E0	4.846953228E-2	-2.130528986E-1	-3.080744743E0
1.257227961E0	3.142530099E-2	-1.656486243E-1	-3.121224880E0
1.259326833E0	1.757686399E-2	-1.315601617E-1	-3.157976389E0
1.260707807E0	1.384843793E-2	-1.475391239E-1	-3.195793390E0
1.263322140E0	9.054748341E-3	-1.661812514E-1	-3.231479645E0
1.265316525E0	-4.261057824E-3	-1.715075821E-1	-3.276753426E0
1.267318371E0	-1.917476021E-2	-1.747033745E-1	-3.328418732E0
1.268562038E0	-3.888215125E-2	-1.800296903E-1	-3.355582952E0
1.271374948E0	-6.604639441E-2	-1.747033745E-1	-3.378486156E0
1.273403871E0	-1.081243455E-1	-1.858886480E-1	-3.430151463E0
1.275420102E0	-1.235706806E-1	-2.327602804E-1	-3.473294735E0
1.276698807E0	-1.379517466E-1	-2.982740402E-1	-3.510046482E0
1.279476717E0	-1.576591432E-1	-3.243730366E-1	-3.550526381E0
1.281505486E0	-1.885518134E-1	-3.025351167E-1	-3.589408636E0
1.283516025E0	-2.183792144E-1	-2.370213419E-1	-3.617638111E0
1.284755384E0	-2.226402760E-1	-1.896170676E-1	-3.628823280E0
1.287572640E0	-2.210423797E-1	-1.358212233E-1	-3.630421162E0
1.289561923E0	-2.066612989E-1	-4.261057824E-2	-3.622431755E0
1.291570307E0	-1.938781291E-1	7.403588295E-2	-3.606985331E0
1.292866307E0	-1.805623323E-1	1.869539171E-1	-3.598463297E0
1.295585461E0	-1.645833552E-1	2.844256163E-1	-3.591006517E0
1.297618230E0	-1.528654546E-1	3.787015080E-1	-3.597398043E0
1.299705794E0	-1.374191195E-1	4.751079381E-1	-3.612311840E0
1.301090538E0	-1.235706806E-1	5.981460214E-1	-3.607518196E0
1.303709102E0	-1.113201380E-1	7.265103459E-1	-3.593669653E0
1.305703025E0	-9.747169912E-2	8.522115946E-1	-3.572364330E0
1.307704832E0	-8.149272949E-2	9.704559445E-1	-3.546797991E0
1.308977961E0	-6.391586363E-2	1.086037159E0	-3.519101143E0
1.311761332E0	-4.580637068E-2	1.215466738E0	-3.487143278E0
1.313790217E0	-1.757686399E-2	1.347559571E0	-3.456250429E0
1.315792217E0	9.054748341E-3	1.482315540E0	-3.426423073E0
1.317404192E0	3.195793182E-2	1.611745119E0	-3.402987242E0
1.319848679E0	5.699164793E-2	1.727326274E0	-3.388073683E0
1.321877294E0	8.362326026E-2	1.822134852E0	-3.382747173E0
1.323903948E0	1.107875034E-1	1.913214922E0	-3.390736818E0
1.325189230E0	1.352885813E-1	2.004295111E0	-3.398193598E0
1.327960602E0	1.549959779E-1	2.102832079E0	-3.418433666E0
1.329905461E0	1.773665249E-1	2.189651012E0	-3.445597887E0
1.331822538E0	1.965412945E-1	2.277002811E0	-3.475957870E0
1.333275538E0	2.162486911E-1	2.346245050E0	-3.512709618E0
1.336048140E0	2.306297570E-1	2.417617798E0	-3.544667482E0
1.337958730E0	2.492718846E-1	2.470348358E0	-3.572364330E0
1.340079486E0	2.647182047E-1	2.477805138E0	-3.594734907E0
1.341625769E0	2.945456207E-1	2.415487051E0	-3.622964382E0
1.344073332E0	3.430151641E-1	2.302569151E0	-3.651726484E0
1.346030192E0	4.032025933E-1	2.173672199E0	-3.688478231E0
1.348084102E0	4.687163532E-1	2.033057213E0	-3.719903469E0
1.349410307E0	5.326322317E-1	1.887648582E0	-3.748132944E0
1.352140794E0	5.864281058E-1	1.739576817E0	-3.775297165E0
1.354029153E0	6.423544884E-1	1.589374542E0	-3.796602488E0
1.356171678E0	6.950850487E-1	1.442900658E0	-3.804059267E0
1.357633846E0	7.520766854E-1	1.301220536E0	-3.807787895E0
1.360227794E0	8.106662631E-1	1.131843448E0	-3.808853149E0
1.362256140E0	8.665926456E-1	9.475527406E-1	-3.804059267E0
1.364267448E0	9.171926975E-1	7.451524734E-1	-3.798200369E0
1.365648576E0	9.677927494E-1	5.395564437E-1	-3.792341471E0
1.368323371E0	1.021055937E0	3.318298757E-1	-3.781688929E0
1.370242076E0	1.074851871E0	1.219727769E-1	-3.770503521E0
1.372221307E0	1.124386668E0	-9.267801046E-2	-3.759850979E0
1.373696307E0	1.169127703E0	-2.956108749E-1	-3.747600317E0
1.376249538E0	1.245294094E0	-5.523396134E-1	-3.738013029E0
1.378359692E0	1.300155282E0	-7.078682184E-1	-3.738545656E0
1.380455948E0	1.357146859E0	-8.617989421E-1	-3.735349894E0
1.381910230E0	1.401888013E0	-1.029578090E0	-3.742274046E0
1.384448601E0	1.441302776E0	-1.210673094E0	-3.750263453E0
1.386329192E0	1.475923896E0	-1.399757504E0	-3.764111996E0
1.388444640E0	1.512675524E0	-1.591505051E0	-3.785417318E0
1.390127769E0	1.546231389E0	-1.789644241E0	-3.813646793E0
1.392500909E0	1.568601966E0	-1.989381313E0	-3.848267794E0
1.394529717E0	1.587776661E0	-2.180063725E0	-3.899400473E0
1.396558217E0	1.605886221E0	-2.355832338E0	-3.955327034E0
1.397992922E0	1.627724051E0	-2.514024019E0	-4.023503780E0
1.400605832E0	1.644235730E0	-2.652508497E0	-4.099670410E0
1.402634563E0	1.662345171E0	-2.786731720E0	-4.179564953E0
1.404645255E0	1.670867324E0	-2.914563656E0	-4.264253616E0
1.406042692E0	1.679389358E0	-3.029612064E0	-4.346279144E0
1.408702140E0	1.685248375E0	-3.152650118E0	-4.429369450E0
1.410682076E0	1.685781002E0	-3.282079697E0	-4.509797096E0
1.412648461E0	1.678324103E0	-3.405117750E0	-4.587561607E0
1.414029807E0	1.666073561E0	-3.514840126E0	-4.665325642E0
1.416784038E0	1.645833611E0	-3.597930670E0	-4.745220661E0
1.418697999E0	1.602690339E0	-3.662911892E0	-4.823517323E0
1.420834024E0	1.527589202E0	-3.704457045E0	-4.894890308E0
1.422216038E0	1.422128081E0	-3.710316181E0	-4.969458580E0
1.424838024E0	1.276719451E0	-3.647998095E0	-5.031243801E0
1.426701115E0	1.073786616E0	-3.455185175E0	-5.079180717E0
1.428834601E0	7.930893898E-1	-3.082342625E0	-5.078648090E0
1.430262422E0	4.330300093E-1	-2.541188478E0	-5.030711174E0
1.432891293E0	2.396845073E-2	-1.970739245E0	-4.928445816E0
1.434821038E0	-4.735100567E-1	-1.285774231E0	-4.631237030E0
1.436923217E0	-1.008272767E0	-5.677859783E-1	-4.203533649E0
1.438402038E0	-1.474858642E0	1.012001187E-2	-3.832821608E0
1.440980678E0	-1.792307496E0	2.790992856E-1	-3.576625347E0
1.443010140E0	-1.984055042E0	3.579288721E-1	-3.447195768E0
1.445004293E0	-2.120409012E0	3.440804183E-1	-3.376888275E0
1.446649461E0	-2.175270081E0	2.849582434E-1	-3.312972546E0
1.449061255E0	-2.149703741E0	1.683117896E-1	-3.260241985E0
1.450983422E0	-2.071406841E0	1.917476021E-2	-3.280481815E0
1.452990807E0	-1.969141364E0	-9.534116834E-2	-3.314037800E0
1.454419153E0	-1.879126549E0	-1.704423130E-1	-3.341734648E0
1.456997499E0	-1.794970632E0	-2.157160491E-1	-3.356648207E0
1.459157192E0	-1.716673613E0	-2.295644879E-1	-3.364105225E0
1.461179601E0	-1.635713577E0	-2.253034264E-1	-3.354517698E0
1.462556499E0	-1.557416677E0	-2.253034264E-1	-3.324690342E0
1.465172293E0	-1.466336489E0	-2.237055302E-1	-3.283677578E0
1.467166293E0	-1.355016351E0	-2.364887148E-1	-3.235740900E0
1.469182986E0	-1.250087857E0	-2.498045117E-1	-3.186738729E0
1.470487384E0	-1.143028736E0	-2.732403278E-1	-3.130279541E0
1.473239832E0	-1.030643344E0	-3.030677438E-1	-3.065831184E0
1.475268447E0	-9.070726633E-1	-3.446130455E-1	-2.991262674E0
1.477270332E0	-7.824367285E-1	-4.000068009E-1	-2.912965536E0
1.478696692E0	-6.439523697E-1	-4.676510990E-1	-2.834668636E0
1.481327601E0	-4.964132309E-1	-5.384911895E-1	-2.752643347E0
1.483307576E0	-2.641855776E-1	-6.407565475E-1	-2.623213768E0
1.485368024E0	-9.747169912E-2	-7.062703371E-1	-2.533731461E0
1.486672307E0	-1.384843793E-2	-7.387608886E-1	-2.488990307E0
1.489424947E0	2.434129268E-1	-8.277105093E-1	-2.348908186E0
1.491453909E0	4.223773479E-1	-8.857674003E-1	-2.250903845E0
1.493388653E0	6.061354876E-1	-9.390306473E-1	-2.147040606E0
1.494692730E0	7.941546440E-1	-9.917612076E-1	-2.030394077E0
1.497404345E0	9.779127836E-1	-1.039698124E0	-1.896170735E0
1.499556524E0	1.153148770E0	-1.071123362E0	-1.728391528E0
1.501559562E0	1.320927978E0	-1.089232922E0	-1.533448219E0
1.503205922E0	1.473793387E0	-1.092961311E0	-1.319862604E0
1.505552524E0	1.618669391E0	-1.083373904E0	-1.092428684E0
1.507546909E0	1.749164224E0	-1.041296005E0	-8.548747301E-1
1.509548486E0	1.878061295E0	-9.811085463E-1	-6.018744111E-1
1.511037038E0	1.997903466E0	-9.150621891E-1	-3.382214606E-1
1.513605562E0	2.110821486E0	-8.431568146E-1	-5.060006306E-2
1.515633947E0	2.220011234E0	-7.440872192E-1	2.583266199E-1
1.517650524E0	2.277535439E0	-5.885586143E-1	5.741775632E-1
1.518919769E0	2.336124897E0	-4.175836742E-1	8.980179429E-1
1.521707062E0	2.389920712E0	-2.327602804E-1	1.244761467E0
1.523686999E0	2.422411442E0	-5.219795927E-2	1.597364068E0
1.525747409E0	2.437857628E0	1.379517466E-1	1.942509770E0
1.527020345E0	2.450108290E0	3.430151641E-1	2.283926964E0
1.529805255E0	2.457032442E0	5.880259871E-1	2.573678970E0
1.531716038E0	2.454901934E0	8.404936790E-1	2.865028858E0
1.533628345E0	2.439988136E0	1.087102413E0	3.157976389E0
1.535180345E0	2.397910357E0	1.305481553E0	3.439206362E0
1.537772769E0	2.333461761E0	1.495098710E0	3.702859163E0
1.539772576E0	2.234924793E0	1.636778831E0	3.943608999E0
1.541940639E0	2.118278265E0	1.762480021E0	4.148139954E0
1.543501999E0	1.976598144E0	1.847701192E0	4.313788414E0
1.545952639E0	1.816275954E0	1.899899125E0	4.442685604E0
1.547820576E0	1.650094628E0	1.933454990E0	4.508731842E0
1.549949255E0	1.478054404E0	1.949433923E0	4.524178028E0
1.551230615E0	1.303883672E0	1.944107652E0	4.477838993E0
1.554006139E0	1.130245566E0	1.910551786E0	4.368649483E0
1.555926115E0	9.475527406E-1	1.841309667E0	4.192881107E0
1.558037139E0	7.600662112E-1	1.734250546E0	3.955859661E0
1.559296230E0	5.741775632E-1	1.595233560E0	3.666640282E0
1.562093985E0	3.936152160E-1	1.429052234E0	3.329483986E0
1.564067499E0	2.210423797E-1	1.236239433E0	2.948652029E0
1.566148601E0	5.752427876E-2	1.024784446E0	2.541188478E0
1.567374115E0	-9.960222989E-2	8.074704409E-1	2.098038435E0
1.570205755E0	-2.407497615E-1	5.885586143E-1	1.657551527E0
1.572070422E0	-3.707120419E-1	3.717772961E-1	1.270327806E0
1.574237216E0	-4.820321798E-1	1.576591432E-1	9.443569183E-1
1.575666192E0	-5.699164867E-1	-4.687163606E-2	6.908239722E-1
1.578287922E0	-6.450176239E-1	-2.375539690E-1	4.996090233E-1
1.580231961E0	-6.998787522E-1	-4.159857631E-1	3.611246645E-1
1.582325908E0	-7.424893379E-1	-5.784385800E-1	2.689792812E-1
1.583711692E0	-7.792409658E-1	-7.339671850E-1	2.018676102E-1
1.586320293E0	-8.080030680E-1	-8.692557812E-1	9.267801046E-2
1.588311230E0	-8.330367804E-1	-9.917612076E-1	5.326322280E-3
1.590332331E0	-8.516789079E-1	-1.097755075E0	-7.030745596E-2
1.591644115E0	-8.671252728E-1	-1.188835144E0	-1.374191195E-1
1.594389485E0	-8.847021461E-1	-1.310807943E0	-2.396845073E-1
1.596271230E0	-8.985505700E-1	-1.383245945E0	-3.041329980E-1
1.598420831E0	-9.246495366E-1	-1.461010218E0	-3.776362538E-1
1.599671576E0	-9.560748339E-1	-1.542502880E0	-4.607268870E-1
1.602478062E0	-9.811085463E-1	-1.596298814E0	-5.363606811E-1
1.604498230E0	-9.949570298E-1	-1.620799899E0	-6.024070382E-1
1.606518447E0	-9.976201653E-1	-1.629854560E0	-6.535397172E-1
1.607768845E0	-1.004011750E0	-1.628789306E0	-6.998787522E-1
1.610575447E0	-1.006142259E0	-1.619202018E0	-7.371630073E-1
1.612541192E0	-1.007740140E0	-1.589907169E0	-7.605988383E-1
1.614523961E0	-1.003479123E0	-1.553688169E0	-7.808388472E-1
1.615894307E0	-1.009870648E0	-1.515871286E0	-7.984157205E-1
1.618424538E0	-1.014131784E0	-1.475391269E0	-8.080030680E-1
1.620567345E0	-1.013066530E0	-1.420530200E0	-8.106662631E-1
1.622709985E0	-1.004011750E0	-1.345961690E0	-8.010788560E-1
1.624187192E0	-9.970875382E-1	-1.265001535E0	-7.808388472E-1
1.626705100E0	-9.880327582E-1	-1.188302517E0	-7.526093125E-1
1.628674730E0	-9.773801565E-1	-1.098820329E0	-7.131945491E-1
1.630701293E0	-9.624664187E-1	-1.007740140E0	-6.620618701E-1
1.632384076E0	-9.459548593E-1	-9.102684855E-1	-6.087986231E-1
1.634758716E0	-9.273127317E-1	-8.106662631E-1	-5.427522659E-1
1.636659538E0	-9.049421549E-1	-7.089334726E-1	-4.692489803E-1
1.638804139E0	-8.799084425E-1	-6.034722924E-1	-3.872236311E-1
1.640083192E0	-8.580704927E-1	-4.964132309E-1	-3.062635362E-1
1.642861216E0	-8.287757635E-1	-3.850930929E-1	-2.205097377E-1
1.644845499E0	-7.973504663E-1	-2.689792812E-1	-1.331580579E-1
1.646902062E0	-7.643272281E-1	-1.523328125E-1	-5.166532472E-2
1.648177307E0	-7.302387953E-1	-3.302319720E-2	2.982740477E-2
1.650958908E0	-6.966829300E-1	8.255799860E-2	1.001348570E-1
1.652860961E0	-6.636597514E-1	1.880191714E-1	1.608549356E-1
1.654736538E0	-6.359629035E-1	2.876214087E-1	2.087918371E-1
1.656202807E0	-6.056028605E-1	3.749730885E-1	2.466087192E-1
1.658841076E0	-5.800365210E-1	4.495415986E-1	2.700445354E-1
1.660938384E0	-5.528722405E-1	5.129248500E-1	2.775014043E-1
1.663091139E0	-5.294364095E-1	5.629922748E-1	2.790992856E-1
1.664430076E0	-5.044026971E-1	6.029396653E-1	2.748382390E-1
1.667094446E0	-4.777711034E-1	6.290386319E-1	2.625876963E-1
1.668902115E0	-4.569984376E-1	6.455502510E-1	2.519350350E-1
1.671089677E0	-4.324973822E-1	6.460828781E-1	2.386192381E-1
1.672377461E0	-4.058657587E-1	6.407565475E-1	2.237055302E-1
1.675146869E0	-3.781688809E-1	6.215817928E-1	2.077265680E-1
1.676993538E0	-3.494067490E-1	5.933523178E-1	1.938781291E-1
1.679177100E0	-3.227751255E-1	5.539374948E-1	1.837581247E-1
1.680375845E0	-2.945456207E-1	5.022721887E-1	1.709749401E-1
1.683233869E0	-2.689792812E-1	4.415521026E-1	1.597896665E-1
1.685262523E0	-2.391518652E-1	3.797667921E-1	1.523328125E-1
1.687256485E0	-2.130528986E-1	3.126551211E-1	1.486043930E-1
1.688515692E0	-1.805623323E-1	2.466087192E-1	1.491370201E-1
1.691313100E0	-1.512675583E-1	1.784317940E-1	1.544633508E-1
1.693136576E0	-1.214401498E-1	1.081243455E-1	1.587243974E-1
1.695140153E0	-9.693906456E-2	3.888215125E-2	1.640507281E-1
1.696553653E0	-6.657902896E-2	-2.769687586E-2	1.784317940E-1
1.699121922E0	-2.663161233E-2	-1.251685768E-1	1.922802329E-1
1.701250730E0	-5.326322280E-4	-1.864212751E-1	2.029328793E-1
1.703431292E0	2.396845073E-2	-2.418150306E-1	2.135855258E-1
1.704842768E0	4.580637068E-2	-2.934803665E-1	2.242381722E-1
1.707426139E0	6.657902896E-2	-3.398193717E-1	2.354234457E-1
1.709263653E0	8.309062570E-2	-3.834952116E-1	2.418150306E-1
1.711435946E0	9.800432622E-2	-4.218447208E-1	2.524676621E-1
1.712758807E0	1.113201380E-1	-4.527373910E-1	2.567287385E-1
1.715492062E0	1.182443574E-1	-4.814995229E-1	2.604571581E-1
1.717381422E0	1.235706806E-1	-5.075985193E-1	2.652508616E-1
1.719521985E0	1.304948926E-1	-5.209143162E-1	2.705771625E-1
1.720836422E0	1.390170157E-1	-5.246427655E-1	2.780340314E-1
1.723578754E0	1.454086006E-1	-5.219795704E-1	2.881540358E-1
1.725607292E0	1.528654546E-1	-5.075985193E-1	2.982740402E-1
1.727618215E0	1.539307088E-1	-4.932174385E-1	3.126551211E-1
1.728981730E0	1.523328125E-1	-4.740426838E-1	3.169161677E-1
1.731675023E0	1.475391239E-1	-4.511395097E-1	3.296993375E-1
1.733609691E0	1.416801661E-1	-4.314320982E-1	3.414172530E-1
1.735556307E0	1.326254308E-1	-4.048005044E-1	3.467435837E-1
1.737188999E0	1.219727769E-1	-3.792341352E-1	3.526025414E-1
1.739667615E0	1.049285457E-1	-3.536677957E-1	3.515372574E-1
1.741689345E0	8.628641814E-2	-3.265035450E-1	3.494067490E-1
1.743807985E0	6.764429063E-2	-2.950782478E-1	3.510046303E-1
1.745260961E0	4.633900523E-2	-2.663161159E-1	3.520699143E-1
1.747802138E0	2.183792181E-2	-2.391518652E-1	3.499393761E-1
1.749709422E0	1.597896684E-3	-2.093244642E-1	3.478088379E-1
1.751798638E0	-1.810949668E-2	-1.810949594E-1	3.435477912E-1
1.753069115E0	-4.101268202E-2	-1.533980817E-1	3.408846259E-1
1.755855292E0	-6.498113275E-2	-1.262338310E-1	3.398193717E-1
1.757763845E0	-8.681905270E-2	-9.693906456E-2	3.334277868E-1
1.759900677E0	-1.075917110E-1	-6.924218684E-2	3.270362020E-1
1.761142576E0	-1.304948926E-1	-4.633900523E-2	3.211772442E-1
1.763957446E0	-1.464738697E-1	-2.183792181E-2	3.201119602E-1
1.765939230E0	-1.651159972E-1	2.663161140E-3	3.169161677E-1
1.767997331E0	-1.794970632E-1	2.396845073E-2	3.137203753E-1
1.769254653E0	-1.938781291E-1	4.261057824E-2	3.153182864E-1
1.772054523E0	-2.039981484E-1	6.178534031E-2	3.142530024E-1
1.773897038E0	-2.141181529E-1	7.936219871E-2	3.158509135E-1
1.775853115E0	-2.162486911E-1	9.640643001E-2	3.137203753E-1
1.777315345E0	-2.205097377E-1	1.134506613E-1	3.115898669E-1
1.779912499E0	-2.178465873E-1	1.278317273E-1	3.036003709E-1
1.782029307E0	-2.167813182E-1	1.384843737E-1	2.956108749E-1
1.784185177E0	-2.082591951E-1	1.464738697E-1	2.881540358E-1
1.785915768E0	-2.002697140E-1	1.608549356E-1	2.806971967E-1
1.788188331E0	-1.906823367E-1	1.688444167E-1	2.743056118E-1
1.790182292E0	-1.805623323E-1	1.715075821E-1	2.695119083E-1
1.792184177E0	-1.677791476E-1	1.651159972E-1	2.641855776E-1
1.793416230E0	-1.549959779E-1	1.576591432E-1	2.567287385E-1
1.796240715E0	-1.390170157E-1	1.464738697E-1	2.577939928E-1
1.798269677E0	-1.182443574E-1	1.320927888E-1	2.588592768E-1
1.800271523E0	-9.747169912E-2	1.187769845E-1	2.599245310E-1
1.801523499E0	-7.882957160E-2	1.070590764E-1	2.577939928E-1
1.804328331E0	-5.965480953E-2	9.267801046E-2	2.508697808E-1
1.806296422E0	-2.822950855E-2	6.817692518E-2	2.402171344E-1
1.808375653E0	-1.012001187E-2	5.060006306E-2	2.311623842E-1
1.809610922E0	3.195793368E-3	2.503371425E-2	2.247707993E-1
1.812438792E0	6.924218964E-3	-1.331580617E-2	2.114549875E-1
1.814250230E0	3.728425596E-3	-6.125270575E-2	1.912149638E-1
1.816216653E0	-3.195793368E-3	-1.139832959E-1	1.667138934E-1
1.817691999E0	-9.054748341E-3	-1.613875628E-1	1.523328125E-1
1.820357114E0	-7.456851192E-3	-1.992044598E-1	1.438107044E-1
1.822382961E0	-3.195793368E-3	-2.151834220E-1	1.400822699E-1
1.824555907E0	1.118527725E-2	-2.189118415E-1	1.432780623E-1
1.825963038E0	2.822950855E-2	-2.093244642E-1	1.480717659E-1
1.828550484E0	4.633900523E-2	-1.976065636E-1	1.496696621E-1
1.830544946E0	6.178534031E-2	-1.858886480E-1	1.544633508E-1
1.832562023E0	7.243798673E-2	-1.752360016E-1	1.555286050E-1
1.833854114E0	7.989483327E-2	-1.736381054E-1	1.539307088E-1
1.836619715E0	8.096009493E-2	-1.741707325E-1	1.533980817E-1
1.838554345E0	7.669904083E-2	-1.858886480E-1	1.454086006E-1
1.840651484E0	6.498113275E-2	-2.055960447E-1	1.406149119E-1
1.841900114E0	4.580637068E-2	-2.332929224E-1	1.294296384E-1
1.844708369E0	2.290318534E-2	-2.652508616E-1	1.193096191E-1
1.846708922E0	-1.065264456E-3	-2.993393242E-1	1.123853996E-1
1.848748061E0	-2.876213938E-2	-3.307646215E-1	1.049285457E-1
1.850012961E0	-5.273059011E-2	-3.632551730E-1	1.006674916E-1
1.852805023E0	-8.096009493E-2	-3.909520507E-1	9.587380290E-2
1.854765961E0	-1.081243455E-1	-4.143878818E-1	9.214537591E-2
1.856687191E0	-1.331580579E-1	-4.346278906E-1	9.054747969E-2
1.858101807E0	-1.592570394E-1	-4.490089715E-1	9.214537591E-2
1.860704114E0	-1.810949594E-1	-4.591289759E-1	9.267801046E-2
1.862935830E0	-2.055960447E-1	-4.644553065E-1	9.161274135E-2
1.864937215E0	-2.231729031E-1	-4.649879336E-1	8.415589482E-2
1.866311538E0	-2.386192381E-1	-4.575310946E-1	8.468852192E-2
1.868931100E0	-2.530003190E-1	-4.527373910E-1	7.829693705E-2
1.870925061E0	-2.647182047E-1	-4.426173866E-1	7.190535218E-2
1.872927100E0	-2.790992856E-1	-4.314320982E-1	6.657902896E-2
1.874204922E0	-2.902845740E-1	-4.186489284E-1	6.125270575E-2
1.876984176E0	-2.998719513E-1	-4.032025933E-1	5.486112088E-2
1.878887807E0	-3.073287904E-1	-3.893541694E-1	5.379585549E-2
1.881029715E0	-3.185140789E-1	-3.755057156E-1	5.166532472E-2
1.882308345E0	-3.281014562E-1	-3.616572917E-1	4.846953228E-2
1.885086484E0	-3.350256681E-1	-3.568635881E-1	5.060006306E-2
1.887078807E0	-3.424825370E-1	-3.483414650E-1	5.539375171E-2
1.889127523E0	-3.504720032E-1	-3.440804183E-1	6.125270575E-2
1.890347191E0	-3.584614992E-1	-3.424825370E-1	6.870955974E-2
1.893184753E0	-3.616572917E-1	-3.435477912E-1	7.616640627E-2
1.895213830E0	-3.669835925E-1	-3.483414650E-1	7.776430249E-2
1.897008999E0	-3.744404614E-1	-3.542004228E-1	7.882957160E-2
1.898516999E0	-3.781688809E-1	-3.621899188E-1	7.669904083E-2
1.901122191E0	-3.845604658E-1	-3.771036267E-1	6.924218684E-2
1.903216191E0	-3.920173049E-1	-3.973436356E-1	6.711166352E-2
1.905318984E0	-3.984089196E-1	-4.191815555E-1	6.498113275E-2
1.906726191E0	-4.042678475E-1	-4.415521026E-1	6.817692518E-2
1.909321946E0	-4.133225977E-1	-4.676510990E-1	6.924218684E-2
1.911315907E0	-4.207794666E-1	-4.964132309E-1	6.977482140E-2
1.913317753E0	-4.282363057E-1	-5.230448246E-1	8.309062570E-2
1.914610268E0	-4.335626364E-1	-5.454154015E-1	9.054747969E-2
1.917374253E0	-4.362258017E-1	-5.645901561E-1	1.113201380E-1
1.919402945E0	-4.308994710E-1	-5.629922748E-1	1.230380461E-1
1.921405176E0	-4.213120937E-1	-5.507417321E-1	1.427454352E-1
1.922747576E0	-4.111920893E-1	-5.342301130E-1	1.725728363E-1
1.925461830E0	-3.936152160E-1	-5.129248500E-1	1.922802329E-1
1.927490676E0	-3.813646734E-1	-4.878911078E-1	2.077265680E-1
1.929485176E0	-3.595267534E-1	-4.538026452E-1	2.178465873E-1
1.930724384E0	-3.376888335E-1	-4.149205089E-1	2.215750068E-1
1.933542407E0	-3.201119602E-1	-3.802994192E-1	2.162486911E-1
1.935446114E0	-3.057309091E-1	-3.440804183E-1	2.050634027E-1
1.937361114E0	-2.913498282E-1	-3.137203753E-1	1.965412945E-1
1.938813114E0	-2.796319127E-1	-2.822950780E-1	1.837581247E-1
1.941403384E0	-2.609897852E-1	-2.439455539E-1	1.715075821E-1
1.943586537E0	-2.444781959E-1	-2.055960447E-1	1.635181010E-1
1.945663176E0	-2.290318608E-1	-1.667138934E-1	1.549959779E-1
1.947155807E0	-2.162486911E-1	-1.320927888E-1	1.459412277E-1
1.949657715E0	-2.018676102E-1	-1.033306494E-1	1.406149119E-1
1.951589422E0	-1.826928556E-1	-6.817692518E-2	1.395496428E-1
1.953668792E0	-1.560612470E-1	-2.556634694E-2	1.470064968E-1
1.954912922E0	-1.320927888E-1	1.917476021E-2	1.651159972E-1
1.957726407E0	-1.059938148E-1	5.060006306E-2	1.917476058E-1
1.959618845E0	-8.841694891E-2	7.190535218E-2	2.157160491E-1
1.961758061E0	-7.190535218E-2	8.149272949E-2	2.545982003E-1
1.963045345E0	-5.805691332E-2	9.001484513E-2	3.004045784E-1
1.965815368E0	-3.515372798E-2	9.747169912E-2	3.510046303E-1
1.967813345E0	-1.225054078E-2	1.113201380E-1	4.090615511E-1
1.969856984E0	9.054748341E-3	1.304948926E-1	4.692489803E-1
1.971071768E0	2.982740477E-2	1.502022892E-1	5.336974859E-1
1.973914022E0	5.326322466E-2	1.725728363E-1	5.864281058E-1
1.975800191E0	7.084008306E-2	1.901497096E-1	6.332997084E-1
1.977776691E0	7.723167539E-2	1.944107562E-1	6.695187092E-1
1.979193307E0	8.149272949E-2	1.874865443E-1	6.945524216E-1
1.981845768E0	7.563377917E-2	1.629854590E-1	7.126619220E-1
1.983915037E0	6.018744037E-2	1.262338310E-1	7.179882526E-1
1.986047214E0	3.568635881E-2	7.084008306E-2	7.174556255E-1
1.987780191E0	3.195793368E-3	4.793690052E-3	7.068029642E-1
1.990042407E0	-3.249056637E-2	-7.456851006E-2	6.961503029E-1
1.991943230E0	-7.829693705E-2	-1.635181010E-1	6.796387434E-1
1.994039061E0	-1.262338310E-1	-2.604571581E-1	6.668555737E-1
1.995461537E0	-1.763012707E-1	-3.611246645E-1	6.546050310E-1
1.998096714E0	-2.263686955E-1	-4.633900523E-1	6.476807594E-1
1.999979614E0	-2.721750736E-1	-5.603290796E-1	6.380934119E-1
2.002143561E0	-3.110572100E-1	-6.471481323E-1	6.380934119E-1
2.003477345E0	-3.467435837E-1	-7.233145833E-1	6.306365728E-1
2.006201022E0	-3.733751774E-1	-7.866978049E-1	6.247776151E-1
2.008163961E0	-3.946804702E-1	-8.367652297E-1	6.157228351E-1
2.010241984E0	-4.101268053E-1	-8.772453070E-1	6.082659960E-1
2.011602922E0	-4.191815555E-1	-8.974853158E-1	5.944175720E-1
2.014298907E0	-4.245078862E-1	-9.097358584E-1	5.784385800E-1
2.016226076E0	-4.303668439E-1	-9.102684855E-1	5.550028086E-1
2.018142460E0	-4.293015897E-1	-8.958874345E-1	5.342301130E-1
2.019597845E0	-4.266384244E-1	-8.719189763E-1	5.150553584E-1
2.022078845E0	-4.277036786E-1	-8.522115946E-1	4.910869002E-1
2.024362422E0	-4.271710515E-1	-8.261125684E-1	4.633900523E-1
2.026433368E0	-4.202468395E-1	-7.898935676E-1	4.314320982E-1
2.027991537E0	-4.074636400E-1	-7.403587699E-1	3.957457542E-1
2.030436984E0	-3.920173049E-1	-6.737797856E-1	3.680488765E-1
2.032367114E0	-3.739078343E-1	-6.013417840E-1	3.424825370E-1
2.034433060E0	-3.536677957E-1	-5.267732739E-1	3.185140789E-1
2.035697807E0	-3.312972486E-1	-4.484763443E-1	2.977414131E-1
2.038489676E0	-3.115898669E-1	-3.691141307E-1	2.812298238E-1
2.040415037E0	-2.924150825E-1	-2.833603323E-1	2.631203234E-1
2.042521022E0	-2.759034932E-1	-1.976065636E-1	2.455434501E-1
2.043869768E0	-2.572613657E-1	-1.102548689E-1	2.247707993E-1
2.046578791E0	-2.428802997E-1	-2.503371425E-2	2.034655064E-1
2.048608099E0	-2.300971150E-1	5.539375171E-2	1.768338978E-1
2.050634560E0	-2.221076339E-1	1.326254308E-1	1.448759735E-1
2.052129268E0	-2.141181529E-1	2.050634027E-1	1.123853996E-1
2.054691791E0	-2.071939409E-1	2.759034932E-1	7.030745596E-2
2.056678653E0	-2.013349831E-1	3.403519988E-1	2.343581803E-2
2.058641037E0	-1.944107562E-1	4.053331316E-1	-2.343581803E-2
2.060043960E0	-1.826928556E-1	4.623247683E-1	-7.616640627E-2
2.062780291E0	-1.720402092E-1	5.214469433E-1	-1.241033077E-1
2.064809060E0	-1.603222936E-1	5.704491138E-1	-1.731054783E-1
2.066811406E0	-1.443433315E-1	6.210491657E-1	-2.231729031E-1
2.068378537E0	-1.251685768E-1	6.620618701E-1	-2.705771625E-1
2.070806214E0	-1.086569726E-1	6.961503029E-1	-3.131877482E-1
2.072707845E0	-9.321063757E-2	7.174556255E-1	-3.536677957E-1
2.074818137E0	-7.297061384E-2	7.329019308E-1	-3.850930929E-1
2.076599422E0	-5.432848632E-2	7.467503548E-1	-4.133225977E-1
2.078875983E0	-3.302319720E-2	7.531419992E-1	-4.404868484E-1
2.080796960E0	-1.065264456E-2	7.574030161E-1	-4.564658105E-1
2.082906829E0	8.522115648E-3	7.542072535E-1	-4.692489803E-1
2.084208537E0	3.195793182E-2	7.494135499E-1	-4.745753109E-1
2.086964753E0	5.219795927E-2	7.344998717E-1	-4.761732221E-1
2.088994022E0	7.456851006E-2	7.302387953E-1	-4.799016416E-1
2.091005906E0	1.059938148E-1	7.430219650E-1	-4.942827225E-1
2.092424153E0	1.352885813E-1	7.520766854E-1	-5.086637735E-1
2.095063983E0	1.688444167E-1	7.632619739E-1	-4.921521842E-1
2.097014037E0	2.290318608E-1	8.058725595E-1	-3.989415467E-1
2.098983268E0	2.700445354E-1	8.293083906E-1	-3.723099232E-1
2.100396537E0	3.126551211E-1	8.612663150E-1	-3.206445873E-1
2.102926576E0	3.733751774E-1	8.980179429E-1	-3.281014562E-1
2.105070653E0	3.781688809E-1	8.910937309E-1	-3.222424984E-1
2.107199714E0	4.170510471E-1	8.996158242E-1	-3.291667104E-1
2.108695422E0	4.298342168E-1	8.852347732E-1	-3.504720032E-1
2.111193829E0	4.308994710E-1	8.623315692E-1	-3.424825370E-1
2.113055153E0	4.383563101E-1	8.287757635E-1	-3.696467578E-1
2.115189368E0	4.149205089E-1	7.749798894E-1	-3.515372574E-1
2.116527460E0	4.079962969E-1	7.115966678E-1	-3.515372574E-1
2.119246983E0	3.488741219E-1	6.040049195E-1	-3.153182864E-1
2.121172807E0	2.977414131E-1	4.868258536E-1	-2.817624509E-1
2.123292829E0	2.167813182E-1	3.222424984E-1	-2.194444835E-1
2.124717460E0	1.912149638E-1	2.684466541E-1	-2.055960447E-1
2.127350522E0	1.198422536E-1	1.235706806E-1	-1.667138934E-1
2.129379560E0	7.616640627E-2	4.101268202E-2	-1.544633508E-1
2.131390637E0	3.675162420E-2	-3.728425503E-2	-1.635181010E-1
2.132794114E0	-4.793690052E-3	-1.091896072E-1	-1.768338978E-1
2.135447560E0	-4.900216311E-2	-1.747033745E-1	-2.055960447E-1
2.137409230E0	-8.948221803E-2	-2.327602804E-1	-2.327602804E-1
2.139478214E0	-1.288969964E-1	-2.828277051E-1	-2.657834888E-1
2.140769153E0	-1.635181010E-1	-3.201119602E-1	-3.062635362E-1
2.143535445E0	-1.917476058E-1	-3.526025414E-1	-3.360909224E-1
2.145471230E0	-2.226402760E-1	-3.733751774E-1	-3.648530841E-1
2.147582406E0	-2.455434501E-1	-3.957457542E-1	-3.888215125E-1
2.149105383E0	-2.753708661E-1	-4.127899706E-1	-3.989415467E-1
2.151587445E0	-2.966761589E-1	-4.266384244E-1	-4.074636400E-1
2.153581483E0	-3.206445873E-1	-4.383563101E-1	-4.090615511E-1
2.155583137E0	-3.408846259E-1	-4.458131790E-1	-4.026699662E-1
2.156945153E0	-3.605920076E-1	-4.522047639E-1	-3.898867965E-1
2.159640175E0	-3.781688809E-1	-4.569984376E-1	-3.632551730E-1
2.161668906E0	-3.909520507E-1	-4.564658105E-1	-3.281014562E-1
2.163671368E0	-4.000068009E-1	-4.527373910E-1	-2.780340314E-1
2.165015999E0	-4.053331316E-1	-4.484763443E-1	-2.279665917E-1
2.167728214E0	-4.149205089E-1	-4.458131790E-1	-1.773665249E-1
2.169757445E0	-4.245078862E-1	-4.458131790E-1	-1.299622655E-1
2.171751521E0	-4.362258017E-1	-4.527373910E-1	-8.628641814E-2
2.173408191E0	-4.484763443E-1	-4.601942301E-1	-4.740426689E-2
2.175808983E0	-4.649879336E-1	-4.756405652E-1	-1.544633508E-2
2.177695922E0	-4.804342687E-1	-4.932174385E-1	1.704423130E-2
2.179829345E0	-4.996090233E-1	-5.166532397E-1	4.633900523E-2
2.181119499E0	-5.209143162E-1	-5.432848930E-1	7.510114461E-2
2.183896944E0	-5.390238166E-1	-5.715143681E-1	1.054611802E-1
2.185821345E0	-5.544701219E-1	-5.997439027E-1	1.358212233E-1
2.187928406E0	-5.699164867E-1	-6.258428693E-1	1.629854590E-1
2.189286576E0	-5.795038939E-1	-6.546050310E-1	1.965412945E-1
2.191922983E0	-5.853627920E-1	-6.785734296E-1	2.199771106E-1
2.193846653E0	-5.826996565E-1	-7.030745149E-1	2.402171344E-1
2.195934137E0	-5.789712071E-1	-7.275756001E-1	2.631203234E-1
2.197236037E0	-5.725796223E-1	-7.542072535E-1	2.828277051E-1
2.199991867E0	-5.629922748E-1	-7.819041014E-1	2.966761589E-1
2.201975076E0	-5.507417321E-1	-8.080030680E-1	3.110572100E-1
2.204022752E0	-5.390238166E-1	-8.367652297E-1	3.254382908E-1
2.205338268E0	-5.283711553E-1	-8.713863492E-1	3.430151641E-1
2.208080483E0	-5.171858668E-1	-9.092032313E-1	3.504720032E-1
2.210098191E0	-5.054680109E-1	-9.496832490E-1	3.552657068E-1
2.212122060E0	-4.884237647E-1	-9.922938347E-1	3.552657068E-1
2.213386076E0	-4.745753109E-1	-1.033839107E0	3.547330499E-1
2.216179867E0	-4.601942301E-1	-1.079645514E0	3.552657068E-1
2.218153153E0	-4.452805519E-1	-1.124386668E0	3.499393761E-1
2.219993268E0	-4.287689328E-1	-1.165399313E0	3.499393761E-1
2.221428730E0	-4.101268053E-1	-1.200020432E0	3.478088379E-1
2.224118537E0	-3.850930929E-1	-1.242098331E0	3.483414650E-1
2.226179191E0	-3.659183383E-1	-1.251685739E0	3.462109566E-1
2.228317598E0	-3.456783295E-1	-1.255946755E0	3.472762108E-1
2.229753307E0	-3.265035450E-1	-1.244228840E0	3.462109566E-1
2.232312867E0	-3.062635362E-1	-1.222923636E0	3.430151641E-1
2.234207883E0	-2.876214087E-1	-1.193096161E0	3.456783295E-1
2.236309060E0	-2.700445354E-1	-1.155279279E0	3.398193717E-1
2.237830037E0	-2.530003190E-1	-1.107342362E0	3.392867148E-1
2.240367790E0	-2.391518652E-1	-1.055677056E0	3.392867148E-1
2.242221191E0	-2.284992188E-1	-1.001348615E0	3.291667104E-1
2.244414906E0	-2.189118415E-1	-9.384979606E-1	3.185140789E-1
2.245776691E0	-2.077265680E-1	-8.676578999E-1	3.142530024E-1
2.248473137E0	-2.002697140E-1	-7.962851524E-1	3.073287904E-1
2.250464960E0	-1.917476058E-1	-7.206513882E-1	2.924150825E-1
2.252513944E0	-1.874865443E-1	-6.466155052E-1	2.764361203E-1
2.253777922E0	-1.816275865E-1	-5.720469952E-1	2.679139972E-1
2.256571521E0	-1.810949594E-1	-4.990763962E-1	2.450108230E-1
2.258455806E0	-1.789644361E-1	-4.245078862E-1	2.231729031E-1
2.260559883E0	-1.736381054E-1	-3.483414650E-1	2.087918371E-1
2.261996960E0	-1.736381054E-1	-2.844256163E-1	1.912149638E-1
2.264481153E0	-1.720402092E-1	-2.226402760E-1	1.672465205E-1
2.266655191E0	-1.672465205E-1	-1.608549356E-1	1.422128081E-1
2.268707098E0	-1.603222936E-1	-1.075917110E-1	1.235706806E-1
2.270209268E0	-1.512675583E-1	-5.805691332E-2	1.075917110E-1
2.272714752E0	-1.395496428E-1	-1.118527725E-2	9.374327213E-2
2.274574230E0	-1.310275346E-1	2.290318534E-2	9.054747969E-2
2.276710752E0	-1.246359423E-1	4.154531285E-2	9.640643001E-2
2.277967037E0	-1.272991002E-1	4.048004746E-2	1.027980223E-1
2.280768367E0	-1.363538504E-1	1.810949668E-2	1.150485575E-1
2.282613499E0	-1.518001854E-1	-1.917476021E-2	1.198422536E-1
2.284800252E0	-1.677791476E-1	-6.338323653E-2	1.278317273E-1
2.286041576E0	-1.826928556E-1	-1.059938148E-1	1.288969964E-1
2.288857636E0	-1.890844405E-1	-1.411475390E-1	1.283643693E-1
2.290886829E0	-1.922802329E-1	-1.752360016E-1	1.219727769E-1
2.292913559E0	-1.874865443E-1	-2.029328793E-1	1.251685768E-1
2.294219614E0	-1.842907518E-1	-2.290318608E-1	1.283643693E-1
2.296971406E0	-1.800296903E-1	-2.567287385E-1	1.315601617E-1
2.298823653E0	-1.800296903E-1	-2.854908705E-1	1.347559541E-1
2.300766306E0	-1.789644361E-1	-3.190467060E-1	1.315601617E-1
2.302230345E0	-1.821602285E-1	-3.504720032E-1	1.283643693E-1
2.304906806E0	-1.842907518E-1	-3.813646734E-1	1.214401498E-1
2.306906576E0	-1.869539171E-1	-4.095941782E-1	1.182443574E-1
2.309090790E0	-1.922802329E-1	-4.356931746E-1	1.177117229E-1
2.310491845E0	-1.954760253E-1	-4.591289759E-1	1.150485575E-1
2.313085021E0	-2.024002522E-1	-4.852279723E-1	1.102548689E-1
2.315052960E0	-2.141181529E-1	-5.091964006E-1	1.091896072E-1
2.317096098E0	-2.306297570E-1	-5.363606811E-1	1.075917110E-1
2.318341653E0	-2.492718846E-1	-5.693838596E-1	9.960222989E-2
2.321152944E0	-2.663161159E-1	-5.970807076E-1	9.960222989E-2
2.323182021E0	-2.796319127E-1	-6.167881489E-1	9.640643001E-2
2.325183790E0	-2.881540358E-1	-6.210491657E-1	9.374327213E-2
2.326444268E0	-2.966761589E-1	-6.178534031E-1	8.575379103E-2
2.329240367E0	-3.057309091E-1	-6.146575809E-1	7.936219871E-2
2.331243268E0	-3.115898669E-1	-6.103965044E-1	7.297061384E-2
2.333281021E0	-3.243730366E-1	-6.056028605E-1	6.764429063E-2
2.334542422E0	-3.339604139E-1	-5.997439027E-1	6.178534031E-2
2.337337944E0	-3.430151641E-1	-5.832322836E-1	5.060006306E-2
2.339222422E0	-3.510046303E-1	-5.693838596E-1	4.367584363E-2
2.341166576E0	-3.557983339E-1	-5.613943934E-1	3.249056637E-2
2.342756383E0	-3.648530841E-1	-5.571333170E-1	2.982740477E-2
2.345188229E0	-3.755057156E-1	-5.581985712E-1	2.822950855E-2
2.347334960E0	-3.808320463E-1	-5.555354357E-1	2.663161233E-2
2.349471944E0	-3.882888854E-1	-5.571333170E-1	2.822950855E-2
2.350843883E0	-3.925499618E-1	-5.581985712E-1	2.663161233E-2
2.353466675E0	-3.973436356E-1	-5.635249019E-1	3.089267015E-2
2.355367999E0	-4.026699662E-1	-5.709817410E-1	3.249056637E-2
2.357462405E0	-4.181163013E-1	-5.928196907E-1	2.450108156E-2
2.358721076E0	-4.293015897E-1	-6.077333689E-1	2.024002373E-2
2.361519790E0	-4.346278906E-1	-6.130596995E-1	2.503371425E-2
2.363489383E0	-4.282363057E-1	-6.024070382E-1	2.396845073E-2
2.365566175E0	-4.245078862E-1	-5.874933600E-1	2.876213938E-2
2.366848537E0	-4.239752591E-1	-5.805691481E-1	3.355583176E-2
2.369623790E0	-4.181163013E-1	-5.715143681E-1	4.048004746E-2
2.371638229E0	-4.133225977E-1	-5.629922748E-1	5.060006306E-2
2.373663982E0	-4.058657587E-1	-5.528722405E-1	4.740426689E-2
2.374940691E0	-4.037352204E-1	-5.374259353E-1	3.781688958E-2
2.377721444E0	-3.952131271E-1	-5.123922229E-1	2.609897964E-2
2.379587460E0	-3.829625845E-1	-4.681837261E-1	1.757686399E-2
2.381616576E0	-3.664509654E-1	-4.207794666E-1	6.924218964E-3
2.383126076E0	-3.488741219E-1	-3.627225459E-1	-5.858954508E-3
2.385772076E0	-3.281014562E-1	-2.977414131E-1	-2.077265643E-2
2.387755576E0	-3.057309091E-1	-2.300971150E-1	-3.462109342E-2
2.389857059E0	-2.838929892E-1	-1.592570394E-1	-4.527373984E-2
2.391228653E0	-2.588592768E-1	-9.321063757E-2	-4.367584363E-2
2.393860521E0	-2.364887148E-1	-2.769687586E-2	-3.994741663E-2
2.395854713E0	-2.157160491E-1	2.876213938E-2	-3.994741663E-2
2.397857174E0	-1.992044598E-1	7.723167539E-2	-3.568635881E-2
2.399219614E0	-1.826928556E-1	1.075917110E-1	-2.663161233E-2
2.401914828E0	-1.688444167E-1	1.288969964E-1	-2.396845073E-2
2.403943905E0	-1.549959779E-1	1.464738697E-1	-1.704423130E-2
2.405946405E0	-1.432780623E-1	1.651159972E-1	-1.757686399E-2
2.407575460E0	-1.288969964E-1	1.853560209E-1	-2.822950855E-2
2.410004021E0	-1.182443574E-1	1.917476058E-1	-4.527373984E-2
2.412033136E0	-1.065264493E-1	1.944107562E-1	-6.018744037E-2
2.414027674E0	-9.054747969E-2	2.002697140E-1	-7.563377917E-2
2.415263999E0	-6.764429063E-2	2.141181529E-1	-8.362326026E-2
2.418085444E0	-4.420847446E-2	2.386192381E-1	-8.468852192E-2
2.420037691E0	-1.597896591E-2	2.711097896E-1	-9.640643001E-2
2.421941383E0	1.651159860E-2	3.030677438E-1	-1.102548689E-1
2.423513460E0	5.486112088E-2	3.494067490E-1	-1.145159304E-1
2.425997729E0	9.800432622E-2	4.063983858E-1	-1.155811921E-1
2.428034768E0	1.459412277E-1	4.767058492E-1	-1.139832959E-1
2.430204944E0	1.933455020E-1	5.496764779E-1	-1.161138266E-1
2.431529306E0	2.391518652E-1	6.157228351E-1	-1.070590764E-1
2.434199597E0	2.822950780E-1	6.711165905E-1	-1.012001261E-1
2.436103306E0	3.227751255E-1	7.211840153E-1	-8.362326026E-2
2.438210713E0	3.632551730E-1	7.637946010E-1	-6.924218684E-2
2.439480191E0	4.010720551E-1	8.021441102E-1	-5.486112088E-2
2.442268867E0	4.367584288E-1	8.335694075E-1	-4.474110901E-2
2.444145653E0	4.889563918E-1	8.729842305E-1	-3.302319720E-2
2.446300559E0	5.166532397E-1	8.921589851E-1	-2.982740477E-2
2.447585229E0	5.422195792E-1	9.044095278E-1	-3.036003746E-2
2.450358559E0	5.651227832E-1	9.102684855E-1	-3.195793182E-2
2.452373076E0	5.816344023E-1	9.086706042E-1	-3.728425503E-2
2.454399943E0	5.933523178E-1	9.022790194E-1	-4.314320907E-2
2.455655037E0	6.018744111E-1	8.884305358E-1	-4.207794741E-2
2.458457520E0	6.061354876E-1	8.751147389E-1	-4.740426689E-2
2.460477845E0	6.135923266E-1	8.617989421E-1	-5.060006306E-2
2.462304922E0	6.151902080E-1	8.474178910E-1	-5.060006306E-2
2.463758960E0	6.173207760E-1	8.341020942E-1	-5.166532472E-2
2.466432999E0	6.183860302E-1	8.191883564E-1	-4.953479767E-2
2.468459460E0	6.135923266E-1	8.010788560E-1	-4.474110901E-2
2.470593290E0	6.056028605E-1	7.755125165E-1	-4.154531285E-2
2.471977576E0	5.970807076E-1	7.446198463E-1	-3.621899337E-2
2.474586597E0	5.890912414E-1	7.105314136E-1	-3.568635881E-2
2.476434268E0	5.736449361E-1	6.769755483E-1	-3.302319720E-2
2.478583482E0	5.576659441E-1	6.407565475E-1	-3.568635881E-2
2.480003114E0	5.427522659E-1	6.077333689E-1	-3.621899337E-2
2.482640713E0	5.251753926E-1	5.752428174E-1	-3.834952042E-2
2.484550114E0	5.060006380E-1	5.459480286E-1	-4.527373984E-2
2.486686789E0	4.830974340E-1	5.134574771E-1	-4.793690145E-2
2.487984422E0	4.522047639E-1	4.692489803E-1	-5.592638254E-2
2.490744059E0	4.133225977E-1	4.181163013E-1	-6.178534031E-2
2.492773213E0	3.739078343E-1	3.755057156E-1	-6.498113275E-2
2.494785751E0	3.403519988E-1	3.392867148E-1	-6.498113275E-2
2.496051306E0	3.110572100E-1	3.099919558E-1	-5.752427876E-2
2.498843020E0	2.838929892E-1	2.806971967E-1	-4.846953228E-2
2.500736999E0	2.609897852E-1	2.572613657E-1	-3.408846259E-2
2.502734576E0	2.380866110E-1	2.274339646E-1	-2.396845073E-2
2.504321499E0	2.135855258E-1	1.944107562E-1	-1.544633508E-2
2.506830306E0	1.912149638E-1	1.587243974E-1	-1.171790902E-2
2.508881152E0	1.677791476E-1	1.219727769E-1	-9.054748341E-3
2.510977636E0	1.502022892E-1	8.309062570E-2	-6.924218964E-3
2.512466229E0	1.241033077E-1	4.101268202E-2	0.000000000E0
2.514982097E0	1.075917110E-1	3.728425596E-3	6.391586736E-3
2.516976136E0	9.214537591E-2	-2.663161233E-2	1.012001187E-2
2.518978982E0	7.456851006E-2	-5.060006306E-2	1.810949668E-2
2.520392806E0	6.125270575E-2	-7.350324839E-2	2.077265643E-2
2.523035789E0	4.420847446E-2	-9.906959534E-2	2.769687586E-2
2.524892576E0	2.982740477E-2	-1.214401498E-1	3.249056637E-2
2.527066866E0	1.438106969E-2	-1.464738697E-1	4.101268202E-2
2.528343768E0	-2.130528912E-3	-1.651159972E-1	4.793690145E-2
2.531124559E0	-1.118527725E-2	-1.821602285E-1	4.846953228E-2
2.533150999E0	-2.450108156E-2	-1.933455020E-1	5.006742850E-2
2.535179982E0	-3.302319720E-2	-2.002697140E-1	5.006742850E-2
2.536443383E0	-4.048004746E-2	-1.997370869E-1	5.539375171E-2
2.539237559E0	-4.367584363E-2	-1.981391907E-1	5.432848632E-2
2.541119768E0	-5.219795927E-2	-1.922802329E-1	4.953479767E-2
2.543089768E0	-5.805691332E-2	-1.874865443E-1	3.941478580E-2
2.544561229E0	-6.391586363E-2	-1.874865443E-1	3.142530099E-2
2.547170499E0	-7.882957160E-2	-1.874865443E-1	1.171790902E-2
2.549354135E0	-8.841694891E-2	-1.864212751E-1	9.054748341E-3
2.551355405E0	-9.108011425E-2	-1.715075821E-1	6.924218964E-3
2.552875422E0	-9.161274135E-2	-1.502022892E-1	7.456851192E-3
2.555349212E0	-8.681905270E-2	-1.257012039E-1	7.456851192E-3
2.557318229E0	-8.202536404E-2	-9.747169912E-2	3.195793368E-3
2.559361674E0	-7.829693705E-2	-6.977482140E-2	-8.522115648E-3
2.560659691E0	-7.190535218E-2	-4.207794741E-2	-2.503371425E-2
2.563418674E0	-6.551376730E-2	-1.438106969E-2	-3.941478580E-2
2.565367999E0	-5.539375171E-2	1.225054078E-2	-5.592638254E-2
2.567449674E0	-4.367584363E-2	4.207794741E-2	-7.084008306E-2
2.568734768E0	-3.089267015E-2	7.350324839E-2	-9.054747969E-2
2.571506943E0	-1.970739290E-2	9.960222989E-2	-1.017327532E-1
2.573535828E0	-7.989482954E-3	1.187769845E-1	-1.091896072E-1
2.575547981E0	2.663161140E-3	1.272991002E-1	-1.139832959E-1
2.576817806E0	1.651159860E-2	1.384843737E-1	-1.161138266E-1
2.579605135E0	2.503371425E-2	1.454086006E-1	-1.091896072E-1
2.581604422E0	3.888215125E-2	1.438107044E-1	-1.091896072E-1
2.583525960E0	4.367584363E-2	1.358212233E-1	-1.065264493E-1
2.584910845E0	4.953479767E-2	1.230380461E-1	-1.059938148E-1
2.587686268E0	5.326322466E-2	1.091896072E-1	-1.086569726E-1
2.589605922E0	5.592638254E-2	9.161274135E-2	-1.107875034E-1
2.591739289E0	6.018744037E-2	7.882957160E-2	-1.113201380E-1
2.593197460E0	6.391586363E-2	6.817692518E-2	-1.129180342E-1
2.595733174E0	6.498113275E-2	5.805691332E-2	-1.091896072E-1
2.597685691E0	6.977482140E-2	5.113269389E-2	-1.017327532E-1
2.599728943E0	7.616640627E-2	5.166532472E-2	-9.214537591E-2
2.601146806E0	8.415589482E-2	5.645901710E-2	-8.149272949E-2
2.603785981E0	9.001484513E-2	6.338323653E-2	-6.711166352E-2
2.605722614E0	9.960222989E-2	7.563377917E-2	-5.858954415E-2
2.607831520E0	1.102548689E-1	9.108011425E-2	-5.006742850E-2
2.609233075E0	1.299622655E-1	1.283643693E-1	-4.420847446E-2
2.611888751E0	1.518001854E-1	1.874865443E-1	-4.474110901E-2
2.613908152E0	1.752360016E-1	2.572613657E-1	-4.367584363E-2
2.615929443E0	1.981391907E-1	3.211772442E-1	-5.219795927E-2
2.617245229E0	2.189118415E-1	3.850930929E-1	-5.912217870E-2
2.619986712E0	2.348908186E-1	4.367584288E-1	-7.616640627E-2
2.621915999E0	2.466087192E-1	4.735100567E-1	-9.321063757E-2
2.623952460E0	2.567287385E-1	5.006743073E-1	-1.091896072E-1
2.625290806E0	2.700445354E-1	5.411543250E-1	-1.342233270E-1
2.628017152E0	2.865561247E-1	5.880259871E-1	-1.533980817E-1
2.630012075E0	3.025351167E-1	6.332997084E-1	-1.731054783E-1
2.632121443E0	3.137203753E-1	6.737797856E-1	-1.890844405E-1
2.633553422E0	3.233077526E-1	7.062703371E-1	-2.082591951E-1
2.636125058E0	3.281014562E-1	7.307714224E-1	-2.247707993E-1
2.638119250E0	3.270362020E-1	7.435545921E-1	-2.375539690E-1
2.640121597E0	3.259709179E-1	7.547398806E-1	-2.514024079E-1
2.641720383E0	3.222424984E-1	7.595335841E-1	-2.647182047E-1
2.644178673E0	3.169161677E-1	7.595335841E-1	-2.769687474E-1
2.646199614E0	3.115898669E-1	7.558051348E-1	-2.838929892E-1
2.648209712E0	3.062635362E-1	7.504788041E-1	-2.934803665E-1
2.649479768E0	3.025351167E-1	7.451524734E-1	-2.982740402E-1
2.652266827E0	3.020024598E-1	7.360977530E-1	-2.998719513E-1
2.654295827E0	3.020024598E-1	7.318366766E-1	-2.988066673E-1
2.656289866E0	3.078614175E-1	7.281082273E-1	-2.998719513E-1
2.657539999E0	3.115898669E-1	7.249124646E-1	-2.966761589E-1
2.660347289E0	3.153182864E-1	7.190535069E-1	-2.908172011E-1
2.662277075E0	3.158509135E-1	7.073355913E-1	-2.828277051E-1
2.664208383E0	3.185140789E-1	6.956176758E-1	-2.748382390E-1
2.665670268E0	3.217098713E-1	6.897587180E-1	-2.663161159E-1
2.668243268E0	3.291667104E-1	6.849650741E-1	-2.593919039E-1
2.670361652E0	3.296993375E-1	6.673882008E-1	-2.482066154E-1
2.672465981E0	3.270362020E-1	6.444849968E-1	-2.375539690E-1
2.673987075E0	3.222424984E-1	6.109291911E-1	-2.231729031E-1
2.676459866E0	3.126551211E-1	5.667206645E-1	-2.077265680E-1
2.678367345E0	3.057309091E-1	5.251753926E-1	-1.901497096E-1
2.680470827E0	3.036003709E-1	4.964132309E-1	-1.747033745E-1
2.682113998E0	2.993393242E-1	4.580637217E-1	-1.576591432E-1
2.684528443E0	2.854908705E-1	4.079962969E-1	-1.363538504E-1
2.686550768E0	2.577939928E-1	3.254382908E-1	-1.166464612E-1
2.688558443E0	2.199771106E-1	2.178465873E-1	-9.267801046E-2
2.690022191E0	1.816275865E-1	1.134506613E-1	-6.977482140E-2
2.692615327E0	1.395496428E-1	1.331580617E-2	-4.527373984E-2
2.694644058E0	1.081243455E-1	-7.030745596E-2	-2.077265643E-2
2.696655443E0	7.776430249E-2	-1.422128081E-1	1.065264456E-3
2.698102306E0	5.273059011E-2	-1.986718178E-1	1.012001187E-2
2.700712866E0	2.876213938E-2	-2.359560728E-1	1.651159860E-2
2.702741673E0	9.054748341E-3	-2.647182047E-1	2.024002373E-2
2.704598998E0	-8.522115648E-3	-2.838929892E-1	2.024002373E-2
2.706050883E0	-2.663161233E-2	-2.924150825E-1	1.704423130E-2
2.708797845E0	-3.834952042E-2	-2.972087860E-1	8.522115648E-3
2.710844673E0	-4.953479767E-2	-2.945456207E-1	-6.924218964E-3
2.712846789E0	-6.125270575E-2	-2.913498282E-1	-1.917476021E-2
2.714313075E0	-6.657902896E-2	-2.817624509E-1	-3.621899337E-2
2.716841712E0	-7.669904083E-2	-2.716424465E-1	-5.379585549E-2
2.718835942E0	-8.202536404E-2	-2.636529505E-1	-6.657902896E-2
2.720838289E0	-8.841694891E-2	-2.519350350E-1	-8.255799860E-2
2.722136460E0	-9.640643001E-2	-2.434129268E-1	-1.001348570E-1
2.724896173E0	-1.022653878E-1	-2.407497615E-1	-1.102548689E-1
2.726925596E0	-1.091896072E-1	-2.375539690E-1	-1.209075153E-1
2.728943789E0	-1.241033077E-1	-2.482066154E-1	-1.278317273E-1
2.730239268E0	-1.368864775E-1	-2.673813701E-1	-1.299622655E-1
2.733001673E0	-1.544633508E-1	-2.860234976E-1	-1.310275346E-1
2.734972037E0	-1.736381054E-1	-3.105245829E-1	-1.315601617E-1
2.737043404E0	-1.938781291E-1	-3.424825370E-1	-1.294296384E-1
2.738346498E0	-2.151834220E-1	-3.771036267E-1	-1.198422536E-1
2.741101096E0	-2.396845073E-1	-4.181163013E-1	-1.091896072E-1
2.742999614E0	-2.620550692E-1	-4.628573954E-1	-9.853696078E-2
2.744908691E0	-2.886866629E-1	-5.118595958E-1	-8.681905270E-2
2.746415422E0	-3.137203753E-1	-5.651227832E-1	-7.190535218E-2
2.748997575E0	-3.366235793E-1	-6.178534031E-1	-5.645901710E-2
2.751220250E0	-3.536677957E-1	-6.695187092E-1	-3.568635881E-2
2.753237442E0	-3.733751774E-1	-7.190535069E-1	-1.864212751E-2
2.754718998E0	-3.872236311E-1	-7.632619739E-1	-2.130528912E-3
2.757241173E0	-4.010720551E-1	-8.032094240E-1	6.924218964E-3
2.759206922E0	-4.101268053E-1	-8.362326026E-1	1.704423130E-2
2.761237173E0	-4.165183902E-1	-8.639294505E-1	2.130528912E-2
2.762645114E0	-4.207794666E-1	-8.836368918E-1	2.290318534E-2
2.765294750E0	-4.250405133E-1	-9.171926975E-1	2.290318534E-2
2.767168806E0	-4.351605177E-1	-9.459548593E-1	2.130528912E-2
2.769326096E0	-4.532700181E-1	-9.912285805E-1	1.917476021E-2
2.770578421E0	-4.676510990E-1	-1.036502361E0	2.077265643E-2
2.773383827E0	-4.894890189E-1	-1.079645514E0	2.077265643E-2
2.775412865E0	-5.097290277E-1	-1.124919295E0	2.450108156E-2
2.777439135E0	-5.262406468E-1	-1.166997194E0	2.876213938E-2
2.778823652E0	-5.470132828E-1	-1.209075212E0	3.249056637E-2
2.781496250E0	-5.667206645E-1	-1.256479383E0	3.834952042E-2
2.783518460E0	-5.885586143E-1	-1.304948926E0	4.420847446E-2
2.785475114E0	-6.034722924E-1	-1.345961690E0	5.166532472E-2
2.786814114E0	-6.205165386E-1	-1.375789046E0	5.699164793E-2
2.789493460E0	-6.269081235E-1	-1.396561742E0	6.338323653E-2
2.791546537E0	-6.306365728E-1	-1.404018521E0	6.764429063E-2
2.793616327E0	-6.301039457E-1	-1.405083776E0	7.350324839E-2
2.795038498E0	-6.317018270E-1	-1.398159623E0	7.563377917E-2
2.797610327E0	-6.258428693E-1	-1.384311199E0	7.829693705E-2
2.799604673E0	-6.221144199E-1	-1.364071131E0	7.776430249E-2
2.801621211E0	-6.167881489E-1	-1.342233181E0	8.042746782E-2
2.802985806E0	-6.103965044E-1	-1.317199469E0	8.309062570E-2
2.805678481E0	-6.066681147E-1	-1.293231010E0	9.108011425E-2
2.807707865E0	-6.013417840E-1	-1.268197298E0	1.033306494E-1
2.809710250E0	-5.928196907E-1	-1.241565704E0	1.166464612E-1
2.811036075E0	-5.864281058E-1	-1.209607840E0	1.379517466E-1
2.813768250E0	-5.768406987E-1	-1.180845618E0	1.576591432E-1
2.815797442E0	-5.699164867E-1	-1.153148770E0	1.805623323E-1
2.817809365E0	-5.603290796E-1	-1.129180312E0	2.029328793E-1
2.819051768E0	-5.550028086E-1	-1.104146600E0	2.226402760E-1
2.821866173E0	-5.464806557E-1	-1.079112887E0	2.402171344E-1
2.823860306E0	-5.448827744E-1	-1.049285531E0	2.530003190E-1
2.825758537E0	-5.358279943E-1	-1.019458055E0	2.652508616E-1
2.827216460E0	-5.331648588E-1	-9.843043685E-1	2.716424465E-1
2.829764191E0	-5.257080197E-1	-9.507485032E-1	2.748382390E-1
2.831897614E0	-5.203816891E-1	-9.113337398E-1	2.753708661E-1
2.834004788E0	-5.129248500E-1	-8.681905270E-1	2.790992856E-1
2.835758075E0	-4.990763962E-1	-8.250473142E-1	2.785666585E-1
2.838000519E0	-4.846953154E-1	-7.728493810E-1	2.759034932E-1
2.839995327E0	-4.665858448E-1	-7.185208797E-1	2.759034932E-1
2.841998134E0	-4.447479248E-1	-6.609966159E-1	2.743056118E-1
2.843293652E0	-4.223773479E-1	-5.981460214E-1	2.711097896E-1
2.846056519E0	-3.962783813E-1	-5.305017233E-1	2.604571581E-1
2.848086442E0	-3.685815036E-1	-4.580637217E-1	2.535329461E-1
2.850103711E0	-3.334277868E-1	-3.829625845E-1	2.428802997E-1
2.851355768E0	-2.998719513E-1	-2.977414131E-1	2.269013226E-1
2.854162827E0	-2.636529505E-1	-2.103897333E-1	2.093244642E-1
2.856192480E0	-2.258360684E-1	-1.177117229E-1	1.938781291E-1
2.858205096E0	-1.874865443E-1	-2.663161233E-2	1.778991669E-1
2.859636268E0	-1.459412277E-1	6.977482140E-2	1.635181010E-1
2.862262980E0	-7.882957160E-2	2.183792144E-1	1.395496428E-1
2.864185460E0	-3.781688958E-2	3.206445873E-1	1.235706806E-1
2.866102614E0	9.054748341E-3	4.250405133E-1	1.059938148E-1
2.867563998E0	5.060006306E-2	5.267732739E-1	9.054747969E-2
2.870311998E0	9.800432622E-2	6.285060048E-1	7.084008306E-2
2.872267191E0	1.411475390E-1	7.355651259E-1	5.113269389E-2
2.874397903E0	1.853560209E-1	8.436894417E-1	2.450108156E-2
2.875806921E0	2.290318608E-1	9.523464441E-1	-4.261057824E-3
2.878402096E0	2.700445354E-1	1.061536074E0	-3.675162420E-2
2.880395980E0	3.110572100E-1	1.167529821E0	-7.456851006E-2
2.882398096E0	3.526025414E-1	1.277252078E0	-1.150485575E-1
2.883713921E0	3.962783813E-1	1.384311199E0	-1.571265012E-1
2.886456057E0	4.410194755E-1	1.492968082E0	-1.938781291E-1
2.888469191E0	4.841626883E-1	1.607484102E0	-2.354234457E-1
2.890488749E0	5.283711553E-1	1.719869494E0	-2.732403278E-1
2.891828421E0	5.715143681E-1	1.827461123E0	-3.046656251E-1
2.894546749E0	6.135923266E-1	1.926530719E0	-3.371562064E-1
2.896576365E0	6.519418359E-1	2.021872044E0	-3.680488765E-1
2.898570557E0	6.892260909E-1	2.101234198E0	-3.930825889E-1
2.899938075E0	7.153250575E-1	2.163019419E0	-4.207794666E-1
2.902627711E0	7.403587699E-1	2.205630064E0	-4.431500137E-1
2.904603691E0	7.659251690E-1	2.242914200E0	-4.671184719E-1
2.906576998E0	7.909588814E-1	2.276470184E0	-4.873584807E-1
2.907971114E0	8.202536106E-1	2.310558558E0	-4.980111420E-1
2.910547344E0	8.516789079E-1	2.351038694E0	-5.081311464E-1
2.912644460E0	8.815063238E-1	2.389920712E0	-5.123922229E-1
2.914748788E0	9.113337398E-1	2.425074577E0	-5.123922229E-1
2.916183921E0	9.411611557E-1	2.452771425E0	-5.134574771E-1
2.918743442E0	9.576727748E-1	2.456499815E0	-5.065332651E-1
2.920738288E0	9.720538259E-1	2.441586018E0	-4.937500656E-1
2.922755211E0	9.848369956E-1	2.426672459E0	-4.814995229E-1
2.924398114E0	9.896306992E-1	2.402171373E0	-4.612595141E-1
2.926812788E0	9.901633263E-1	2.368083000E0	-4.394215941E-1
2.928761537E0	9.912285805E-1	2.334527016E0	-4.133225977E-1
2.930844095E0	9.933590889E-1	2.301503897E0	-3.845604658E-1
2.932141421E0	1.014131784E0	2.279665947E0	-3.323625028E-1
2.934901365E0	1.024251819E0	2.261023760E0	-2.956108749E-1
2.936930749E0	1.030110717E0	2.231729031E0	-2.780340314E-1
2.938943019E0	1.028512836E0	2.198173285E0	-2.828277051E-1
2.940244498E0	1.018925428E0	2.154497385E0	-2.977414131E-1
2.943001480E0	1.004011750E0	2.099636316E0	-3.179814517E-1
2.944933844E0	9.837717414E-1	2.041046619E0	-3.376888335E-1
2.946883268E0	9.715211987E-1	1.980326653E0	-3.366235793E-1
2.948331883E0	9.598032832E-1	1.900964379E0	-2.913498282E-1
2.951106634E0	9.502158761E-1	1.826928496E0	-2.519350350E-1
2.953030344E0	9.406285286E-1	1.766741157E0	-2.354234457E-1
2.955138749E0	9.315737486E-1	1.702825189E0	-2.348908186E-1
2.956623037E0	9.044095278E-1	1.621865153E0	-2.407497615E-1
2.959133788E0	8.745821118E-1	1.519599795E0	-2.535329461E-1
2.961030037E0	8.287757635E-1	1.390170097E0	-2.609897852E-1
2.963130711E0	7.739146352E-1	1.239967823E0	-2.641855776E-1
2.964479614E0	7.121292949E-1	1.075917125E0	-2.615224123E-1
2.967188903E0	6.492787004E-1	9.038769007E-1	-2.545982003E-1
2.969130537E0	5.826996565E-1	7.313040495E-1	-2.380866110E-1
2.971235595E0	5.017395616E-1	4.980111420E-1	-2.103897333E-1
2.972658344E0	4.601942301E-1	3.771036267E-1	-1.922802329E-1
2.975294018E0	4.197141826E-1	2.663161159E-1	-1.912149638E-1
2.977267152E0	3.712446690E-1	1.528654546E-1	-2.039981484E-1
2.979337441E0	3.312972486E-1	5.486112088E-2	-2.210423797E-1
2.980776844E0	3.020024598E-1	-1.597896591E-2	-2.375539690E-1
2.983395788E0	2.838929892E-1	-7.297061384E-2	-2.508697808E-1
2.985425288E0	2.689792812E-1	-1.171790883E-1	-2.700445354E-1
2.987359306E0	2.551308274E-1	-1.597896665E-1	-2.956108749E-1
2.988728114E0	2.423476577E-1	-1.992044598E-1	-3.201119602E-1
2.991230191E0	2.370213419E-1	-2.258360684E-1	-3.483414650E-1
2.993375152E0	2.386192381E-1	-2.380866110E-1	-3.792341352E-1
2.995533903E0	2.476739883E-1	-2.327602804E-1	-4.143878818E-1
2.997014191E0	2.631203234E-1	-2.167813182E-1	-4.500742257E-1
2.999538826E0	2.753708661E-1	-1.986718178E-1	-4.921521842E-1
3.001440344E0	2.870887816E-1	-1.853560209E-1	-5.315669775E-1
3.003536018E0	2.972087860E-1	-1.693770438E-1	-5.672533512E-1
3.005029806E0	3.078614175E-1	-1.464738697E-1	-5.970807076E-1
3.007595057E0	3.179814517E-1	-1.225054115E-1	-6.215817928E-1
3.009624672E0	3.259709179E-1	-1.001348570E-1	-6.343649626E-1
3.011627518E0	3.328951299E-1	-7.510114461E-2	-6.359629035E-1
3.013095075E0	3.296993375E-1	-6.125270575E-2	-6.301039457E-1
3.015685364E0	3.190467060E-1	-5.858954415E-2	-6.151902080E-1
3.017674729E0	3.030677438E-1	-6.498113275E-2	-5.938849449E-1
3.019741711E0	2.801645398E-1	-7.030745596E-2	-5.597964525E-1
3.021109460E0	2.545982003E-1	-7.936219871E-2	-5.273059011E-1
3.023798826E0	2.284992188E-1	-7.989483327E-2	-4.862932265E-1
3.025770729E0	2.045307755E-1	-7.510114461E-2	-4.399542212E-1
3.027621921E0	1.832254827E-1	-5.752427876E-2	-3.904194236E-1
3.029230921E0	1.693770438E-1	-3.036003746E-2	-3.286340833E-1
3.031888672E0	1.539307088E-1	-2.130528912E-3	-2.609897852E-1
3.033918095E0	1.299622655E-1	1.225054078E-2	-1.837581247E-1
3.035920057E0	9.853696078E-2	7.456851192E-3	-1.123853996E-1
3.037337998E0	6.178534031E-2	-2.130528912E-3	-4.474110901E-2
3.039914057E0	1.384843793E-2	-2.290318534E-2	1.118527725E-2
3.041812575E0	-3.462109342E-2	-4.846953228E-2	6.125270575E-2
3.043925249E0	-8.948221803E-2	-8.681905270E-2	1.070590764E-1
3.045233767E0	-1.496696621E-1	-1.257012039E-1	1.432780623E-1
3.047982480E0	-2.039981484E-1	-1.565938741E-1	1.715075821E-1
3.049860498E0	-2.567287385E-1	-1.752360016E-1	1.938781291E-1
3.052013480E0	-3.020024598E-1	-1.832254827E-1	2.167813182E-1
3.053330921E0	-3.430151641E-1	-1.810949594E-1	2.316950262E-1
3.056071364E0	-3.808320463E-1	-1.704423130E-1	2.370213419E-1
3.058100441E0	-4.191815555E-1	-1.539307088E-1	2.364887148E-1
3.060111441E0	-4.511395097E-1	-1.390170157E-1	2.199771106E-1
3.061396037E0	-4.846953154E-1	-1.150485575E-1	1.954760253E-1
3.064168710E0	-5.113269091E-1	-8.415589482E-2	1.624528319E-1
3.066128652E0	-5.289037824E-1	-5.006742850E-2	1.241033077E-1
3.068023652E0	-5.491438508E-1	-1.438106969E-2	8.042746782E-2
3.069456921E0	-5.645901561E-1	2.183792181E-2	3.728425503E-2
3.072017152E0	-5.826996565E-1	7.669904083E-2	-3.249056637E-2
3.074222844E0	-5.906891227E-1	1.177117229E-1	-7.190535218E-2
3.076303095E0	-5.997439027E-1	1.549959779E-1	-1.043959185E-1
3.077703998E0	-6.114618182E-1	1.901497096E-1	-1.347559541E-1
3.080298364E0	-6.189186573E-1	2.221076339E-1	-1.677791476E-1
3.082292672E0	-6.295713186E-1	2.551308274E-1	-1.970739216E-1
3.084295441E0	-6.418218613E-1	2.801645398E-1	-2.205097377E-1
3.085641152E0	-6.562029123E-1	2.998719513E-1	-2.364887148E-1
3.088352672E0	-6.732471585E-1	3.094593287E-1	-2.503371537E-1
3.090381287E0	-6.902913451E-1	3.105245829E-1	-2.567287385E-1
3.092397941E0	-6.929545403E-1	3.435477912E-1	-2.753708661E-1
3.093620421E0	-6.604639888E-1	4.442152679E-1	-2.956108749E-1
3.096455364E0	-6.237123609E-1	5.502091050E-1	-3.073287904E-1
3.098484672E0	-6.045376062E-1	6.098638773E-1	-3.089267015E-1
3.100496826E0	-6.040049195E-1	6.231797338E-1	-2.950782478E-1
3.101740421E0	-6.189186573E-1	6.072007418E-1	-2.599245310E-1
3.104554826E0	-6.396912932E-1	5.720469952E-1	-2.146507949E-1
3.106440421E0	-6.609966159E-1	5.384911895E-1	-1.613875628E-1
3.108350344E0	-6.860303283E-1	4.958806038E-1	-1.075917110E-1
3.109882575E0	-7.126619220E-1	4.303668439E-1	-6.018744037E-2
3.112466229E0	-7.392935157E-1	3.749730885E-1	-1.864212751E-2
3.114636229E0	-7.504788041E-1	3.462109566E-1	2.450108156E-2
3.116691402E0	-7.542072535E-1	3.350256681E-1	5.912217870E-2
3.118079537E0	-7.467503548E-1	3.334277868E-1	7.936219871E-2
3.120695056E0	-7.360977530E-1	3.467435837E-1	9.108011425E-2
3.122550614E0	-7.158577442E-1	3.723099232E-1	9.480853379E-2
3.124691749E0	-7.014766335E-1	3.877562582E-1	9.587380290E-2
3.125950344E0	-6.876282096E-1	3.872236311E-1	9.214537591E-2
3.128748787E0	-6.721818447E-1	3.925499618E-1	7.882957160E-2
3.130671537E0	-6.578007936E-1	4.005394280E-1	6.604639441E-2
3.132780095E0	-6.343649626E-1	4.159857631E-1	5.113269389E-2
3.134050037E0	-6.045376062E-1	4.468784332E-1	3.515372798E-2
3.136837556E0	-5.672533512E-1	4.873584807E-1	1.651159860E-2
3.138866364E0	-5.320996046E-1	5.278385282E-1	-2.663161140E-3
3.140860556E0	-4.985437691E-1	5.539374948E-1	-2.396845073E-2
3.142122383E0	-4.697816372E-1	5.731122494E-1	-4.740426689E-2
3.144917249E0	-4.383563101E-1	5.853627920E-1	-6.977482140E-2
3.146783421E0	-4.149205089E-1	5.832322836E-1	-9.214537591E-2
3.148720306E0	-3.925499618E-1	5.731122494E-1	-1.171790883E-1
3.150186806E0	-3.781688809E-1	5.363606811E-1	-1.352885813E-1
3.152727190E0	-3.957457542E-1	4.314320982E-1	-1.342233270E-1
3.154915652E0	-3.877562582E-1	3.542004228E-1	-1.246359423E-1
3.157034364E0	-3.105245829E-1	4.213120937E-1	-1.262338310E-1
3.158443152E0	-2.279665917E-1	5.161206126E-1	-1.326254308E-1
3.161028479E0	-1.970739216E-1	5.113269091E-1	-1.704423130E-1
3.163021902E0	-1.816275865E-1	4.804342687E-1	-2.157160491E-1
3.165038748E0	-1.741707325E-1	4.431500137E-1	-2.647182047E-1
3.166319037E0	-1.720402092E-1	3.898867965E-1	-3.344930410E-1
3.169095287E0	-1.709749401E-1	3.392867148E-1	-4.101268053E-1
3.170991614E0	-1.581917703E-1	3.067961633E-1	-4.793690145E-1
3.173126095E0	-1.288969964E-1	3.062635362E-1	-5.294364095E-1
3.174436460E0	-7.563377917E-2	3.621899188E-1	-5.203816891E-1
3.177182787E0	-3.994741663E-2	3.877562582E-1	-4.985437691E-1
3.179156960E0	-3.142530099E-2	3.520699143E-1	-4.958806038E-1
3.181222018E0	-3.142530099E-2	3.115898669E-1	-5.310343504E-1
3.182506344E0	1.438106969E-2	3.595267534E-1	-5.331648588E-1
3.185278864E0	5.379585549E-2	4.175836742E-1	-4.820321798E-1
3.187232690E0	4.793690145E-2	3.595267534E-1	-4.644553065E-1
3.189152690E0	5.912217870E-2	3.078614175E-1	-4.889563918E-1
3.190593267E0	1.043959185E-1	3.430151641E-1	-4.751079381E-1
3.193337037E0	1.549959779E-1	3.834952116E-1	-4.420847595E-1
3.195303498E0	1.603222936E-1	3.675162494E-1	-4.399542212E-1
3.197413056E0	2.013349831E-1	4.016047120E-1	-4.122573435E-1
3.198920806E0	2.402171344E-1	4.490089715E-1	-3.605920076E-1
3.201405941E0	2.418150306E-1	4.308994710E-1	-3.526025414E-1
3.203339767E0	2.636529505E-1	4.601942301E-1	-3.142530024E-1
3.205402364E0	2.881540358E-1	4.809668958E-1	-2.817624509E-1
3.207204267E0	3.057309091E-1	5.006743073E-1	-2.428802997E-1
3.209459171E0	3.376888335E-1	5.374259353E-1	-1.928128600E-1
3.211487902E0	3.802994192E-1	6.061354876E-1	-1.395496428E-1
3.213505017E0	4.138552547E-1	6.412891746E-1	-1.065264493E-1
3.214994229E0	4.447479248E-1	6.631271243E-1	-7.403588295E-2
3.217561479E0	4.532700181E-1	6.524744630E-1	-5.805691332E-2
3.219537267E0	4.431500137E-1	6.221144199E-1	-5.805691332E-2
3.221600594E0	4.410194755E-1	6.018744111E-1	-6.604639441E-2
3.222974613E0	4.266384244E-1	5.608617067E-1	-7.243798673E-2
3.225657364E0	4.010720551E-1	5.129248500E-1	-9.001484513E-2
3.227648960E0	3.866910040E-1	4.751079381E-1	-1.150485575E-1
3.229497383E0	3.584614992E-1	4.170510471E-1	-1.251685768E-1
3.231034960E0	3.318298757E-1	3.536677957E-1	-1.209075153E-1
3.233596921E0	3.137203753E-1	3.099919558E-1	-1.177117229E-1
3.235747460E0	2.966761589E-1	2.583266199E-1	-9.161274135E-2
3.237792094E0	2.748382390E-1	2.109223604E-1	-5.805691332E-2
3.239242075E0	2.577939928E-1	1.715075821E-1	-4.261057824E-2
3.241795364E0	2.498045117E-1	1.342233270E-1	-2.663161233E-2
3.243789556E0	2.444781959E-1	9.747169912E-2	-9.587380104E-3
3.245792056E0	2.247707993E-1	5.592638254E-2	2.024002373E-2
3.247192883E0	2.055960447E-1	5.326322280E-3	5.326322466E-2
3.249848787E0	1.896170676E-1	-4.154531285E-2	8.149272949E-2
3.251853306E0	1.864212751E-1	-7.936219871E-2	9.587380290E-2
3.253879363E0	1.869539171E-1	-1.022653878E-1	1.091896072E-1
3.255228575E0	1.874865443E-1	-1.246359423E-1	1.198422536E-1
3.257936325E0	1.683117896E-1	-2.194444835E-1	1.400822699E-1
3.259965210E0	1.518001854E-1	-3.579288721E-1	1.454086006E-1
3.261989883E0	1.826928556E-1	-3.888215125E-1	1.597896665E-1
3.263179344E0	2.157160491E-1	-3.653857112E-1	1.821602285E-1
3.266044190E0	2.311623842E-1	-3.669835925E-1	2.066612989E-1
3.267860229E0	2.375539690E-1	-3.744404614E-1	2.455434501E-1
3.269806575E0	2.364887148E-1	-3.707120419E-1	2.956108749E-1
3.271267921E0	2.423476577E-1	-3.488741219E-1	3.440804183E-1
3.273892498E0	2.498045117E-1	-3.126551211E-1	3.872236311E-1
3.275943383E0	2.412824035E-1	-3.126551211E-1	4.085289240E-1
3.278155806E0	2.050634027E-1	-4.324973822E-1	3.755057156E-1
3.279481075E0	2.135855258E-1	-4.729774296E-1	3.600593805E-1
3.282149421E0	2.482066154E-1	-4.324973822E-1	3.616572917E-1
3.283949690E0	2.806971967E-1	-3.632551730E-1	3.941478431E-1
3.286169710E0	3.073287904E-1	-2.940129936E-1	4.527373910E-1
3.287373267E0	3.243730366E-1	-2.173139453E-1	5.113269091E-1
3.290226286E0	3.265035450E-1	-1.944107562E-1	5.709817410E-1
3.292051190E0	3.339604139E-1	-2.071939409E-1	5.933523178E-1
3.294256863E0	3.888215125E-1	-1.033306494E-1	6.263754964E-1
3.295535344E0	4.372910559E-1	1.544633508E-2	6.673882008E-1
3.298313748E0	4.591289759E-1	9.001484513E-2	6.934871674E-1
3.300274883E0	4.601942301E-1	1.400822699E-1	7.217166424E-1
3.302353786E0	4.484763443E-1	1.715075821E-1	7.520766854E-1
3.303563229E0	4.330300093E-1	2.039981484E-1	7.760451436E-1
3.306409575E0	4.245078862E-1	2.519350350E-1	7.973504663E-1
3.308439363E0	4.159857631E-1	3.051982522E-1	8.048073053E-1
3.310396190E0	4.085289240E-1	3.589941263E-1	8.000136018E-1
3.311662729E0	3.914846778E-1	3.957457542E-1	7.957525253E-1
3.314208113E0	3.760383427E-1	4.207794666E-1	7.819041014E-1
3.316325113E0	3.584614992E-1	4.383563101E-1	7.680556774E-1
3.318539806E0	3.376888335E-1	4.543353021E-1	7.605988383E-1
3.319858036E0	3.238403797E-1	4.681837261E-1	7.488809228E-1
3.322526229E0	3.142530024E-1	4.820321798E-1	7.515440583E-1
3.324311152E0	3.062635362E-1	4.921521842E-1	7.494135499E-1
3.326532440E0	2.966761589E-1	4.916195571E-1	7.350324988E-1
3.327724806E0	2.838929892E-1	4.809668958E-1	7.334345579E-1
3.330590132E0	2.657834888E-1	4.591289759E-1	7.227819562E-1
3.332430729E0	2.535329461E-1	4.372910559E-1	7.190535069E-1
3.334636555E0	2.386192381E-1	4.090615511E-1	7.046724558E-1
3.335833690E0	2.194444835E-1	3.675162494E-1	6.599313021E-1
3.338694171E0	2.013349831E-1	3.126551211E-1	6.386260390E-1
3.340612344E0	1.869539171E-1	2.524676621E-1	6.375607848E-1
3.342734940E0	1.810949594E-1	1.944107562E-1	6.151902080E-1
3.344062152E0	1.704423130E-1	1.299622655E-1	5.976133347E-1
3.346791979E0	1.699096859E-1	7.350324839E-2	6.119944453E-1
3.348594652E0	1.752360016E-1	2.609897964E-2	6.301039457E-1
3.350547729E0	1.752360016E-1	-1.544633508E-2	6.327670813E-1
3.352022267E0	1.773665249E-1	-5.858954415E-2	6.274407506E-1
3.354747729E0	1.747033745E-1	-1.033306494E-1	6.072007418E-1
3.356701844E0	1.688444167E-1	-1.518001854E-1	5.960154533E-1
3.358926902E0	1.656486243E-1	-1.992044598E-1	5.688512325E-1
3.360293190E0	1.507349163E-1	-2.492718846E-1	5.464806557E-1
3.362923229E0	1.390170157E-1	-3.041329980E-1	4.655205607E-1
3.364727998E0	1.145159304E-1	-3.733751774E-1	3.659183383E-1
3.366923806E0	6.870955974E-2	-4.777711034E-1	2.258360684E-1
3.368120690E0	2.663161233E-2	-5.826996565E-1	4.420847446E-2
3.370984786E0	-9.587380104E-3	-6.924219131E-1	-6.018744037E-2
3.372949883E0	-3.621899337E-2	-8.181231022E-1	-1.842907518E-1
3.375015555E0	-4.793690145E-2	-8.873652816E-1	-3.153182864E-1
3.376214690E0	-2.077265643E-2	-8.607336879E-1	-4.479437172E-1
3.379073055E0	1.597896591E-2	-7.776430249E-1	-6.061354876E-1
3.381036036E0	3.941478580E-2	-7.616640925E-1	-6.535397172E-1
3.383096786E0	4.474110901E-2	-8.005462289E-1	-6.173207760E-1
3.384292383E0	5.752427876E-2	-8.394283652E-1	-5.320996046E-1
3.387154325E0	7.829693705E-2	-8.591358066E-1	-4.218447208E-1
3.388965729E0	1.017327532E-1	-8.575378656E-1	-3.062635362E-1
3.390914306E0	1.272991002E-1	-8.452873230E-1	-1.917476058E-1
3.392385960E0	1.443433315E-1	-8.218515515E-1	-8.362326026E-2
3.394925998E0	1.645833552E-1	-7.632619739E-1	4.633900523E-2
3.397121421E0	1.661812514E-1	-7.169229984E-1	1.235706806E-1
3.399273171E0	1.608549356E-1	-6.705839634E-1	1.944107562E-1
3.400608844E0	1.480717659E-1	-6.135923266E-1	2.535329461E-1
3.403266863E0	1.310275346E-1	-5.305017233E-1	2.956108749E-1
3.405106767E0	1.059938148E-1	-4.277036786E-1	3.121224940E-1
3.407277863E0	7.510114461E-2	-3.265035450E-1	3.083940744E-1
3.408493036E0	3.781688958E-2	-2.300971150E-1	2.918824553E-1
3.411335517E0	-4.261057824E-3	-1.406149119E-1	2.721750736E-1
3.413299229E0	-4.474110901E-2	-6.285060197E-2	2.508697808E-1
3.415367517E0	-8.735168725E-2	4.793690052E-3	2.316950262E-1
3.416600883E0	-1.262338310E-1	6.498113275E-2	2.130528986E-1
3.419425094E0	-1.587243974E-1	1.150485575E-1	1.944107562E-1
3.421453940E0	-1.874865443E-1	1.581917703E-1	1.757686287E-1
3.423465632E0	-2.071939409E-1	1.885518134E-1	1.619201899E-1
3.424780498E0	-2.263686955E-1	2.055960447E-1	1.496696621E-1
3.427523863E0	-2.407497615E-1	2.114549875E-1	1.363538504E-1
3.429403613E0	-2.508697808E-1	2.077265680E-1	1.225054115E-1
3.431379267E0	-2.545982003E-1	1.949433982E-1	1.113201380E-1
3.432794190E0	-2.551308274E-1	1.789644361E-1	1.017327532E-1
3.435445844E0	-2.508697808E-1	1.555286050E-1	9.534116834E-2
3.437488998E0	-2.466087192E-1	1.315601617E-1	9.427590668E-2
3.439660209E0	-2.364887148E-1	1.054611802E-1	9.640643001E-2
3.441037575E0	-2.258360684E-1	7.882957160E-2	1.022653878E-1
3.443654363E0	-2.141181529E-1	5.592638254E-2	1.129180342E-1
3.445609267E0	-1.992044598E-1	3.302319720E-2	1.251685768E-1
3.447651017E0	-1.885518134E-1	1.065264456E-2	1.395496428E-1
3.448912690E0	-1.763012707E-1	-1.278317347E-2	1.518001854E-1
3.451708940E0	-1.640507281E-1	-3.781688958E-2	1.608549356E-1
3.453608075E0	-1.502022892E-1	-6.444849819E-2	1.645833552E-1
3.455755017E0	-1.379517466E-1	-8.788431436E-2	1.725728363E-1
3.456999998E0	-1.272991002E-1	-1.081243455E-1	1.853560209E-1
3.459813017E0	-1.129180342E-1	-1.257012039E-1	2.039981484E-1
3.461798383E0	-1.027980223E-1	-1.363538504E-1	2.130528986E-1
3.463853632E0	-9.054747969E-2	-1.406149119E-1	2.226402760E-1
3.465128613E0	-7.989483327E-2	-1.384843737E-1	2.263686955E-1
3.467911324E0	-6.764429063E-2	-1.331580579E-1	2.332929224E-1
3.469810575E0	-5.645901710E-2	-1.230380461E-1	2.375539690E-1
3.471865767E0	-4.900216311E-2	-1.123853996E-1	2.338255495E-1
3.473245883E0	-3.994741663E-2	-9.960222989E-2	2.354234457E-1
3.475768806E0	-2.769687586E-2	-8.468852192E-2	2.407497615E-1
3.477929883E0	-2.343581803E-2	-8.415589482E-2	2.412824035E-1
3.480045670E0	-3.675162420E-2	-1.512675583E-1	2.306297570E-1
3.481499421E0	-3.355583176E-2	-2.178465873E-1	2.199771106E-1
3.484049593E0	-1.544633508E-2	-2.311623842E-1	2.226402760E-1
3.485937883E0	5.858954508E-3	-2.332929224E-1	2.242381722E-1
3.488045016E0	2.663161233E-2	-2.338255495E-1	2.279665917E-1
3.489337729E0	5.060006306E-2	-2.380866110E-1	2.316950262E-1
3.492102363E0	7.084008306E-2	-2.300971150E-1	2.380866110E-1
3.494131555E0	9.640643001E-2	-2.178465873E-1	2.492718846E-1
3.496133363E0	1.187769845E-1	-1.997370869E-1	2.625876963E-1
3.497470767E0	1.464738697E-1	-1.768338978E-1	2.753708661E-1
3.500190324E0	1.858886480E-1	-1.235706806E-1	2.950782478E-1
3.502219286E0	2.173139453E-1	-7.669904083E-2	3.147856593E-1
3.504245439E0	2.466087192E-1	-2.077265643E-2	3.312972486E-1
3.505512536E0	2.759034932E-1	3.941478580E-2	3.483414650E-1
3.508303055E0	3.105245829E-1	1.123853996E-1	3.632551730E-1
3.510309421E0	3.392867148E-1	1.906823367E-1	3.760383427E-1
3.512164344E0	3.728425503E-1	2.780340314E-1	3.893541694E-1
3.513623190E0	4.063983858E-1	3.744404614E-1	4.053331316E-1
3.516226729E0	4.175836742E-1	4.165183902E-1	4.026699662E-1
3.518271921E0	4.032025933E-1	3.936152160E-1	3.765709996E-1
3.520424670E0	3.627225459E-1	3.147856593E-1	3.483414650E-1
3.521901229E0	2.977414131E-1	1.885518134E-1	3.147856593E-1
3.524420016E0	2.444781959E-1	7.084008306E-2	2.908172011E-1
3.526314575E0	2.141181529E-1	-7.456851192E-3	2.727077007E-1
3.528431862E0	2.029328793E-1	-4.420847446E-2	2.604571581E-1
3.529775075E0	2.077265680E-1	-5.699164793E-2	2.689792812E-1
3.532489632E0	2.247707993E-1	-5.592638254E-2	2.844256163E-1
3.534470190E0	2.455434501E-1	-4.474110901E-2	3.078614175E-1
3.536520939E0	2.700445354E-1	-2.982740477E-2	3.291667104E-1
3.538049575E0	2.966761589E-1	-1.065264456E-2	3.536677957E-1
3.540578439E0	3.270362020E-1	7.989482954E-3	3.813646734E-1
3.542607632E0	3.526025414E-1	2.396845073E-2	4.058657587E-1
3.544619478E0	3.712446690E-1	2.929477207E-2	4.181163013E-1
3.546027767E0	3.888215125E-1	3.249056637E-2	4.175836742E-1
3.548676939E0	3.978762627E-1	3.036003746E-2	4.058657587E-1
3.550609267E0	3.994741738E-1	3.142530099E-2	3.904194236E-1
3.552541921E0	3.941478431E-1	2.290318534E-2	3.749730885E-1
3.554013959E0	3.802994192E-1	6.391586736E-3	3.584614992E-1
3.556582959E0	3.632551730E-1	-1.917476021E-2	3.488741219E-1
3.558687152E0	3.478088379E-1	-4.953479767E-2	3.392867148E-1
3.560813132E0	3.366235793E-1	-8.309062570E-2	3.334277868E-1
3.562184036E0	3.312972486E-1	-1.171790883E-1	3.222424984E-1
3.564810939E0	3.270362020E-1	-1.539307088E-1	3.057309091E-1
3.566692498E0	3.275688291E-1	-1.960086524E-1	2.833603323E-1
3.568807555E0	3.281014562E-1	-2.418150306E-1	2.519350350E-1
3.570135498E0	3.355582952E-1	-2.924150825E-1	2.093244642E-1
3.572865362E0	3.392867148E-1	-3.446130455E-1	1.640507281E-1
3.574894708E0	3.446130455E-1	-3.968110085E-1	1.123853996E-1
3.576911862E0	3.547330499E-1	-4.548679292E-1	5.060006306E-2
3.578350844E0	3.653857112E-1	-5.107942820E-1	-1.438106969E-2
3.580969093E0	3.765709996E-1	-5.640575290E-1	-8.841694891E-2
3.582998285E0	3.925499618E-1	-6.151902080E-1	-1.683117896E-1
3.585009362E0	4.032025933E-1	-6.657902598E-1	-2.519350350E-1
3.586367075E0	4.197141826E-1	-7.153250575E-1	-3.408846259E-1
3.589067208E0	4.383563101E-1	-7.590008974E-1	-4.271710515E-1
3.591088229E0	4.569984376E-1	-7.952198982E-1	-5.054680109E-1
3.592966690E0	4.756405652E-1	-8.218515515E-1	-5.826996565E-1
3.594438882E0	4.937500656E-1	-8.378304839E-1	-6.540724039E-1
3.596931998E0	5.267732739E-1	-8.458199501E-1	-7.403587699E-1
3.599082036E0	5.470132828E-1	-8.335694075E-1	-7.877630591E-1
3.601202401E0	5.688512325E-1	-8.143946528E-1	-8.293083906E-1
3.602607844E0	5.928196907E-1	-7.808388472E-1	-8.532768488E-1
3.605204785E0	6.125270724E-1	-7.323693037E-1	-8.655273914E-1
3.607081382E0	6.364955306E-1	-6.679208279E-1	-8.703210354E-1
3.609201401E0	6.583334208E-1	-5.869607329E-1	-8.591358066E-1
3.610477882E0	6.769755483E-1	-5.017395616E-1	-8.378304839E-1
3.613258901E0	7.020092607E-1	-4.079962969E-1	-8.096010089E-1
3.615287862E0	7.206513882E-1	-3.051982522E-1	-7.765777707E-1
3.617290747E0	7.403587699E-1	-1.922802329E-1	-7.313040495E-1
3.618558729E0	7.605988383E-1	-7.350324839E-2	-6.833671331E-1
3.621348785E0	7.776430249E-1	4.793690145E-2	-6.332997084E-1
3.623377785E0	8.000136018E-1	1.784317940E-1	-5.821670294E-1
3.625372054E0	8.202536106E-1	3.078614175E-1	-5.257080197E-1
3.626643998E0	8.415589333E-1	4.447479248E-1	-4.724447727E-1
3.629428862E0	8.639294505E-1	5.800365210E-1	-4.191815555E-1
3.631457516E0	8.831042051E-1	7.089334726E-1	-3.675162494E-1
3.633306382E0	9.012137055E-1	8.314388990E-1	-3.254382908E-1
3.634864767E0	9.171926975E-1	9.475527406E-1	-2.865561247E-1
3.637292267E0	9.347695708E-1	1.051948667E0	-2.450108230E-1
3.639478421E0	9.432916641E-1	1.150485635E0	-2.151834220E-1
3.641547054E0	9.539443254E-1	1.244761467E0	-1.928128600E-1
3.643052267E0	9.619337916E-1	1.328384757E0	-1.736381054E-1
3.645540747E0	9.672601223E-1	1.404018521E0	-1.597896665E-1
3.647534747E0	9.720538259E-1	1.475391269E0	-1.459412277E-1
3.649551900E0	9.741843343E-1	1.539307117E0	-1.342233270E-1
3.650933421E0	9.763149023E-1	1.600027204E0	-1.209075153E-1
3.653608477E0	9.795106649E-1	1.656486273E0	-1.054611802E-1
3.655637747E0	9.795106649E-1	1.709216833E0	-9.640643001E-2
3.657640093E0	9.832391143E-1	1.756621122E0	-7.776430249E-2
3.658974075E0	9.827064872E-1	1.800296903E0	-6.018744037E-2
3.661697285E0	9.869675040E-1	1.839179039E0	-4.101268202E-2
3.663726439E0	9.901633263E-1	1.874865413E0	-1.864212751E-2
3.665738247E0	9.885654449E-1	1.906823397E0	8.522115648E-3
3.667108959E0	9.906959534E-1	1.935052872E0	3.302319720E-2
3.669796131E0	9.890980721E-1	1.957423449E0	6.498113275E-2
3.671781575E0	9.885654449E-1	1.978196144E0	9.214537591E-2
3.673774498E0	9.896306992E-1	1.994175076E0	1.209075153E-1
3.675101882E0	9.901633263E-1	2.001631975E0	1.491370201E-1
3.677703152E0	9.906959534E-1	2.009621382E0	1.773665249E-1
3.679806075E0	9.885654449E-1	2.017078161E0	2.066612989E-1
3.681932785E0	9.853696227E-1	2.017610788E0	2.343581766E-1
3.683331421E0	9.800432920E-1	2.013349771E0	2.540655732E-1
3.685927170E0	9.827064872E-1	2.006958246E0	2.769687474E-1
3.687854729E0	9.789780378E-1	1.998436093E0	2.966761589E-1
3.689924093E0	9.773801565E-1	1.984587669E0	3.126551211E-1
3.691221690E0	9.731190801E-1	1.968076110E0	3.265035450E-1
3.693981823E0	9.677927494E-1	1.950499177E0	3.376888335E-1
3.695931575E0	9.635316730E-1	1.934520245E0	3.451456726E-1
3.698028246E0	9.619337916E-1	1.915345550E0	3.510046303E-1
3.699251190E0	9.587380290E-1	1.898833871E0	3.563309610E-1
3.702085785E0	9.544769526E-1	1.882322311E0	3.595267534E-1
3.704059998E0	9.539443254E-1	1.867941260E0	3.552657068E-1
3.706126439E0	9.496832490E-1	1.857821226E0	3.515372574E-1
3.707365459E0	9.491506219E-1	1.848233819E0	3.488741219E-1
3.710184362E0	9.480853677E-1	1.839179039E0	3.344930410E-1
3.712054113E0	9.491506219E-1	1.832254887E0	3.227751255E-1
3.713995229E0	9.496832490E-1	1.826395869E0	3.105245829E-1
3.715506652E0	9.507485032E-1	1.823732734E0	2.934803665E-1
3.717983036E0	9.576727748E-1	1.820536971E0	2.764361203E-1
3.720167305E0	9.629990458E-1	1.818939090E0	2.572613657E-1
3.722321708E0	9.688580036E-1	1.817341208E0	2.391518652E-1
3.723743536E0	9.795106649E-1	1.813080072E0	2.199771106E-1
3.726325746E0	9.859022498E-1	1.809884310E0	2.034655064E-1
3.728320208E0	9.992180467E-1	1.817341208E0	1.837581247E-1
3.730322708E0	1.033306479E0	1.902029634E0	1.725728363E-1
3.731739344E0	1.078047633E0	2.016012907E0	1.709749401E-1
3.734380592E0	1.114266634E0	2.068743467E0	1.576591432E-1
3.736303652E0	1.136104584E0	2.077798367E0	1.416801661E-1
3.738412631E0	1.155811906E0	2.061286688E0	1.299622655E-1
3.739822344E0	1.173921466E0	2.030926704E0	1.246359423E-1
3.742470169E0	1.191498280E0	1.998968720E0	1.358212233E-1
3.744499477E0	1.215466738E0	1.972869754E0	1.507349163E-1
3.746526285E0	1.236239433E0	1.945172906E0	1.773665249E-1
3.748013036E0	1.262338400E0	1.913214922E0	2.071939409E-1
3.750583208E0	1.283111095E0	1.871669650E0	2.391518652E-1
3.752510421E0	1.303883672E0	1.819471717E0	2.652508616E-1
3.754487267E0	1.329450011E0	1.760882139E0	2.897519469E-1
3.755921267E0	1.344363689E0	1.687378883E0	3.089267015E-1
3.758607536E0	1.359810114E0	1.603755593E0	3.206445873E-1
3.760673536E0	1.373658538E0	1.505218625E0	3.312972486E-1
3.762703669E0	1.380050063E0	1.401355386E0	3.366235793E-1
3.764099921E0	1.382180691E0	1.287904739E0	3.387540877E-1
3.766697669E0	1.383778572E0	1.175519347E0	3.392867148E-1
3.768509575E0	1.385376453E0	1.067394972E0	3.376888335E-1
3.770709900E0	1.382180691E0	9.741843343E-1	3.350256681E-1
3.772009305E0	1.390702724E0	9.065400362E-1	3.323625028E-1
3.774767631E0	1.399757504E0	8.767126203E-1	3.312972486E-1
3.776727921E0	1.412540674E0	8.495483994E-1	3.265035450E-1
3.778798900E0	1.426389098E0	8.335694075E-1	3.185140789E-1
3.780201536E0	1.440237522E0	8.138620257E-1	3.105245829E-1
3.782856592E0	1.449824929E0	7.771103978E-1	2.961435318E-1
3.784885438E0	1.458879709E0	7.281082273E-1	2.801645398E-1
3.786896438E0	1.467934370E0	6.689860821E-1	2.652508616E-1
3.788199921E0	1.469532371E0	6.040049195E-1	2.492718846E-1
3.790953592E0	1.472195506E0	5.448827744E-1	2.354234457E-1
3.792837805E0	1.469532371E0	4.878911078E-1	2.237055302E-1
3.794817998E0	1.466869116E0	4.303668439E-1	2.119876295E-1
3.796256767E0	1.464205980E0	3.802994192E-1	2.013349831E-1
3.798813036E0	1.458879709E0	3.286340833E-1	1.922802329E-1
3.800951921E0	1.450357556E0	2.822950780E-1	1.837581247E-1
3.803088131E0	1.441835403E0	2.428802997E-1	1.741707325E-1
3.804597036E0	1.430117488E0	2.114549875E-1	1.624528319E-1
3.807082592E0	1.421595454E0	1.848233789E-1	1.523328125E-1
3.808935959E0	1.408812284E0	1.699096859E-1	1.459412277E-1
3.811078361E0	1.396561742E0	1.629854590E-1	1.384843737E-1
3.812406459E0	1.386974335E0	1.645833552E-1	1.320927888E-1
3.815135784E0	1.374723792E0	1.725728363E-1	1.251685768E-1
3.817119844E0	1.355016351E0	1.922802329E-1	1.155811921E-1
3.819181131E0	1.342765808E0	2.130528986E-1	1.086569726E-1
3.820619152E0	1.324123740E0	2.396845073E-1	9.640643001E-2
3.823238092E0	1.308677435E0	2.663161159E-1	8.841694891E-2
3.825232344E0	1.290035248E0	2.993393242E-1	7.776430249E-2
3.827278515E0	1.267132044E0	3.334277868E-1	6.657902896E-2
3.828543113E0	1.249022603E0	3.744404614E-1	5.965480953E-2
3.831335130E0	1.227717280E0	4.213120937E-1	5.060006306E-2
3.833257421E0	1.209075212E0	4.713795185E-1	3.994741663E-2
3.835275998E0	1.186704636E0	5.246427655E-1	2.929477207E-2
3.836641767E0	1.169127703E0	5.779059529E-1	2.663161233E-2
3.839249652E0	1.147822499E0	6.301039457E-1	1.757686399E-2
3.841324575E0	1.120658159E0	6.753776670E-1	1.118527725E-2
3.843468515E0	1.094026566E0	7.174556255E-1	6.391586736E-3
3.844854959E0	1.064731836E0	7.526093125E-1	-5.326322280E-4
3.847472515E0	1.034904361E0	7.845672965E-1	-1.597896684E-3
3.849331421E0	1.005609632E0	8.175904751E-1	-6.924218964E-3
3.851468553E0	9.736517072E-1	8.495483994E-1	-9.054748341E-3
3.852907690E0	9.384979606E-1	8.772453070E-1	-9.587380104E-3
3.855525707E0	9.060074091E-1	9.086706042E-1	-2.130528912E-3
3.857554592E0	8.692557812E-1	9.321063757E-1	-3.728425596E-3
3.859556823E0	8.314388990E-1	9.459548593E-1	0.000000000E0
3.860815844E0	7.920241356E-1	9.603359103E-1	3.728425596E-3
3.863613130E0	7.515440583E-1	9.624664187E-1	7.989482954E-3
3.865628728E0	7.105314136E-1	9.640643597E-1	1.171790902E-2
3.867636284E0	6.652576327E-1	9.614011645E-1	1.438106969E-2
3.868929575E0	6.189186573E-1	9.587380290E-1	1.597896591E-2
3.871694130E0	5.688512325E-1	9.582054019E-1	1.704423130E-2
3.873692305E0	5.214469433E-1	9.555422068E-1	2.130528912E-2
3.875665075E0	4.751079381E-1	9.523464441E-1	2.024002373E-2
3.877029267E0	4.324973822E-1	9.470201135E-1	2.822950855E-2
3.879663305E0	3.866910040E-1	9.448895454E-1	3.462109342E-2
3.881727536E0	3.440804183E-1	9.470201135E-1	3.941478580E-2
3.883816438E0	3.030677438E-1	9.518138170E-1	4.420847446E-2
3.885175113E0	2.599245310E-1	9.566074610E-1	5.113269389E-2
3.887811053E0	2.167813182E-1	9.645969868E-1	5.912217870E-2
3.889721613E0	1.768338978E-1	9.709885716E-1	7.030745596E-2
3.891822399E0	1.347559541E-1	9.789780378E-1	7.936219871E-2
3.893152959E0	8.894958347E-2	9.859022498E-1	8.522115648E-2
3.895879553E0	4.527373984E-2	9.864348769E-1	8.096009493E-2
3.897908323E0	4.793690052E-3	9.928264618E-1	7.829693705E-2
3.899910053E0	-3.888215125E-2	1.000283360E0	7.350324839E-2
3.901285613E0	-7.616640627E-2	1.010936022E0	7.084008306E-2
3.903968169E0	-1.107875034E-1	1.031175971E0	7.030745596E-2
3.905997323E0	-1.459412277E-1	1.054079175E0	7.243798673E-2
3.908010246E0	-1.747033745E-1	1.083373904E0	6.924218684E-2
3.909397536E0	-2.125202566E-1	1.111070871E0	6.711166352E-2
3.912067746E0	-2.375539690E-1	1.139300346E0	6.018744037E-2
3.913974267E0	-2.657834888E-1	1.160073042E0	4.953479767E-2
3.915975421E0	-2.993393242E-1	1.164334059E0	3.515372798E-2
3.917442075E0	-3.254382908E-1	1.154214025E0	1.917476021E-2
3.920011651E0	-3.771036267E-1	1.097222447E0	-5.326322280E-4
3.922067075E0	-4.314320982E-1	1.029578090E0	-1.544633508E-2
3.924203553E0	-4.921521842E-1	9.464874864E-1	-3.568635881E-2
3.925627728E0	-5.613943934E-1	8.431568146E-1	-5.699164793E-2
3.928197669E0	-6.311691999E-1	7.227819562E-1	-7.723167539E-2
3.930192361E0	-7.014766335E-1	5.960154533E-1	-9.747169912E-2
3.932195130E0	-7.637946010E-1	4.655205607E-1	-1.054611802E-1
3.933492113E0	-8.106662631E-1	3.376888335E-1	-1.118527651E-1
3.936252899E0	-8.436894417E-1	2.263686955E-1	-1.097222418E-1
3.938174190E0	-8.586031795E-1	1.283643693E-1	-9.587380290E-2
3.940298322E0	-8.623315692E-1	4.900216311E-2	-7.882957160E-2
3.941511151E0	-8.516789079E-1	-9.587380104E-3	-5.539375171E-2
3.944355899E0	-8.282431364E-1	-5.113269389E-2	-2.982740477E-2
3.946367613E0	-7.930893898E-1	-7.243798673E-2	5.326322280E-4
3.948397092E0	-7.446198463E-1	-7.084008306E-2	2.343581803E-2
3.949682228E0	-6.908239722E-1	-6.231797114E-2	4.154531285E-2
3.952454438E0	-6.402239203E-1	-5.273059011E-2	4.633900523E-2
3.954328113E0	-5.965480804E-1	-4.900216311E-2	4.474110901E-2
3.956390921E0	-5.544701219E-1	-4.633900523E-2	2.982740477E-2
3.957744844E0	-5.177185535E-1	-3.675162420E-2	1.012001187E-2
3.960377074E0	-4.751079381E-1	-1.118527725E-2	-8.522115648E-3
3.962472959E0	-4.298342168E-1	3.675162420E-2	-2.503371425E-2
3.964588284E0	-3.802994192E-1	1.054611802E-1	-3.834952042E-2
3.965997574E0	-3.275688291E-1	1.885518134E-1	-4.101268202E-2
3.968592092E0	-2.684466541E-1	2.870887816E-1	-3.941478580E-2
3.970586322E0	-2.082591951E-1	3.941478431E-1	-3.089267015E-2
3.972588361E0	-1.454086006E-1	5.044026971E-1	-1.704423130E-2
3.974099690E0	-8.415589482E-2	6.189186573E-1	-7.989482954E-3
3.976645322E0	-2.130528912E-2	7.382282615E-1	-1.597896684E-3
3.978589228E0	3.568635881E-2	8.548747301E-1	9.054748341E-3
3.980675553E0	8.894958347E-2	9.757822156E-1	1.278317347E-2
3.982031613E0	1.379517466E-1	1.093493938E0	1.278317347E-2
3.984732245E0	1.858886480E-1	1.203748822E0	1.225054078E-2
3.986726228E0	2.242381722E-1	1.307079434E0	7.989482954E-3
3.988787745E0	2.593919039E-1	1.401355386E0	2.663161140E-3
3.990257844E0	2.902845740E-1	1.487109184E0	-7.989482954E-3
3.992844784E0	3.137203753E-1	1.562210321E0	-1.065264456E-2
3.994742690E0	3.350256681E-1	1.636246204E0	-1.171790902E-2
3.996681459E0	3.573962152E-1	1.703890443E0	-1.544633508E-2
3.998232574E0	3.781688809E-1	1.771534801E0	-1.118527725E-2
4.000762151E0	3.973436356E-1	1.839711666E0	-1.065264456E-2
4.002834959E0	4.175836742E-1	1.904692888E0	-9.054748341E-3
4.004964322E0	4.356931746E-1	1.961684465E0	-6.924218964E-3
4.006390459E0	4.484763443E-1	2.012817144E0	2.663161140E-3
4.008958822E0	4.607268870E-1	2.046905756E0	-1.065264456E-3
4.010826267E0	4.671184719E-1	2.070341587E0	-4.261057824E-3
4.012970553E0	4.767058492E-1	2.081526756E0	-9.587380104E-3
4.014275421E0	4.841626883E-1	2.085255146E0	-1.757686399E-2
4.017028168E0	4.921521842E-1	2.080461502E0	-2.343581803E-2
4.019000959E0	5.017395616E-1	2.071939468E0	-2.769687586E-2
4.021059514E0	5.134574771E-1	2.060754061E0	-3.355583176E-2
4.022334844E0	5.283711553E-1	2.049568892E0	-3.941478580E-2
