"Time (s)"	"Linear Acceleration x (m/s^2)"	"Linear Acceleration y (m/s^2)"	"Linear Acceleration z (m/s^2)"
1.590526000E-2	2.715828419E-1	-3.368127346E-1	-8.125095367E-1
2.399291400E-2	4.357843399E-1	-3.651163578E-1	-6.525382996E-1
3.208573100E-2	6.447629929E-1	-4.273040295E-1	-3.254213333E-1
3.992600000E-2	9.273273945E-1	-4.871685505E-1	6.473731995E-2
4.828383700E-2	1.300603509E0	-6.015338898E-1	3.443861008E-1
5.627414500E-2	1.564251781E0	-6.607823372E-1	4.775190353E-1
6.437641400E-2	1.605686188E0	-4.871850014E-1	4.555101395E-1
7.246988500E-2	1.509909272E0	-1.404800415E-1	5.102376938E-1
8.029203900E-2	1.328365803E0	8.420443535E-2	6.217489243E-1
8.866226000E-2	1.167107105E0	5.496311188E-2	5.665903091E-1
9.665929900E-2	1.364997387E0	-6.400058270E-1	-6.279373169E-2
1.047469520E-1	8.716859818E-1	-6.277549267E-1	-1.581130028E0
1.128587600E-1	5.502628088E-1	-1.549354315E0	-6.044607162E-1
1.206605000E-1	4.456067085E-2	-1.870318770E0	-6.511096954E-1
1.290283850E-1	-3.048099279E-1	-1.476767898E0	-1.341971397E0
1.370361450E-1	-1.863439083E-1	-1.193569660E0	-1.539708614E0
1.451234910E-1	-5.000654459E-1	-9.933891296E-1	-1.095746994E0
1.532173080E-1	-1.072862267E0	-8.449341059E-1	-2.622194290E-1
1.610546930E-1	-6.211475134E-1	-7.323597670E-1	-1.957368851E-1
1.694101440E-1	2.443677187E-1	-5.604101419E-1	-2.279958725E-1
1.774023750E-1	7.179993987E-1	-4.677321911E-1	3.553876877E-1
1.855050670E-1	1.010610700E0	-1.001129150E-1	8.701992035E-2
1.935950000E-1	9.843543768E-1	2.941609621E-1	3.935241699E-1
2.013874620E-1	1.046625733E0	-3.715634346E-2	1.065909386E0
2.097669230E-1	6.711891890E-1	2.435185909E-1	1.307498932E0
2.177866930E-1	2.509531975E-1	3.522310257E-1	1.506755829E0
2.258806060E-1	2.569735050E-1	2.428939342E-1	1.623771667E0
2.339290770E-1	7.211021185E-1	-1.116063595E-1	1.385229111E0
2.417643460E-1	1.463925242E0	-5.970120430E-1	1.111466408E0
2.501045390E-1	2.303442478E0	-1.251341224E0	1.000683784E0
2.581289620E-1	2.375881672E0	-1.513455153E0	8.238315582E-2
2.662299130E-1	1.896278739E0	-1.497850060E0	-1.078735352E0
2.742899230E-1	1.034566045E0	-1.367290378E0	-1.951900005E0
2.821595390E-1	8.621931076E-3	-1.290068150E0	-2.064283371E0
2.904873460E-1	-7.641078234E-1	-1.349048376E0	-1.591268539E0
2.984811540E-1	-1.052157044E0	-1.463781118E0	-1.246482849E0
3.066100290E-1	-1.763974905E0	-2.043397427E0	8.622245789E-1
3.146858460E-1	-7.768784761E-1	-2.159143448E0	-1.001516342E0
3.225101540E-1	-1.045319915E0	-1.693125367E0	8.484125137E-1
3.308897310E-1	-1.584541798E0	-2.179490566E0	7.021665573E-1
3.388876920E-1	-1.364764571E0	-2.070892096E0	1.700569153E0
3.469732590E-1	-3.313014507E-1	-1.800011635E0	2.015574455E0
3.552173460E-1	1.183449984E0	-1.513240814E0	6.825132370E-1
3.628577310E-1	3.055900574E0	-1.554160595E0	1.063583374E0
3.712234230E-1	5.563055038E0	-2.847165108E0	-3.885326385E-1
3.792484900E-1	4.875791550E0	-3.159619331E0	1.499862671E-1
3.873356440E-1	4.123627186E0	-3.144437551E0	8.029975891E-1
3.954276540E-1	-5.323230743E0	-4.345822334E-2	3.352432251E-1
4.032653850E-1	-5.830042839E0	1.018225431E0	7.089405060E-1
4.116166920E-1	-5.569168568E0	2.402819157E0	-7.719974518E-1
4.196087590E-1	1.844057083E0	-1.044839025E0	-8.890891075E-1
4.277088460E-1	2.731539965E0	-2.133950233E0	-1.371222019E0
4.357714230E-1	2.366380215E0	-1.727894425E0	-1.681213856E0
4.436001920E-1	2.463458538E0	-1.031619549E0	-2.242818832E0
4.519968740E-1	2.086258411E0	-2.671868801E-1	-2.089455605E0
4.599947970E-1	2.012710094E0	1.754026413E-1	-1.549202442E0
4.680817970E-1	2.028031349E0	1.869957447E-1	-3.584327698E-1
4.761601430E-1	1.868703365E0	-3.382849693E-2	7.393083572E-1
4.839580390E-1	1.537416458E0	-4.074182510E-1	7.939939499E-1
4.923338360E-1	9.235539436E-1	-4.091846943E-1	8.086991310E-1
5.003210390E-1	8.647255898E-1	-7.098989487E-1	2.589120865E-1
5.084224230E-1	4.336290359E-1	-9.480757713E-1	-6.290583611E-1
5.165163460E-1	1.073818207E-1	-1.372213721E0	-1.730823517E0
5.243219230E-1	-3.304457664E-1	-9.512028694E-1	-1.885891438E0
5.326780770E-1	3.631529808E-1	-6.761274338E-1	-1.777685165E0
5.406656920E-1	1.194017410E0	-3.392508030E-1	-1.161710262E0
5.487917310E-1	1.146934032E0	-3.333091736E-4	-1.034536362E-1
5.568570380E-1	7.650642395E-1	-2.715606689E-1	7.405786514E-1
5.647105770E-1	7.124123573E-1	-9.726464748E-1	1.484830379E0
5.730645770E-1	8.359293938E-1	-1.573486090E0	1.745548248E0
5.810695770E-1	8.919992447E-1	-1.646433234E0	1.503729343E0
5.891570660E-1	1.309075356E0	-1.545126081E0	8.811111450E-1
5.972653850E-1	1.241397381E0	-1.033155680E0	5.759696960E-1
6.050870770E-1	1.285885334E0	-5.304355621E-1	1.884188652E-1
6.134304620E-1	9.199090004E-1	-2.184216976E-1	-1.770949364E-1
6.214109610E-1	3.170127869E-1	-4.776589870E-1	-4.135422707E-1
6.295262970E-1	8.859286308E-1	-1.194709539E0	-3.878231049E-1
6.376215270E-1	6.798763275E-1	-1.191937566E0	4.740757942E-1
6.455544610E-1	6.739425659E-1	-1.205820799E0	1.112679958E0
6.538091430E-1	1.127855301E0	-1.403260469E0	1.243941307E0
6.617971040E-1	1.163602352E0	-1.438239217E0	1.397292614E0
6.698989890E-1	9.484095573E-1	-1.377976894E0	1.320855618E0
6.779962960E-1	6.096172333E-1	-1.102136135E0	8.297934532E-1
6.858211920E-1	6.304483414E-1	-7.787661552E-1	1.978654861E-1
6.941875660E-1	6.256732941E-1	-4.601532221E-1	1.571102142E-1
7.021856040E-1	1.348788738E0	4.513051510E-1	8.416037560E-1
7.102706040E-1	1.337184906E0	3.544945717E-1	1.030826569E-2
7.183483730E-1	1.002516747E0	4.130601883E-2	6.171412468E-1
7.262688460E-1	-1.509857178E-2	-3.460273743E-1	1.580772400E0
7.345191810E-1	2.479829788E-1	-9.320849180E-1	1.051525593E0
7.425220650E-1	-1.775550842E-1	-1.007189512E0	1.280981064E0
7.587009110E-1	-1.071803570E0	-4.358081818E-1	9.645500183E-1
7.667209230E-1	-1.379539967E0	-4.179271460E-1	-7.405090332E-2
7.748871810E-1	-1.421925068E0	-9.730458260E-2	1.814031601E-2
7.828739110E-1	-1.874002934E0	2.750376463E-1	-1.338112354E-1
7.909740270E-1	-2.153045177E0	4.111020565E-1	-2.096831799E-1
7.990674880E-1	-1.476671696E0	1.092708111E-1	-3.550734520E-1
8.069840000E-1	-9.343285561E-1	-5.159770250E-1	4.214334488E-2
8.152507190E-1	-8.156585693E-1	-1.158312082E0	6.902074814E-2
8.232470650E-1	-4.657945633E-1	-1.461000323E0	-4.705953598E-2
8.313326800E-1	1.425161362E-1	-1.390296459E0	-1.439304352E-1
8.394426030E-1	9.656753540E-1	-1.069919467E0	-2.156195641E-1
8.473277690E-1	1.082159996E0	-6.457426548E-1	-2.242050171E-1
8.556151420E-1	2.002420425E-1	-7.730340958E-2	-8.530545235E-1
8.636187190E-1	-3.433523178E-1	2.159154415E-1	-1.105334044E0
8.717058730E-1	-6.069765091E-1	3.110752106E-1	-1.081358671E0
8.798018730E-1	-9.565815926E-1	3.270292282E-1	-8.922135830E-1
8.877603460E-1	-1.489687443E0	3.114449978E-1	-9.889247417E-1
8.959881800E-1	-2.009629726E0	3.774247169E-1	-7.343349457E-1
9.039770650E-1	-1.844773293E0	2.821199894E-1	-4.569816589E-1
9.120770260E-1	-1.628132343E0	2.442014217E-1	-1.843094826E-1
9.201729110E-1	-1.370705128E0	9.551024437E-2	-2.326207161E-1
9.280579610E-1	-6.121387482E-1	3.894011974E-1	-2.978110313E-2
9.363584490E-1	-3.271923065E-1	8.046345711E-1	-1.688344479E-1
9.443551420E-1	1.003456116E-2	1.124959350E0	-3.213262558E-2
9.524418720E-1	2.313747406E-1	1.219244242E0	-1.448194981E-1
9.605196030E-1	-2.559413910E-1	1.154156208E0	-4.643371105E-1
9.683560000E-1	-1.592330933E-1	9.640337229E-1	-4.991345406E-1
9.766930260E-1	-1.606502533E-1	8.074736595E-1	-2.979729176E-1
9.846987950E-1	-5.273694992E-1	7.052786350E-1	-2.968611717E-1
9.927870260E-1	-7.612400055E-1	5.496059656E-1	-3.326940536E-1
1.000883334E0	-8.196153641E-1	4.351385832E-1	-3.619539738E-1
1.008743000E0	-8.030490875E-1	4.458401203E-1	-1.188387871E-1
1.017075218E0	-5.606040955E-1	3.095059991E-1	-2.445387840E-1
1.025069295E0	-1.323928833E-1	6.310651302E-1	-4.779598713E-1
1.033169680E0	5.839834213E-1	1.173579216E0	-8.137444258E-1
1.041267141E0	1.281786919E0	1.983953476E0	-9.700026512E-1
1.049354064E0	1.069325447E0	2.114656687E0	-9.065911770E-1
1.057456487E0	5.225772858E-1	8.655314445E-1	-7.932662964E-1
1.065453833E0	7.064390182E-1	-2.713397443E-1	-1.711530685E-1
1.073540487E0	7.490901947E-1	-1.192718744E-3	-4.369668961E-1
1.081651526E0	7.171268463E-1	-7.811360359E-1	-1.696920395E-2
1.089582307E0	1.010099411E0	-9.313949943E-1	3.316707611E-1
1.097825641E0	1.575978279E0	-1.159317255E0	-2.999231815E-1
1.105829795E0	2.128005028E0	-1.039958000E0	1.579260826E-1
1.113919410E0	2.248908043E0	-7.815405726E-1	8.283233643E-2
1.122016679E0	1.919816017E0	-6.057122350E-1	-1.625589132E-1
1.129941500E0	1.269714355E0	-5.446583629E-1	2.978038788E-2
1.138208141E0	4.898710251E-1	-5.758998990E-1	-8.079886436E-2
1.146198910E0	2.307233810E-1	-6.235641837E-1	-1.395535469E-1
1.154302833E0	4.184722900E-1	-5.882532001E-1	-4.494525194E-1
1.162401602E0	1.016469955E0	-7.935995609E-2	-7.259566784E-1
1.170353846E0	1.492092133E0	4.223766923E-1	-6.397166252E-1
1.178595448E0	2.095432281E0	4.352317750E-1	-7.105165720E-1
1.186595487E0	2.675013542E0	8.536414802E-2	-6.517314911E-1
1.194684525E0	2.720758438E0	-5.157347918E-1	-7.978768349E-1
1.202765256E0	2.247791290E0	-1.206587315E0	-3.095232248E-1
1.210719807E0	1.844056129E0	-1.618890405E0	-7.592670918E-1
1.218941910E0	2.092756271E0	-2.195520639E0	-6.973507404E-1
1.226948064E0	2.259434700E0	-2.668475151E0	-3.606557846E-1
1.235036948E0	2.187779427E0	-2.782372952E0	-4.272702932E-1
1.243135640E0	2.269660950E0	-2.724072933E0	-5.197358131E-1
1.251003461E0	2.447987556E0	-2.589997768E0	-5.205041170E-1
1.259326833E0	2.230236053E0	-2.750777006E0	-1.205647111E0
1.267318371E0	2.095577240E0	-2.840317965E0	-8.009293675E-1
1.275420102E0	2.506137848E0	-2.508787394E0	-1.386869192E0
1.283516025E0	2.645420074E0	-2.711402178E0	-1.401053905E0
1.291356846E0	2.331249237E0	-2.131323814E0	-8.989553452E-1
1.299705794E0	2.081770897E0	-2.280070066E0	-7.507757545E-1
1.307704832E0	2.279214859E0	-1.814645767E0	-8.703820705E-1
1.315792217E0	1.739278793E0	-2.079811573E0	-6.483628750E-1
1.323903948E0	1.146957397E0	-2.661379814E0	-7.794325352E-1
1.331733230E0	7.074813843E-1	-3.072649717E0	-1.224585891E0
1.340079486E0	6.703376770E-3	-2.977717638E0	-1.139160633E0
1.348084102E0	-5.415654182E-1	-3.391203880E0	2.049499035E0
1.356171678E0	-1.367068291E0	-4.370373249E0	2.383457422E0
1.364267448E0	-2.564349651E0	-5.488586903E0	2.186283350E0
1.372120615E0	-3.374563217E0	-6.419395924E0	1.544553280E0
1.380455948E0	-3.366380692E0	-7.590254307E0	7.469441891E-1
1.388444640E0	-3.130742550E0	-8.299693108E0	6.146240234E-2
1.396558217E0	-2.432723999E0	-8.960309982E0	-2.226769924E-1
1.412598730E0	-1.930410862E0	-9.012863159E0	-4.567222595E-1
1.420834024E0	-2.386341572E0	-8.774617195E0	-1.816155195E0
1.428834601E0	-3.816665888E0	-7.171309948E0	-8.620786667E0
1.436923217E0	-1.605484772E1	-2.535153866E0	-2.486819839E1
1.445004293E0	-1.362770844E1	-2.739278793E0	-1.279765892E1
1.452934615E0	-6.171487808E0	-5.184138298E0	1.152044058E0
1.461179601E0	-5.465774536E0	-4.397200584E0	1.064961910E0
1.477270332E0	-8.388370514E0	-5.431008339E-1	3.505496979E0
1.485368024E0	-8.787563324E0	1.930008888E0	6.436502457E0
1.493314538E0	-9.088659286E0	3.601993561E0	7.289288998E0
1.501559562E0	-9.503274918E0	6.609766006E0	6.807147026E0
1.509548486E0	-1.071052551E1	8.715008736E0	3.493626833E0
1.517650524E0	-1.132122993E1	1.224382401E1	1.437552452E0
1.525747409E0	-1.093481159E1	1.636152649E1	-2.197727203E0
1.533602269E0	-6.429358482E0	1.937398529E1	-4.054598808E0
1.541940639E0	-3.533612490E0	2.053018188E1	-6.503988266E0
1.549949255E0	2.719020367E0	1.858149338E1	-7.726222038E0
1.558037139E0	1.088238716E1	1.486893082E1	-6.516768456E0
1.566148601E0	1.724674416E1	1.047696686E1	-4.707166672E0
1.574186192E0	1.663159561E1	5.432498932E0	-2.289686441E0
1.582325908E0	5.232012749E0	1.005483150E0	5.362625122E-1
1.590332331E0	2.172546864E0	-1.421789646E0	1.523432970E0
1.598420831E0	6.493687630E-1	-2.885865688E0	1.510334969E0
1.606518447E0	8.251657486E-1	-3.821784019E0	6.356091499E-1
1.614495115E0	-2.790298462E-1	-3.898652315E0	3.421388865E-1
1.622709985E0	-4.554791451E-1	-3.002589226E0	-5.861536264E-1
1.630701293E0	-1.049277306E0	-1.865361214E0	-1.004973173E0
1.638804139E0	-1.548775673E0	-8.644099236E-1	-1.306650758E0
1.646902062E0	-1.742512226E0	-2.750129700E-1	-1.551959276E0
1.654714153E0	-1.044880867E0	-2.641100883E-1	-1.729309559E0
1.663087422E0	3.849158287E-1	-6.321611404E-1	-1.908431530E0
1.671089677E0	1.082688808E0	-1.023941517E0	-1.587168455E0
1.679177100E0	1.051217556E0	-1.205195427E0	-1.036196947E0
1.687254038E0	8.591566086E-1	-1.073116302E0	-5.839247108E-1
1.695114461E0	3.469429016E-1	-8.814010620E-1	-1.605202556E-1
1.703431292E0	-1.087570190E-2	-6.432938576E-1	1.349729300E-2
1.711435946E0	-1.213140488E-1	-4.539575577E-1	-1.867926121E-2
1.719521985E0	-6.692028046E-2	-2.972826958E-1	-3.402568102E-1
1.727618215E0	-3.354601860E-1	-3.186721802E-1	-3.696647286E-1
1.735505268E0	-4.094052315E-1	-1.760401726E-1	-6.810697317E-1
1.743807985E0	-1.042184830E-1	-7.637166977E-2	-1.000623941E0
1.751798638E0	-8.819103241E-2	8.164548874E-2	-1.087023020E0
1.759900677E0	-1.369714737E-2	2.590270042E-1	-1.066732526E0
1.767997331E0	-1.786947250E-1	3.612060547E-1	-9.011723995E-1
1.775819999E0	-2.779202461E-1	2.477917671E-1	-6.075018048E-1
1.784185177E0	5.180215836E-2	1.151275635E-1	-2.372502387E-1
1.792184177E0	2.581515312E-1	2.678728104E-2	9.375438094E-4
1.800271523E0	2.378416061E-2	3.413033485E-1	1.494021714E-1
1.808357807E0	2.409386635E-1	3.813362122E-1	1.124610454E-1
1.816196422E0	3.736033440E-1	6.042737961E-1	-4.719936848E-1
1.824555907E0	-1.006188393E-1	4.103727341E-1	-6.225810647E-1
1.832562023E0	-6.440544128E-1	8.133497238E-1	-2.527060509E-1
1.840651484E0	-7.960867882E-1	1.118146420E0	-7.444759011E-1
1.848748061E0	-8.771038055E-1	9.701800346E-1	-1.186690211E0
1.856636384E0	-1.104752541E0	7.405056953E-1	-1.159912586E0
1.864937215E0	-1.057055473E0	4.024448395E-1	-8.568524122E-1
1.872927100E0	-5.861306190E-1	6.513881683E-2	-4.666842222E-1
1.889127523E0	-8.482265472E-2	-6.498031616E-1	-1.517701149E-1
1.896972114E0	3.698000908E-1	-9.396643639E-1	-1.913771033E-2
1.905318984E0	9.025468826E-1	-7.664804459E-1	-7.938626409E-2
1.913317753E0	6.478118896E-1	-6.350607872E-1	-1.552317739E-1
1.921405176E0	1.891961098E-1	-4.175734520E-1	-2.468279004E-2
1.929485176E0	-2.775712013E-1	-3.670072556E-2	2.701556683E-1
1.937328114E0	5.636305809E-1	-3.756957054E-1	2.220018655E-1
1.953668792E0	4.649100304E-1	-4.999427795E-1	7.980188727E-2
1.961758061E0	-1.248645782E-1	-1.787597656E0	1.396612823E-1
1.969856984E0	-9.261794090E-1	-3.077956200E0	1.847995520E-1
1.977745768E0	-6.466031075E-1	-2.298053741E0	6.190237403E-2
1.986047214E0	6.367449760E-1	-8.925347328E-1	-7.753024697E-1
1.994039061E0	1.396931648E0	1.415085793E-1	-1.487780452E0
2.002143561E0	1.404519081E0	3.995366096E-1	-1.406692028E0
2.010239999E0	1.670176506E0	3.070979118E-1	-5.364724398E-1
2.018069768E0	1.974290848E0	6.852140427E-1	1.133826375E-1
2.026433368E0	1.849144459E0	1.634447575E0	3.992071450E-1
2.034433060E0	1.287867069E0	2.338011742E0	9.369093180E-1
2.042521022E0	-1.259722710E-1	2.354617596E0	9.321203232E-1
2.050634560E0	-6.842131615E-1	1.912662983E0	5.519107580E-1
2.058540345E0	-5.702457428E-1	1.329962254E0	1.819069684E-1
2.066811406E0	-7.690343857E-1	1.031813145E0	2.144127488E-1
2.074818137E0	-1.140951633E0	8.536629677E-1	2.801255584E-1
2.082906829E0	-1.573501587E0	9.058899879E-1	3.733790815E-1
2.091005906E0	-1.768071175E0	9.284515381E-1	4.441541135E-1
2.098883999E0	-3.864834309E0	7.438306808E-1	1.383778691E0
2.107199714E0	-1.272109032E0	-5.923333168E-1	9.446428418E-1
2.115189368E0	-7.257585526E-1	-5.593209267E-1	1.331723481E-1
2.123292829E0	-2.473795414E0	4.490213394E-1	-1.096598983E0
2.131390637E0	-1.871331692E0	6.622004509E-1	-7.953583598E-1
2.139334153E0	7.359089851E-1	-1.523175240E-1	-6.294298768E-1
2.147582406E0	1.406770706E0	-5.567255020E-1	-3.740978837E-1
2.155583137E0	9.671435356E-1	-6.422376633E-1	-3.005493879E-1
2.163671368E0	-5.861806870E-2	-5.895729065E-1	-1.395134330E-1
2.171751521E0	-5.296607018E-1	-9.376826286E-1	-5.090317130E-2
2.179787999E0	6.171226501E-2	-1.459287643E0	-3.397945762E-1
2.187928406E0	4.282379150E-2	-1.614282131E0	-4.343678355E-1
2.195934137E0	2.225704193E-1	-1.411599636E0	9.476324171E-2
2.204022752E0	5.022039413E-1	-1.036945343E0	3.880783021E-1
2.212110383E0	7.442545891E-1	-6.277694702E-1	4.814541340E-1
2.219971345E0	1.027667522E0	-3.295178413E-1	5.699092746E-1
2.228317598E0	8.958797455E-1	1.291131973E-2	6.103144884E-1
2.236309060E0	7.885417938E-1	1.566176414E-1	6.131196022E-1
2.244414906E0	5.871224403E-1	2.463464737E-1	3.681852818E-1
2.252513944E0	5.162625313E-1	2.641582489E-2	2.722317576E-1
2.260509191E0	6.422996521E-1	9.845256805E-3	1.363794059E-1
2.268707098E0	5.355682373E-1	2.959222794E-1	2.048684508E-1
2.276710752E0	-1.935415268E-1	2.641968727E-1	4.542939961E-1
2.284800252E0	-6.210360527E-1	-1.580953598E-2	-1.571763903E-1
2.292913559E0	-8.764314651E-2	2.854394913E-1	1.998149753E-1
2.300734730E0	-1.945705414E-1	6.368970871E-2	3.299713135E-1
2.309090790E0	1.651062965E-1	-8.104133606E-2	1.955858767E-1
2.317096098E0	1.614222527E-1	1.571226120E-2	-2.015914023E-2
2.325183790E0	3.013596535E-1	-1.914339066E-1	-1.331291795E-1
2.333281021E0	4.057116508E-1	-9.002017975E-2	-1.197934151E-2
2.341129460E0	4.172630310E-1	-9.457397461E-2	1.049560979E-1
2.349471944E0	2.149953842E-1	-4.289565086E-1	5.015680194E-2
2.357462405E0	2.948279381E-1	-5.165653229E-1	7.952894270E-2
2.365566175E0	3.140668869E-1	-2.012510300E-1	1.683203131E-1
2.373663982E0	1.499595642E-1	-3.060336113E-1	1.408424377E-1
2.381581768E0	8.173894882E-1	-2.969307899E-1	1.106953770E-1
2.389846460E0	8.588438034E-1	-1.432628632E-1	5.995382369E-2
2.397857174E0	1.517319679E-1	-2.895860672E-1	-1.089401096E-1
2.405946405E0	-6.958770752E-2	-2.320246696E-1	-2.266152799E-1
2.414027674E0	7.300314903E-1	-8.682441711E-2	-2.770336270E-1
2.421882691E0	3.563442230E-1	-5.859375000E-3	2.683546543E-1
2.430185576E0	-6.645298004E-2	2.321782112E-1	7.011491060E-1
2.438210713E0	-6.761074066E-1	3.867301941E-1	6.172901988E-1
2.446300559E0	-6.140646935E-1	1.425447464E-1	5.077428818E-1
2.454399943E0	-1.317358017E-1	-2.537145615E-1	1.717259586E-1
2.462251345E0	-6.297397614E-2	-4.182400703E-1	-2.024704218E-1
2.470593290E0	-3.166670799E-1	-1.668553352E-1	-3.485896885E-1
2.478583482E0	-1.855273247E-1	-3.695011139E-2	-5.686429143E-1
2.486686789E0	8.904504776E-2	-1.455593109E-2	-6.278582811E-1
2.494785751E0	-5.381011963E-2	7.343602180E-1	-1.027577996E0
2.502633729E0	-8.383150101E-1	7.894015312E-1	-3.420783877E-1
2.510977636E0	-4.300155640E-1	3.364939690E-1	-7.202778012E-2
2.518978982E0	-5.281763077E-1	1.960954666E-1	1.850363314E-1
2.527066866E0	-4.755272865E-1	-1.621866226E-2	1.716829240E-1
2.535179982E0	-4.599289894E-1	3.353524208E-1	2.049933374E-1
2.543037268E0	-6.861734390E-1	8.143048286E-1	2.651057243E-1
2.551355405E0	-4.420461655E-1	3.587541580E-1	-1.591605842E-1
2.559361674E0	-5.969343185E-1	2.918720245E-2	8.205631375E-2
2.567449674E0	3.735208511E-1	-3.730387688E-1	-4.947181046E-2
2.575547981E0	4.820284843E-1	-1.625461578E-1	-1.361973882E-1
2.583478768E0	3.118472099E-1	-1.762061119E-1	-2.132636309E-1
2.591739289E0	6.355085373E-1	-1.570353508E-1	-5.096625090E-1
2.599728943E0	3.805203438E-1	-9.793472290E-2	-4.952119589E-1
2.607831520E0	1.813840866E-2	-2.494430542E-2	-3.130654693E-1
2.615929443E0	3.263196945E-1	-9.128808975E-2	1.199632138E-1
2.623852037E0	5.702176094E-1	1.196131706E-1	-2.512823045E-2
2.632121443E0	4.074783325E-1	4.310336113E-1	1.338350922E-1
2.640121597E0	1.541118622E-1	4.552183151E-1	-1.836784333E-1
2.648209712E0	-3.549528122E-2	4.040927887E-1	-2.462221831E-1
2.656289866E0	-3.679723740E-1	4.196214676E-1	-9.826034307E-3
2.664149075E0	-6.491408348E-1	3.170394897E-1	1.061603874E-1
2.672465981E0	-8.475618362E-1	2.086057663E-1	1.865966320E-1
2.680470827E0	-1.155330658E0	1.262340546E-1	-8.487203717E-2
2.688558443E0	-1.315741062E0	1.485276222E-1	-3.765774667E-1
2.696655443E0	-1.405390739E0	1.739501953E-3	-8.038924932E-1
2.704544152E0	-5.488567352E-1	1.845812798E-1	-4.622786641E-1
2.712846789E0	1.414232254E-1	1.650195122E-1	-2.663061023E-1
2.720838289E0	4.915294647E-1	-1.605815887E-1	-1.151668131E-1
2.728943789E0	4.750146866E-1	-2.573823929E-1	-1.657371670E-1
2.737043404E0	3.065152168E-1	-3.196182251E-1	-4.767853022E-1
2.744873114E0	-2.652931213E-2	-2.245731354E-1	-6.247265339E-1
2.753237442E0	-1.074361801E-1	-4.298644066E-1	-5.282521248E-1
2.761237173E0	3.677644730E-1	-5.479707718E-1	-2.495257556E-1
2.769326096E0	7.035093307E-1	-4.074316025E-1	-1.137663126E-1
2.777439135E0	5.941786766E-1	-4.180970192E-1	-4.321097434E-1
2.785418498E0	4.629144669E-1	-5.719499588E-1	-3.948581815E-1
2.793616327E0	7.137336731E-1	-7.827644348E-1	8.594283462E-2
2.801621211E0	1.013475895E0	-8.780245781E-1	2.541825473E-1
2.809710250E0	8.771328926E-1	-8.826022148E-1	2.092959881E-1
2.817809365E0	4.410986900E-1	-8.224730492E-1	2.292149961E-1
2.825698152E0	5.569391251E-1	-6.081786156E-1	1.103251874E-1
2.834004788E0	7.353920937E-1	-1.959395409E-1	1.160143912E-1
2.841998134E0	4.900774956E-1	1.781654358E-2	3.406518698E-1
2.850103711E0	5.339493752E-1	8.355283737E-2	5.163561106E-1
2.858205096E0	5.741419792E-1	2.366600037E-1	5.687726140E-1
2.866054652E0	2.293715477E-1	3.676090240E-1	5.355355740E-1
2.874397903E0	1.347332001E-1	5.334210396E-1	3.186673224E-1
2.882398096E0	4.586219788E-1	8.556413651E-1	2.135390043E-2
2.890488749E0	3.641352654E-1	1.261339188E0	3.452026844E-2
2.898570557E0	-1.207585335E-1	1.559925556E0	-8.004626632E-2
2.906526768E0	-3.510675430E-1	1.758367538E0	-2.953473330E-1
2.914748788E0	-1.125351906E0	1.733970165E0	1.172190383E-1
2.922755211E0	-1.994863033E0	1.606508732E0	-1.129720509E-1
2.930844095E0	-2.873627901E0	1.493896008E0	-2.617426217E-1
2.938943019E0	-2.929817915E0	9.060869217E-1	2.167579681E-1
2.946828152E0	-1.544716835E0	1.364986420E0	-4.712157249E-1
2.955138749E0	-3.267226458E0	9.305500984E-1	9.316825867E-2
2.963130711E0	-2.062986851E0	1.543693066E0	-7.076815367E-1
2.971235595E0	-2.882174492E0	1.595542908E0	-1.171425939E0
2.979337441E0	-1.944163322E0	1.192150593E0	-5.278654695E-1
2.987274383E0	-6.958436966E-1	6.959810257E-1	1.438694596E-1
2.995533903E0	6.917762756E-1	-9.397840500E-2	4.441302717E-1
3.003536018E0	1.793601990E0	-7.278456688E-1	7.846337557E-1
3.011627518E0	1.420044899E0	-1.014147282E0	6.433945298E-1
3.019741711E0	5.343890190E-1	-1.161398888E0	-1.235792413E-1
3.027579421E0	2.179498672E-1	-1.244869232E0	-4.426089823E-1
3.035920057E0	-6.905488968E-1	-1.311311245E0	-2.282849550E-1
3.043925249E0	1.796689034E-1	-1.510871887E0	-1.032315612E0
3.052013480E0	7.851777077E-1	-1.264864445E0	-1.202709794E0
3.060111441E0	1.522245884E0	-1.026177883E0	-7.746198177E-1
3.067967037E0	3.091673851E0	-1.101757050E0	-4.634134173E-1
3.076303095E0	3.489398003E0	-1.073205471E0	-2.986921966E-1
3.084295441E0	3.142331600E0	-8.768382072E-1	-5.124620795E-1
3.092397941E0	2.070847034E0	-4.474592209E-1	-9.544051886E-1
3.100496826E0	1.673728943E0	-6.429691315E-1	1.255061775E-1
3.108316460E0	-1.229509830E0	-1.307229996E-1	-1.514262319E0
3.116691402E0	-1.427357197E0	7.760810852E-2	-1.403179407E0
3.124691749E0	-4.880809784E-1	-1.103773117E-1	-2.535688281E-1
3.132780095E0	-3.523349762E-3	-1.950492859E-1	-1.310964227E-1
3.140860556E0	4.473924637E-2	-2.346935272E-1	6.682908535E-1
3.148683114E0	-3.049850464E-2	9.961748123E-2	4.984105229E-1
3.157034364E0	-1.718117714E0	7.115621567E-1	-2.538642883E-1
3.165038748E0	6.791377068E-1	-2.385225296E-1	5.776832104E-1
3.173126095E0	1.810549259E0	5.034775734E-1	1.381251812E-1
3.181222018E0	-1.303427219E0	1.321854591E-1	6.866773367E-1
3.189099075E0	-2.129400492E0	1.946868896E-1	1.173649549E0
3.197413056E0	-1.222067833E0	-1.483635902E-1	1.040407896E0
3.205402364E0	-1.749887943E0	-1.401152611E-1	5.204344392E-1
3.213505017E0	-2.054099798E0	-1.196970940E0	1.146907091E0
3.221600594E0	5.873155594E-2	-1.506921291E0	-2.328920364E-2
3.229445960E0	1.719393253E0	-2.090342999E0	-6.370170712E-1
3.237792094E0	5.936765671E-1	-2.075886726E0	-4.232681096E-1
3.245792056E0	5.631289482E-1	-1.511429310E0	-9.067207575E-2
3.253879363E0	7.438564301E-1	-9.725909233E-1	3.123499155E-1
3.261969037E0	8.329515457E-1	-6.828851700E-1	1.010287404E-1
3.269787190E0	2.701282501E-3	-9.998645782E-1	9.681780338E-1
3.278137383E0	1.124615669E-1	-7.916116714E-1	1.801922917E-1
3.286150306E0	2.902793884E-2	-5.593342781E-1	1.431102514E0
3.294256863E0	-6.669549942E-1	-4.429011345E-1	1.709384918E-1
3.302353786E0	-7.705750465E-1	-5.598602295E-1	3.458412886E-1
3.310341921E0	-1.070971489E-1	-2.776021957E-1	-1.828195751E-1
3.318517613E0	8.939213753E-1	-1.399579048E-1	-3.753819466E-1
3.326519113E0	6.992535591E-1	-1.382665634E-1	9.515029192E-2
3.334636555E0	9.701523781E-1	3.555965424E-2	3.138428926E-2
3.342734940E0	1.167701244E0	7.926950455E-1	2.267629504E-1
3.350529036E0	1.795697212E-1	1.226475716E0	7.310984731E-1
3.358926902E0	1.348901272E0	1.601914406E0	4.834764600E-1
3.366901960E0	4.076505184E0	2.921070099E0	-1.592828631E-1
3.375015555E0	4.920930386E0	4.654511452E0	-2.787351608E-3
3.383074152E0	3.668031216E0	3.864232063E0	1.810481429E0
3.390894344E0	-4.886045456E0	2.698861122E0	1.772836208E0
3.399264421E0	-4.188910484E0	1.342527390E0	1.070360661E0
3.407271267E0	-2.659929514E0	-1.960420609E-1	4.831421375E-2
3.415367517E0	-6.330304146E-1	-1.369175434E0	-5.614423752E-1
3.423465632E0	-9.683198929E-1	-1.813235283E0	1.673827469E-1
3.431351190E0	-1.141319752E0	-2.051989079E0	9.932584763E-1
3.439660209E0	-1.288082600E0	-1.923917294E0	1.479668498E0
3.447651017E0	-1.577012062E0	-1.702024937E0	1.551524282E0
3.455755017E0	-1.251808643E0	-1.698045254E0	1.259603620E0
3.463853632E0	-1.588188171E0	-1.496984005E0	8.947941065E-1
3.471821383E0	-1.319931030E0	-1.396373272E0	5.117865801E-1
3.480045670E0	-1.523815632E0	-1.043932915E0	1.578686237E-1
3.488045016E0	-1.873132229E0	-3.859286308E-1	6.102979183E-1
3.496133363E0	-2.254702091E0	-2.415370941E-2	3.938950002E-1
3.504245439E0	-2.583715916E0	3.589510918E-1	2.676940560E-1
3.512111536E0	-2.441884518E0	3.693208694E-1	-6.631225348E-2
3.520424670E0	-8.332848549E-1	1.009469032E-1	-1.412183881E0
3.528431862E0	-1.470351219E-1	-7.792091370E-2	-2.755694151E0
3.536520939E0	-2.285284042E0	8.819952011E-1	-7.956961393E-1
3.544619478E0	-2.635268211E0	9.676604271E-1	-5.447473526E-1
3.552488729E0	-1.054844856E0	1.081249237E0	-1.256212354E0
3.568807555E0	-2.082519531E-1	1.409090042E0	-8.170446157E-1
3.576911862E0	1.657298565E0	7.693066597E-1	-2.767590284E-1
3.585009362E0	3.402824879E0	2.290530205E-1	1.595292538E-1
3.592901652E0	4.291310787E0	-2.423920631E-1	4.205052257E-1
3.601202401E0	3.938745499E0	-5.285387039E-1	5.397670269E-1
3.609201401E0	2.937618256E0	-5.923962593E-1	4.919925928E-1
3.617290747E0	1.950589180E0	-5.565958023E-1	3.275247216E-1
3.625372054E0	1.472552776E0	-8.891716003E-1	3.353713453E-1
3.633251190E0	1.512850761E0	-1.485631466E0	4.554701447E-1
3.641547054E0	1.911324978E0	-2.066697598E0	4.059779048E-1
3.649551900E0	2.162521362E0	-2.433608055E0	1.719754189E-1
3.657640093E0	1.697664738E0	-2.404911995E0	-7.006573677E-2
3.665738247E0	9.168357849E-1	-1.917316914E0	-2.806760073E-1
3.673734382E0	2.799320221E-1	-1.311775684E0	-5.820598006E-1
3.681932785E0	-4.515552521E-2	-9.081220627E-1	-8.427005410E-1
3.689924093E0	-2.453012466E-1	-5.309247971E-1	-1.047346234E0
3.698028246E0	-3.268990517E-1	-1.911587715E-1	-1.277711272E0
3.706126439E0	-5.691685677E-1	8.560609818E-2	-1.433510065E0
3.713964267E0	-7.485618591E-1	3.170475960E-1	-1.514705062E0
3.722321708E0	-6.064553261E-1	7.204432487E-1	-1.460477114E0
3.730322708E0	-5.233297348E-1	1.228395939E0	-1.493960977E0
3.738412631E0	-7.731866837E-2	1.574731350E0	-1.478344440E0
3.746526285E0	-1.325209618E0	1.788267612E0	-1.069373369E0
3.754441652E0	-1.876214504E0	1.977859497E0	-7.367200851E-1
3.762703669E0	-1.494639874E0	1.929525375E0	-2.265145779E-1
3.770709900E0	-1.416960716E0	1.742728233E0	-7.952909917E-2
3.778798900E0	-1.283416271E0	1.386094093E0	-3.677823842E-1
3.786896438E0	-1.237067223E0	8.927226067E-1	2.430560142E-1
3.794767228E0	-1.521121502E0	5.780196190E-1	6.728911400E-1
3.803088131E0	-1.475016117E0	3.300776482E-1	8.594683409E-1
3.811078361E0	-1.235020638E0	2.020688057E-1	9.570692182E-1
3.819181131E0	-8.880434036E-1	1.536812782E-1	1.087530613E0
3.827278515E0	-2.928328514E-1	1.073923111E-1	1.166221619E0
3.835230382E0	2.536487579E-1	1.536288261E-1	1.236922264E0
3.843468515E0	5.253148079E-1	2.284302711E-1	1.263332009E0
3.851468553E0	8.789229393E-1	2.840824127E-1	1.275224924E0
3.859556823E0	9.037690163E-1	4.135103226E-1	1.147141933E0
3.867636284E0	8.705487251E-1	5.069713593E-1	1.049535871E0
3.875618882E0	8.052601814E-1	4.072237015E-1	7.144510746E-1
3.883816438E0	6.450295448E-1	4.957957268E-1	5.663614273E-1
3.891822399E0	3.067917824E-1	4.609003067E-1	2.748934627E-1
3.899910053E0	5.862054825E-1	1.819281578E-1	-6.837982684E-2
3.908010246E0	3.346910477E-1	1.256790161E-1	-1.842493713E-1
3.915896382E0	6.367902756E-1	-8.363485336E-2	-3.960278034E-1
3.924203553E0	6.309423447E-1	1.574544907E-1	-6.446000934E-1
3.932195130E0	8.208694458E-1	3.997626305E-1	-1.789315581E0
3.940298322E0	-2.685785294E-2	6.842064857E-1	-6.328840852E-1
3.948397092E0	-6.422724724E-1	8.633546829E-1	4.147757590E-1
3.956344190E0	-1.610784531E-1	2.563614845E-1	8.121746182E-1
3.972588361E0	-7.237138748E-1	-4.157052040E-1	4.157395363E-1
3.980675553E0	-5.896029472E-1	-4.804754257E-1	-6.578639150E-2
3.988787745E0	-1.547193527E-2	-5.373539925E-1	-7.860203981E-1
3.996637536E0	9.617805481E-2	-3.739252090E-1	-1.402756810E0
4.004964322E0	1.307201385E-2	-2.898788452E-1	-1.821304321E0
4.012970553E0	2.439327240E-1	-2.973022461E-1	-1.990767479E0
4.021059514E0	5.026497841E-1	-3.672204018E-1	-1.764825106E0
4.029155976E0	7.298774719E-1	-5.483479500E-1	-1.388735294E0
4.037059651E0	7.537989616E-1	-5.057559013E-1	-1.085140467E0
4.045345322E0	6.568627357E-1	-4.491081238E-1	-1.089009762E0
4.053334514E0	7.428255081E-1	-5.301985741E-1	-1.119330049E0
4.061435899E0	5.010571480E-1	-5.665469170E-1	-9.168107510E-1
4.069528921E0	1.137833595E-1	-4.477891922E-1	-8.585731983E-1
4.077376613E0	-1.388783455E-1	-1.926317215E-1	-1.040782928E0
4.085721437E0	-2.721691132E-1	2.714633942E-2	-1.241179705E0
4.093720629E0	-4.715757370E-1	3.091278076E-1	-1.408257365E0
4.101807283E0	-4.804415703E-1	4.492311478E-1	-1.535165071E0
4.110019014E0	-5.061159134E-1	5.687494278E-1	-1.622259140E0
4.117749382E0	-6.030974388E-1	6.743278503E-1	-1.763530731E0
4.126084629E0	-1.094721317E0	8.739004135E-1	-1.804797530E0
4.134091937E0	-1.233239651E0	1.190217018E0	-1.749492764E0
4.142180052E0	-1.570898056E0	1.601055145E0	-1.679154634E0
4.150277091E0	-1.937459469E0	2.091642857E0	-1.429614067E0
4.158137536E0	-2.530429840E0	2.447732449E0	-1.172475100E0
4.166468360E0	-3.085412502E0	2.700271130E0	-8.315120935E-1
4.174458514E0	-3.313957453E0	2.866043568E0	-3.252625465E-1
4.182561514E0	-3.288714170E0	2.787764549E0	3.294531107E-1
4.190658129E0	-3.330531836E0	2.691303730E0	1.049397945E0
4.198512613E0	-2.872623682E0	2.539368153E0	1.850850821E0
4.206823690E0	-2.395529270E0	2.400747299E0	2.500896931E0
4.214848514E0	-1.953218460E0	2.202378273E0	2.579611778E0
4.222937398E0	-2.112854481E0	1.976385117E0	2.759379864E0
4.231050591E0	-2.146025658E0	1.553837299E0	2.933679342E0
4.238863305E0	-1.149103642E0	8.703079224E-1	3.071996689E0
4.247226898E0	-1.079015732E-1	2.381486893E-1	3.716735125E0
4.255231398E0	5.365099907E-1	-1.620244980E-2	4.029123306E0
4.263319475E0	1.139607906E0	7.002954483E-1	4.931979656E0
4.271419590E0	7.820696831E-1	1.783854961E0	6.503044605E0
4.279265382E0	8.267478943E-1	2.976018906E0	7.612938404E0
4.287610052E0	1.702034473E0	3.370757580E0	7.584723473E0
4.295601283E0	3.528148174E0	2.696834564E0	7.211175919E0
4.303704859E0	3.191803455E0	1.439439774E0	6.778626919E0
4.311791036E0	2.608259678E0	3.819894791E-1	5.339851379E0
4.319651767E0	1.904956818E0	-4.421262741E-1	3.922350883E0
4.327999282E0	1.445465565E0	-1.137094975E0	2.821984768E0
4.336001090E0	1.510455132E0	-1.756099701E0	2.383585215E0
4.344090282E0	1.401233196E0	-2.059838772E0	2.620225668E0
4.352171436E0	6.840624809E-1	-2.091371059E0	3.776110172E0
4.360020690E0	9.300937653E-1	-2.570055962E0	4.653422356E0
4.368349321E0	8.547277451E-1	-3.165031910E0	4.980393410E0
4.376353744E0	1.019475937E0	-3.733251572E0	4.312608719E0
4.384439128E0	5.889444351E-1	-3.978778124E0	3.600224018E0
4.392534282E0	2.105998993E-2	-3.963488817E0	2.881838799E0
4.400393382E0	-9.034538269E-2	-3.867016792E0	2.245147705E0
4.408722705E0	3.626399040E-1	-3.956992149E0	1.838121176E0
4.416712667E0	4.511713982E-1	-3.814459085E0	1.645261168E0
4.424816397E0	5.610704422E-1	-3.534311771E0	1.258501410E0
4.432916744E0	7.202816010E-1	-3.492447376E0	1.249662757E0
4.440783459E0	7.028484344E-1	-3.509576797E0	1.421694875E0
4.449104436E0	5.895185471E-1	-3.470208168E0	1.523424149E0
4.457102282E0	6.059165001E-1	-3.458023548E0	1.469877124E0
4.465188205E0	5.364975929E-1	-3.475036621E0	1.441527009E0
4.473298936E0	4.517574310E-1	-3.438472271E0	1.181892395E0
4.481209997E0	2.065443993E-1	-3.290856838E0	9.714858532E-1
4.489469320E0	6.059455872E-2	-3.190966606E0	8.856099844E-1
4.497472897E0	-2.378225327E-2	-2.878163815E0	8.226852417E-1
4.505559128E0	-1.317825317E-1	-2.453931808E0	6.203267574E-1
4.513655628E0	-1.612925529E-1	-2.056691647E0	4.092279673E-1
4.521529728E0	-3.228068352E-1	-1.756158352E0	4.654684067E-1
4.529829766E0	-6.955776215E-1	-1.509138107E0	6.318361759E-1
4.537818766E0	-9.669733047E-1	-1.219046116E0	7.269452810E-1
4.545943243E0	-1.086313248E0	-6.879987717E-1	3.159170151E-1
4.554031205E0	-1.177727699E0	-2.627248764E-1	-1.638284922E-1
4.561873420E0	-1.541217804E0	-1.384353638E-2	-5.425193906E-1
4.570199536E0	-2.211042404E0	2.629661560E-1	-7.890548706E-1
4.578220205E0	-2.774852753E0	5.433011055E-1	-8.257473707E-1
4.586306089E0	-3.118954897E0	7.875928879E-1	-7.574722767E-1
4.594381689E0	-3.447544336E0	1.039268970E0	-3.269304037E-1
4.602205536E0	-3.466113329E0	1.186614513E0	2.391311526E-1
4.610540805E0	-3.192595482E0	1.407641411E0	8.218579888E-1
4.618556012E0	-3.058316946E0	1.634519100E0	1.291313767E0
4.626642435E0	-3.023595572E0	1.867928982E0	1.517331123E0
4.634736974E0	-2.977080584E0	2.050985813E0	1.628357887E0
4.642566305E0	-2.854638100E0	2.065928459E0	1.555394650E0
4.650920151E0	-2.618082047E0	2.009518147E0	1.429819822E0
4.658910627E0	-2.374041319E0	1.741606712E0	1.119955420E0
4.667011935E0	-2.180794477E0	1.574550629E0	8.151055574E-1
4.675107805E0	-1.843245506E0	1.348383904E0	6.795266271E-1
4.682926112E0	-1.537615299E0	1.067778587E0	5.791159868E-1
4.691293666E0	-1.417531013E0	6.872262955E-1	1.593286842E-1
4.699290319E0	-1.541692257E0	4.546623230E-1	-5.065051913E-1
4.707377512E0	-1.779393196E0	3.363971710E-1	-1.060427547E0
4.715486512E0	-1.886521101E0	1.877880096E-1	-1.485250950E0
4.723318112E0	-1.851808786E0	1.933765411E-2	-1.730329752E0
4.739674920E0	-1.661442280E0	-1.465516090E-1	-1.740184307E0
4.747766281E0	-1.643566132E0	2.287864685E-3	-1.650647759E0
4.755861742E0	-1.247663498E0	2.829713821E-1	-1.870521426E0
4.763721997E0	-9.148416519E-1	8.030395508E-1	-1.790129781E0
4.772049088E0	-7.301077843E-1	1.646212578E0	-1.423450947E0
4.780032420E0	-6.652016640E-1	2.820174217E0	-8.139916658E-1
4.788148204E0	-3.874139786E-1	3.867068291E0	2.982535362E-1
4.796235742E0	2.110009193E-1	4.829035759E0	1.741293669E0
4.804086305E0	8.618388176E-1	5.376029968E0	2.652471066E0
4.812420319E0	9.330458641E-1	5.460962296E0	3.031972408E0
4.820417819E0	7.826175690E-1	4.277708054E0	2.907994747E0
4.828505857E0	4.494633675E-1	2.627163887E0	2.486998558E0
4.836585281E0	4.025135040E-1	1.044092178E0	2.140499353E0
4.844400882E0	7.235064507E-1	-2.469730377E-2	2.096932411E0
4.852757165E0	1.499557018E0	-4.306821823E-1	3.076768875E0
4.860760934E0	2.978173733E0	2.252101898E-1	4.740056515E0
4.868848934E0	4.426684856E0	1.975974083E0	5.357448578E0
4.876946550E0	5.457292080E0	2.917646408E0	4.206425667E0
4.884791997E0	6.530481815E0	3.359157562E0	1.581010103E0
4.893135665E0	6.469069481E0	2.804144859E0	-5.064835548E-1
4.901125242E0	5.468271732E0	1.834973335E0	-6.573649645E-1
4.909228088E0	4.030696392E0	-2.706170082E-1	1.282680035E-2
4.917325819E0	2.728177547E0	-1.830137253E0	7.471365333E-1
4.925161920E0	2.236515999E0	-2.872743130E0	1.414592147E0
4.933515857E0	2.073090076E0	-3.555701733E0	1.420989037E0
4.941513780E0	1.695194244E0	-4.101302147E0	1.330624342E0
4.949600549E0	1.329751968E0	-4.495689392E0	1.336373091E0
4.957712203E0	1.115480423E0	-4.793617725E0	1.516701698E0
4.965548189E0	1.067679405E0	-4.853703499E0	1.551659584E0
4.973887088E0	1.213211060E0	-4.729421616E0	1.601586580E0
4.981892241E0	1.457637787E0	-4.475531101E0	1.804441333E0
4.989980126E0	1.715419769E0	-4.192092896E0	1.811985731E0
4.998077472E0	1.926759720E0	-3.955001354E0	1.513463378E0
5.005920305E0	2.074238777E0	-3.642436981E0	1.049688578E0
5.014264626E0	1.830292225E0	-2.894680023E0	5.127636194E-1
5.022255164E0	1.816873550E0	-2.264851093E0	3.299930096E-1
5.030357318E0	1.990838051E0	-1.697979450E0	3.331423998E-1
5.038453126E0	2.034183979E0	-1.127748489E0	3.854442835E-1
5.046270920E0	1.793843269E0	-5.734734535E-1	4.004875422E-1
5.054642087E0	1.647375107E0	-8.963251114E-2	5.630961657E-1
5.062641857E0	1.271625519E0	4.701247215E-1	8.401222825E-1
5.070728357E0	7.408094406E-1	9.074358940E-1	1.164413810E0
5.078806703E0	1.983375549E-1	1.261381626E0	1.391333938E0
5.086636997E0	-2.470493317E-1	1.507676601E0	1.662764311E0
5.094976933E0	-7.246856689E-1	1.573980331E0	1.703494430E0
5.102978741E0	-1.084247589E0	1.459380627E0	1.550029993E0
5.111063203E0	-1.221086502E0	1.135263920E0	1.227184415E0
5.119157356E0	-1.039499760E0	7.057590485E-1	7.935814261E-1
5.126996843E0	-8.294663429E-1	3.366827965E-1	4.217430651E-1
5.135342318E0	-8.083748817E-1	1.570372581E-1	3.141588569E-1
5.143331087E0	-9.381580353E-1	9.919500351E-2	3.362672329E-1
5.151411625E0	-1.087376118E0	1.869964600E-1	4.640536904E-1
5.159506625E0	-1.147911549E0	2.839865685E-1	5.074135065E-1
5.167378343E0	-1.158971310E0	3.643937111E-1	4.084352553E-1
5.175696048E0	-1.132231712E0	4.067025185E-1	2.276157439E-1
5.183695010E0	-1.060703278E0	4.487481117E-1	-6.168051064E-2
5.191782664E0	-9.410943985E-1	4.177441597E-1	-4.398533106E-1
5.199895048E0	-8.031444550E-1	3.358445168E-1	-7.891998291E-1
5.207783227E0	-5.653738976E-1	7.535743713E-2	-1.053118467E0
5.216069818E0	-3.717827797E-1	-1.211814880E-1	-1.255101681E0
5.224073510E0	-2.161421776E-1	-3.495397568E-1	-1.336411715E0
5.232160587E0	-5.662441254E-2	-5.699052811E-1	-1.329893112E0
5.240256548E0	1.067128181E-1	-8.086004257E-1	-1.240664721E0
5.248067689E0	2.141289711E-1	-9.292631149E-1	-1.078260541E0
5.256438535E0	2.593836784E-1	-1.033135891E0	-8.705436587E-1
5.264434202E0	3.741588593E-1	-1.062746048E0	-5.336346030E-1
5.272536433E0	5.017218590E-1	-1.085657597E0	-1.748766750E-1
5.280633625E0	5.017366409E-1	-1.100845814E0	2.165934145E-1
5.288452458E0	5.043592453E-1	-1.034736156E0	4.920189679E-1
5.296825086E0	4.332385063E-1	-9.624762535E-1	6.933084130E-1
5.304824163E0	5.287966728E-1	-8.519587517E-1	7.357715964E-1
5.312911702E0	6.855912209E-1	-7.157988548E-1	6.385562420E-1
5.320991240E0	8.203034401E-1	-5.334777832E-1	5.225988030E-1
5.328816227E0	5.467877388E-1	-2.678675652E-1	4.593599737E-1
5.337166702E0	-6.801986694E-2	-7.858371735E-2	2.345803380E-2
5.345170279E0	-5.972595215E-1	-1.021289825E-2	-3.376367986E-1
5.353257663E0	-1.020509243E0	5.687713623E-3	-5.835866928E-1
5.361352650E0	-1.416431904E0	-2.338123322E-2	-7.404951453E-1
5.369188343E0	-1.759522438E0	-7.751083374E-2	-8.243646622E-1
5.377535689E0	-1.905025721E0	-1.517925262E-1	-6.727011204E-1
5.385531778E0	-1.844691038E0	-2.338695526E-1	-3.847480714E-1
5.393634932E0	-1.643188477E0	-2.587618828E-1	-3.800795227E-2
5.401730304E0	-1.379389286E0	-1.585254669E-1	3.687924147E-1
5.409585420E0	-1.105064392E0	3.107452393E-2	7.797609568E-1
5.417920009E0	-1.004282951E0	2.873096466E-1	1.022775292E0
5.425919163E0	-1.071936607E0	4.230098724E-1	9.706489444E-1
5.434006817E0	-1.201295376E0	4.753389359E-1	7.694616318E-1
5.442118547E0	-1.214424610E0	3.758506775E-1	4.973819554E-1
5.449968381E0	-1.278089523E0	3.776931763E-2	3.367798924E-1
5.458294458E0	-1.253083229E0	-5.333747864E-1	4.721095860E-1
5.466298240E0	-1.430024624E0	-1.352161407E0	1.034824729E0
5.474385317E0	-1.312191486E0	-2.102859497E0	1.689160109E0
5.482482740E0	-1.209956646E0	-2.656238079E0	2.269035339E0
5.490323881E0	-8.867130280E-1	-2.902482033E0	2.687946081E0
5.498672316E0	-5.524320602E-1	-2.859277725E0	2.885739565E0
5.506638996E0	-3.160991669E-1	-2.601539612E0	2.807486057E0
5.514766586E0	-1.694965363E-1	-2.346050262E0	2.658629417E0
5.522863509E0	-6.792974472E-2	-2.292718410E0	2.451779366E0
5.530707458E0	-1.337862015E-1	-2.449692249E0	2.173335075E0
5.539055547E0	-5.718803406E-2	-2.690907955E0	1.762044311E0
5.547055432E0	2.960319519E-1	-2.725036621E0	1.395735383E0
5.555143355E0	4.002308846E-1	-2.518777847E0	1.081750154E0
5.563222701E0	1.155583858E0	-2.186966419E0	1.360146284E0
5.571051573E0	1.493578911E0	-2.138861656E0	1.854525208E0
5.579396701E0	1.207749844E0	-2.421661377E0	2.540879488E0
5.587400047E0	8.078289032E-1	-2.800667286E0	2.787279129E0
5.595486624E0	2.652297020E-1	-3.193419933E0	2.534434319E0
5.603581739E0	-3.196840286E-1	-3.551175356E0	1.997156382E0
5.611492535E0	-6.323409081E-1	-3.902657509E0	1.333228707E0
5.619767854E0	-7.950029373E-1	-4.154761314E0	8.658863306E-1
5.627755162E0	-7.180991173E-1	-4.152239799E0	6.733887196E-1
5.635857816E0	-4.870228767E-1	-3.998769999E0	5.172168016E-1
5.643953893E0	-1.125416756E-1	-3.889425516E0	5.627739429E-1
5.651869650E0	3.748912811E-1	-3.853780985E0	6.820542812E-1
5.660141393E0	9.679994583E-1	-3.649360418E0	1.054478884E0
5.668137816E0	1.662743092E0	-3.596083879E0	1.419589281E0
5.676223393E0	1.989946365E0	-3.646430016E0	1.978965998E0
5.684335047E0	1.823719978E0	-3.554198742E0	2.391945362E0
5.692155689E0	1.452128410E0	-3.425927162E0	2.565296888E0
5.700504777E0	1.104527950E0	-3.132027388E0	2.404664278E0
5.708505046E0	7.856125832E-1	-2.773083687E0	1.791310787E0
5.716590085E0	4.851078987E-1	-2.429772139E0	9.557294846E-1
5.724684469E0	9.375858307E-2	-2.277793646E0	1.418564320E-1
5.732529189E0	-3.251476288E-1	-2.340288401E0	-5.463492870E-1
5.740863919E0	-8.581490517E-1	-2.455578804E0	-1.115875244E0
5.748846342E0	-1.202147484E0	-2.610787153E0	-1.483080387E0
5.756954623E0	-1.508392811E0	-2.769499302E0	-1.780294538E0
5.765045535E0	-1.672785759E0	-3.003175020E0	-1.881492496E0
5.772853842E0	-1.652909279E0	-3.232414246E0	-1.721964121E0
5.781215650E0	-1.522853374E0	-3.341336012E0	-1.442759514E0
5.789223546E0	-1.399910927E0	-3.402314425E0	-1.002161503E0
5.797310277E0	-1.345223904E0	-3.387581348E0	-6.361379623E-1
5.805388931E0	-1.298975468E0	-3.264879227E0	-2.919092178E-1
5.813227996E0	-1.388021946E0	-2.846923590E0	-2.147974968E-1
5.821565661E0	-1.383922100E0	-2.396319151E0	-6.741857529E-2
5.829568084E0	-1.507379532E0	-1.606072426E0	5.322170258E-2
5.837654892E0	-1.471796513E0	-7.873601913E-1	2.768683434E-1
5.845751892E0	-1.270919323E0	-1.397523880E-1	7.353210449E-1
5.853624112E0	-1.058595657E0	3.933405876E-1	1.200878143E0
5.861942315E0	-7.782483101E-1	1.055023193E0	1.455819607E0
5.869931238E0	-5.457901955E-1	1.481475830E0	1.223012924E0
5.878032469E0	-5.735354424E-1	1.788728714E0	7.306742668E-1
5.886127315E0	-7.783336639E-1	1.729683876E0	-9.822368622E-3
5.893947919E0	-1.081445694E0	1.386499405E0	-5.009365082E-1
5.902315815E0	-1.221873760E0	9.837346077E-1	-5.455069542E-1
5.910326853E0	-8.001828194E-1	5.596292019E-1	-2.157573700E-1
5.918412469E0	-1.270594597E-1	2.109146118E-1	2.994184494E-1
5.926522161E0	5.786032677E-1	-1.828291416E-1	7.723469734E-1
5.934363765E0	1.171978474E0	-4.990868568E-1	1.027194023E0
5.942693353E0	1.687066078E0	-7.220575809E-1	1.120823860E0
5.950692381E0	2.008420467E0	-8.072745800E-1	1.237613201E0
5.958778507E0	2.192727566E0	-8.180208206E-1	1.457729340E0
5.966872969E0	2.420840263E0	-8.208134174E-1	1.584906101E0
5.974754996E0	2.736583710E0	-9.273312092E-1	1.734967709E0
5.983057699E0	2.976811409E0	-1.203778744E0	1.876598358E0
5.991042045E0	2.877172470E0	-1.411734939E0	2.018147469E0
5.999142584E0	2.475437164E0	-1.560131669E0	2.059592724E0
6.007239007E0	2.072674751E0	-1.639957905E0	2.161697388E0
6.015116804E0	1.581291199E0	-1.688280463E0	2.071043491E0
6.023428276E0	1.002100945E0	-1.759442091E0	1.747580051E0
6.031426853E0	4.628858566E-1	-1.788411975E0	1.315422058E0
6.039514737E0	1.729931831E-1	-1.688724518E0	9.896264076E-1
6.047595699E0	-5.032253265E-2	-1.450119138E0	6.419816017E-1
6.055469342E0	-5.168533325E-2	-1.279484510E0	4.314160347E-1
6.063771622E0	-2.889251709E-2	-1.123000026E0	1.109123230E-1
6.071774160E0	2.250819206E-1	-1.151935339E0	3.916196823E-1
6.079860853E0	3.835921288E-1	-1.183909059E0	5.351114273E-1
6.087956891E0	4.677543640E-1	-1.232750535E0	6.786155701E-1
6.095855419E0	6.038408279E-1	-1.464690447E0	1.070443153E0
6.104147006E0	4.868612289E-1	-1.611947536E0	1.183167458E0
6.112133727E0	3.572955132E-1	-1.941599369E0	1.434199333E0
6.120239929E0	6.239652634E-2	-2.097464561E0	1.526755810E0
6.128336429E0	5.309009552E-2	-2.468632698E0	1.937104225E0
6.136163496E0	1.032276154E-1	-2.639024734E0	2.163112640E0
6.144474852E0	4.338274002E-1	-2.756917953E0	2.585013866E0
6.152475352E0	6.743535995E-1	-2.650866508E0	2.850209236E0
6.160563199E0	1.152419090E0	-2.515607834E0	3.542480946E0
6.168675314E0	1.586441994E0	-2.240018845E0	3.904982090E0
6.176645150E0	2.187253952E0	-2.013221741E0	4.255496025E0
6.182848583E0	2.557004929E0	-1.714521408E0	4.502714634E0
6.184849929E0	2.705445290E0	-1.563686728E0	4.567357540E0
6.192854160E0	3.573546410E0	-1.073822498E0	4.739167690E0
6.200942083E0	4.402980804E0	-5.285646915E-1	4.610052586E0
6.216895727E0	6.033222198E0	1.628136635E-2	3.033726692E0
6.225230891E0	6.535174370E0	-5.637288094E-2	2.035326481E0
6.233220775E0	6.475919724E0	-2.500615120E-1	1.073095798E0
6.241323467E0	6.050594330E0	-4.866502285E-1	2.660565376E-1
6.249418275E0	5.272117615E0	-7.126579285E-1	-2.696490288E-1
6.257224342E0	4.348698139E0	-9.044091702E-1	-6.309447289E-1
6.265606044E0	3.078493118E0	-1.019795179E0	-8.704209328E-1
6.273604313E0	2.041085243E0	-1.056999445E0	-9.320635796E-1
6.281690813E0	1.051750183E0	-1.138526917E0	-1.005904198E0
6.289770852E0	2.860202789E-1	-1.128012657E0	-1.103269815E0
6.297791573E0	-2.376227379E-1	-1.019777298E0	-1.116448641E0
6.305946621E0	-5.970072746E-1	-8.040337563E-1	-1.074480295E0
6.313950236E0	-8.800344467E-1	-4.688398838E-1	-9.284889698E-1
6.322037236E0	-1.171594620E0	-5.678272247E-2	-7.667965889E-1
6.330133852E0	-1.476838589E0	4.215912819E-1	-6.143231392E-1
6.337961496E0	-1.699494362E0	6.946239471E-1	-5.554628372E-1
6.346323467E0	-1.887039185E0	8.834795952E-1	-5.380623341E-1
6.354313852E0	-2.138884068E0	1.120910645E0	-4.458658695E-1
6.362417082E0	-2.447785378E0	1.338544369E0	-5.504825115E-1
6.370514582E0	-2.551754475E0	1.619978905E0	-7.925083637E-1
6.378357457E0	-2.585327148E0	1.935640812E0	-1.047493458E0
6.386704227E0	-2.582829475E0	2.119003773E0	-1.355064869E0
6.394703736E0	-2.464929581E0	2.097982407E0	-1.580910444E0
6.402792351E0	-2.316848755E0	1.982590199E0	-1.729199648E0
6.410898996E0	-2.011008263E0	1.860562801E0	-1.801694632E0
6.418722765E0	-1.625662804E0	1.984269142E0	-1.811691284E0
6.427081621E0	-1.111434937E0	2.363816738E0	-1.557975411E0
6.435078188E0	-5.737571716E-1	2.862554073E0	-1.216575146E0
6.443172659E0	-2.336311340E-2	3.835121632E0	-3.705565929E-1
6.451268890E0	8.240847588E-1	5.883694172E0	7.264904976E-1
6.459138573E0	1.224141121E0	8.705392838E0	4.441867828E0
6.467459774E0	1.479927540E0	6.823649406E0	5.188641548E0
6.475450120E0	1.221628189E0	4.664592266E0	1.693407297E0
6.483551043E0	1.772172928E0	3.278332233E0	-9.230837822E-1
6.491648428E0	2.247240067E0	2.505239487E0	-2.734885216E0
6.499486342E0	2.224359512E0	2.217942238E0	-3.705471754E0
6.507831765E0	1.999867439E0	2.115659237E0	-4.261327744E0
6.515829419E0	1.395256996E0	1.673055649E0	-4.527077198E0
6.523928120E0	4.078068733E-1	1.281369686E0	-4.432560921E0
6.532000265E0	-1.059076786E0	9.266300201E-1	-4.004439831E0
6.539821842E0	-2.712466240E0	6.889748573E-1	-3.177736521E0
6.548183236E0	-3.880392790E0	5.928969383E-1	-2.204482079E0
6.556186005E0	-4.614226818E0	7.186040878E-1	-9.985240698E-1
6.564273082E0	-4.796785831E0	9.267301559E-1	3.622963428E-1
6.572369005E0	-4.394433975E0	1.087415218E0	1.397391558E0
6.580201534E0	-3.391133308E0	9.748978615E-1	1.715147257E0
6.588559274E0	-2.690884829E0	5.122041702E-1	1.464529037E0
6.596549620E0	-6.383786201E-1	5.444545746E-1	7.975916862E-1
6.604652351E0	2.276167870E-1	4.730148315E-1	1.068997383E-1
6.612750235E0	1.159794331E0	5.760569572E-1	-4.915657043E-1
6.620596957E0	2.074457645E0	7.091298103E-1	-9.982099533E-1
6.628940226E0	2.381186008E0	7.301769257E-1	-1.323012590E0
6.636942966E0	2.355984688E0	5.979008675E-1	-1.300499678E0
6.645031004E0	2.568184376E0	2.299985886E-1	-1.145922422E0
6.653143735E0	2.479189396E0	-4.623556137E-1	-8.630474210E-1
6.660978726E0	2.567016125E0	-1.221590042E0	-6.593372226E-1
6.669320658E0	2.691545010E0	-1.807634830E0	-4.153884649E-1
6.677326735E0	2.943671703E0	-2.182477951E0	-1.223170757E-1
6.685413927E0	3.059495449E0	-2.295363426E0	2.121264935E-1
6.693509581E0	3.132336617E0	-2.188887596E0	5.705605745E-1
6.701358380E0	3.078022003E0	-1.804848671E0	8.072463274E-1
6.709700850E0	2.735274792E0	-1.142058849E0	9.222881794E-1
6.717690812E0	2.092261791E0	-6.629576683E-1	9.342253208E-1
6.725793812E0	1.349417210E0	-3.872308731E-1	8.516196012E-1
6.733891466E0	7.463154793E-1	-3.526234627E-1	6.766171455E-1
6.741708149E0	1.957507133E-1	-4.033293724E-1	3.755353689E-1
6.750083042E0	-3.492841721E-1	-4.801731110E-1	-5.364656448E-2
6.758083427E0	-7.241425514E-1	-5.255327225E-1	-5.115560293E-1
6.766172542E0	-1.118165016E0	-3.450355530E-1	-9.473878741E-1
6.774253004E0	-1.476449013E0	-1.272993088E-1	-1.324649692E0
6.782103803E0	-1.619245529E0	2.507543564E-2	-1.511916757E0
6.790426081E0	-1.652459145E0	2.449622154E-1	-1.585756779E0
6.798430081E0	-1.616487503E0	3.487219810E-1	-1.463547230E0
6.806516581E0	-1.493078232E0	3.936271667E-1	-1.282066345E0
6.814616004E0	-1.248016834E0	4.382605553E-1	-1.104783177E0
6.822620842E0	-1.051622868E0	4.878673553E-1	-9.065881968E-1
6.830804811E0	-1.038960457E0	5.832319260E-1	-7.285895944E-1
6.838792311E0	-1.072712898E0	7.125654221E-1	-5.782336593E-1
6.846893965E0	-1.173805237E0	8.764905930E-1	-4.577642083E-1
6.854990965E0	-1.282266617E0	9.438886642E-1	-3.111421466E-1
6.862822803E0	-1.394380569E0	8.885154724E-1	-5.416882038E-2
6.871181157E0	-1.482656002E0	7.676954269E-1	3.050924540E-1
6.879178888E0	-1.567198753E0	5.820713043E-1	7.276017666E-1
6.887266157E0	-1.761350393E0	3.781232834E-1	1.122393012E0
6.895377311E0	-2.134617090E0	2.094717026E-1	1.439112306E0
6.903257534E0	-2.499529123E0	1.810836792E-2	1.622473359E0
6.911554580E0	-2.749859333E0	-1.611175537E-1	1.684289932E0
6.919560157E0	-2.691320419E0	-3.009238243E-1	1.546109438E0
6.927648080E0	-2.339211702E0	-3.858437538E-1	1.278859138E0
6.935743696E0	-1.773248672E0	-4.763398170E-1	9.080301523E-1
6.943613572E0	-1.194959164E0	-5.231094360E-1	5.304173231E-1
6.951929965E0	-6.094365120E-1	-5.533442497E-1	2.472580671E-1
6.959918734E0	-7.648992538E-2	-6.228141785E-1	2.829372883E-2
6.968018349E0	4.186401367E-1	-6.122975349E-1	-1.340688467E-1
6.976113695E0	7.951936722E-1	-5.456314087E-1	-2.348860502E-1
6.983934457E0	1.105025291E0	-4.881329536E-1	-2.780389190E-1
6.992289072E0	1.458405495E0	-3.679542542E-1	-3.355243504E-1
7.000279072E0	1.933570385E0	-2.201986313E-1	-4.176327288E-1
7.008375772E0	1.934256077E0	-1.343746185E-1	-5.517752171E-1
7.016453157E0	2.998360634E0	3.169345856E-2	-4.836561978E-1
7.024361688E0	3.507960320E0	-1.019477844E-2	-4.584825933E-1
7.032624003E0	4.193209648E0	-1.458482742E-1	-1.812596917E-1
7.040619803E0	4.130471706E0	-4.046115875E-1	8.078974485E-2
7.048711157E0	4.258794785E0	-6.816496849E-1	4.401672482E-1
7.056808195E0	4.037077904E0	-9.413118362E-1	7.856220007E-1
7.064667765E0	3.566075325E0	-1.162227154E0	1.029863358E0
7.072995349E0	2.920814037E0	-1.268204212E0	1.230587482E0
7.080983541E0	2.249139786E0	-1.221439362E0	1.333365917E0
7.089085272E0	1.569900513E0	-1.091129303E0	1.317024946E0
7.097179003E0	1.155480385E0	-9.175944328E-1	1.182082653E0
7.105079534E0	8.486547470E-1	-7.438740730E-1	9.665507674E-1
7.113365810E0	5.633306503E-1	-5.805549622E-1	6.778185964E-1
7.121361887E0	2.816047668E-1	-4.647173882E-1	3.839572668E-1
7.129446349E0	-2.005767822E-2	-3.692913055E-1	1.000847220E-1
7.137554272E0	-3.336825371E-1	-2.690391541E-1	-1.570066810E-1
7.145384726E0	-6.267843246E-1	-1.736440659E-1	-3.775807023E-1
7.153723733E0	-8.842945099E-1	4.867553711E-3	-5.745370984E-1
7.161717803E0	-1.154440403E0	1.077795029E-1	-6.165103912E-1
7.169809002E0	-1.385625601E0	1.461534500E-1	-5.758551955E-1
7.177902541E0	-1.493467331E0	1.895895004E-1	-5.033417344E-1
7.185762957E0	-1.531529903E0	2.102622986E-1	-3.691121340E-1
7.194089387E0	-1.507515907E0	2.216072083E-1	-1.683703661E-1
7.202072310E0	-1.395656586E0	1.928300858E-1	6.287586689E-2
7.210182002E0	-1.230417728E0	1.993961334E-1	2.679722905E-1
7.218267848E0	-1.069622755E0	1.940851212E-1	4.242459536E-1
7.226102534E0	-8.645265102E-1	2.255802155E-1	4.769990444E-1
7.234455387E0	-6.269893646E-1	2.759552002E-1	4.649438858E-1
7.242453425E0	-4.274249077E-1	2.823228836E-1	4.004056454E-1
7.250536964E0	-2.676830292E-1	2.661094666E-1	4.055149555E-1
7.258613348E0	-1.164069176E-1	1.614303589E-1	4.335668087E-1
7.266417611E0	1.022577286E-2	3.855228424E-2	4.653081298E-1
7.274779271E0	5.351209641E-2	-8.860301971E-2	5.170569420E-1
7.282777656E0	2.542591095E-2	-2.277011871E-1	5.817448497E-1
7.290860579E0	-5.798149109E-2	-3.150024414E-1	6.021943688E-1
7.298953963E0	-1.809654236E-1	-3.969154358E-1	5.474696159E-1
7.306806495E0	-3.125329018E-1	-4.902086258E-1	4.637637734E-1
7.315138617E0	-3.987326622E-1	-5.498666763E-1	4.450299144E-1
7.323127040E0	-4.183828831E-1	-6.237974167E-1	4.792629480E-1
7.331230040E0	-3.546257019E-1	-7.071523666E-1	5.292944908E-1
7.347167341E0	-8.423423767E-2	-8.486204147E-1	5.797077417E-1
7.355518386E0	7.840633392E-2	-8.727931976E-1	4.889684319E-1
7.363517155E0	2.412080765E-1	-8.530616760E-1	2.824128866E-1
7.371604425E0	3.730502129E-1	-7.942256927E-1	-6.149172783E-3
7.379716540E0	5.092978477E-1	-6.888961792E-1	-3.064911366E-1
7.387689611E0	6.129636765E-1	-5.771856308E-1	-5.741542578E-1
7.395892655E0	6.301298141E-1	-5.254917145E-1	-8.313286304E-1
7.403896809E0	6.161165237E-1	-5.470314026E-1	-1.086554885E0
7.411983578E0	5.331697464E-1	-5.270013809E-1	-1.295873404E0
7.420081501E0	4.780755043E-1	-3.054409027E-1	-1.434903622E0
7.427938149E0	4.432206154E-1	-7.115077972E-2	-1.541660070E0
7.436270110E0	3.349981308E-1	1.686029434E-1	-1.534231424E0
7.444258194E0	7.703495026E-2	3.231983185E-1	-1.453455210E0
7.452357155E0	-2.313194275E-1	4.687080383E-1	-1.336719751E0
7.460451117E0	-4.811127186E-1	6.346979141E-1	-1.111944199E0
7.468267226E0	-7.691376209E-1	7.847814560E-1	-8.197954893E-1
7.476627918E0	-1.074968815E0	8.824224472E-1	-5.178852081E-1
7.484618418E0	-1.312282562E0	9.406929016E-1	-2.319640219E-1
7.492714617E0	-1.525035381E0	1.007878304E0	-1.077449229E-2
7.500790655E0	-1.657624960E0	1.058541298E0	1.510907263E-1
7.508618803E0	-1.759514570E0	1.077695847E0	2.564975619E-1
7.516956380E0	-1.864277482E0	1.034662247E0	3.027303219E-1
7.524959078E0	-1.934259653E0	9.054565430E-1	3.527998924E-1
7.533045809E0	-1.989684939E0	7.293090820E-1	4.216764271E-1
7.541140963E0	-1.928687930E0	5.259160995E-1	4.785790443E-1
7.549081764E0	-1.709302425E0	2.967090607E-1	5.429191589E-1
7.557229418E0	-1.349317551E0	4.598331451E-2	5.156079531E-1
7.565243303E0	-9.749944210E-1	-1.639766693E-1	4.128285348E-1
7.573391110E0	-6.341691017E-1	-3.155250549E-1	3.158160150E-1
7.581432572E0	-3.939981461E-1	-4.136896133E-1	2.368026823E-1
7.589523149E0	-2.645890713E-1	-4.721956253E-1	2.309504449E-1
7.597683885E0	-2.577519417E-1	-4.753236771E-1	3.534264863E-1
7.605680270E0	-3.176832199E-1	-4.306011200E-1	5.604670644E-1
7.613767770E0	-3.256196976E-1	-3.290147781E-1	7.742898464E-1
7.621880001E0	-2.740063667E-1	-2.305917740E-1	1.025313973E0
7.629746303E0	-1.676323414E-1	-2.574129105E-1	1.314899445E0
7.637878110E0	-3.315281868E-2	-4.476184845E-1	1.444979548E0
7.645996110E0	1.674273014E-1	-6.717414856E-1	1.402459741E0
7.654108880E0	3.348369598E-1	-8.095951080E-1	1.225627303E0
7.662195764E0	5.599231720E-1	-8.156099319E-1	9.931793213E-1
7.670318264E0	8.169212341E-1	-7.354717255E-1	6.867834330E-1
7.678434033E0	1.102039099E0	-6.093130112E-1	3.397364020E-1
7.686424500E0	1.412236452E0	-5.660810471E-1	-7.037669420E-4
7.694526116E0	1.689842463E0	-6.142139435E-1	-3.404723108E-1
7.702622770E0	2.022132397E0	-7.074346542E-1	-6.347895861E-1
7.710513072E0	2.372743607E0	-7.815380096E-1	-8.136720657E-1
7.718696649E0	2.696629763E0	-8.621625900E-1	-9.611597061E-1
7.726660841E0	2.897178411E0	-8.506679535E-1	-1.048884153E0
7.734859649E0	2.984382153E0	-7.227487564E-1	-1.120637178E0
7.742884841E0	2.972893238E0	-6.027431488E-1	-1.193825245E0
7.750973072E0	2.821102619E0	-5.100660324E-1	-1.201857090E0
7.759148116E0	2.510940075E0	-4.708566666E-1	-1.208330750E0
7.767150577E0	2.148486137E0	-4.272365570E-1	-1.206502318E0
7.775235885E0	1.737933159E0	-3.935279846E-1	-1.181474805E0
7.783332462E0	1.323912621E0	-3.801279068E-1	-1.172019005E0
7.791195918E0	9.376311302E-1	-4.051074982E-1	-1.171085596E0
7.799366072E0	5.824284554E-1	-4.016208649E-1	-1.217632771E0
7.807503692E0	2.800383568E-1	-3.589630127E-1	-1.246878147E0
7.815559533E0	-5.256605148E-2	-3.359556198E-1	-1.243583679E0
7.823697538E0	-3.479590416E-1	-3.015708923E-1	-1.241293192E0
7.831701418E0	-6.320888996E-1	-2.335128784E-1	-1.207544565E0
7.839883577E0	-8.053274155E-1	-1.275186539E-1	-1.188510180E0
7.847881769E0	-9.850811958E-1	-6.896972656E-3	-1.177564859E0
7.855968577E0	-1.127303839E0	8.204746246E-2	-1.143371463E0
7.864078577E0	-1.237678289E0	1.658287048E-1	-1.120942354E0
7.871977802E0	-1.292493820E0	2.262878418E-1	-1.028204560E0
7.880063879E0	-1.365026951E0	3.185644150E-1	-9.140577316E-1
7.888177379E0	-1.368478298E0	3.381443024E-1	-8.126075268E-1
7.896339038E0	-1.325080395E0	3.526134491E-1	-7.252285480E-1
7.904374572E0	-1.260497093E0	3.460626602E-1	-6.856634617E-1
7.912443149E0	-1.224616528E0	3.688144684E-1	-6.306570768E-1
7.920620423E0	-1.181177616E0	4.064760208E-1	-5.982722044E-1
7.928607499E0	-1.104823112E0	4.266986847E-1	-5.453425646E-1
7.936708076E0	-1.059589863E0	4.101190567E-1	-4.332190752E-1
7.944803384E0	-9.544389248E-1	3.967332840E-1	-3.116120100E-1
7.952707533E0	-7.851154804E-1	3.285398483E-1	-1.675058603E-1
7.960838264E0	-4.220173359E-1	2.726306915E-1	-4.674303532E-2
7.968847187E0	-4.798650742E-3	2.516756058E-1	-2.360701561E-2
7.977026802E0	3.423216343E-1	2.432470322E-1	-5.225062370E-3
7.985064495E0	5.475969315E-1	2.311601639E-1	2.980232239E-5
7.993238115E0	6.363258362E-1	2.514305115E-1	-1.609766483E-2
8.009325268E0	3.997466564E-1	2.539758682E-1	-2.574765682E-2
8.017410422E0	3.383448124E-1	2.251224518E-1	-6.674301624E-2
8.025503768E0	3.126840591E-1	2.233152390E-1	-1.764608622E-1
8.033379110E0	3.081243038E-1	2.580919266E-1	-3.076093197E-1
8.041519495E0	3.152334690E-1	3.125753403E-1	-3.693715334E-1
8.049635456E0	3.221681118E-1	3.365306854E-1	-4.283002615E-1
8.057778884E0	3.054265976E-1	3.179063797E-1	-4.719307423E-1
8.065780302E0	2.724745274E-1	2.734174728E-1	-5.358592272E-1
8.073898687E0	2.057716846E-1	1.532220840E-1	-5.667798519E-1
8.082060153E0	1.464505196E-1	-1.165008545E-2	-5.643510818E-1
8.090057037E0	4.976034164E-2	-1.211023331E-1	-4.790858030E-1
8.098144191E0	9.144783020E-3	-1.918001175E-1	-3.822581768E-1
8.106252072E0	-3.252816200E-2	-2.839889526E-1	-2.654839754E-1
8.114133648E0	-3.647184372E-2	-2.924728394E-1	-2.195744514E-1
8.122379841E0	-1.761102676E-2	-2.648382187E-1	-2.202496529E-1
8.130265264E0	-3.206610680E-2	-1.331119537E-1	-2.143290043E-1
8.138457456E0	6.039619446E-3	2.347946167E-3	-1.751894951E-1
8.146579610E0	3.471231461E-2	1.863956451E-1	-1.676708460E-1
8.154710883E0	1.277523041E-1	3.502302170E-1	-1.228190660E-1
8.162796614E0	1.351795197E-1	4.931602478E-1	-1.624143124E-2
8.170784306E0	1.270172596E-1	5.390434265E-1	8.800327778E-2
8.178884306E0	1.240780354E-1	4.645252228E-1	1.097258329E-1
8.186978768E0	8.052444458E-2	3.894262314E-1	1.586351395E-1
8.194814379E0	6.786036491E-2	2.736740112E-1	2.083791494E-1
8.203166306E0	3.515672684E-2	1.649322510E-1	2.657523155E-1
8.211022225E0	7.107377052E-2	6.150245667E-3	2.993173599E-1
8.219251768E0	6.781911850E-2	-1.833152771E-2	3.325531483E-1
8.227267456E0	5.695533752E-2	-1.624202728E-2	2.776935101E-1
8.235362648E0	1.780533791E-2	-8.982658386E-3	1.687170267E-1
8.243500421E0	-9.015560150E-3	2.505493164E-2	2.753627300E-2
8.251504652E0	-6.417179108E-2	5.955505371E-2	-1.119213104E-1
8.259591267E0	-6.396031380E-2	2.775287628E-2	-3.171335459E-1
8.267688344E0	-8.942365646E-2	3.567695618E-3	-4.954138994E-1
8.275615648E0	-1.909039021E-1	-9.924793243E-2	-5.512626171E-1
8.283697994E0	-3.104028702E-1	-1.780796051E-1	-5.739222765E-1
8.291781225E0	-4.247193336E-1	-3.644580841E-1	-6.146446466E-1
8.299927033E0	-5.446932316E-1	-5.294237137E-1	-6.327618361E-1
8.307972918E0	-6.922068596E-1	-6.658954620E-1	-5.979747176E-1
8.316056379E0	-8.337509632E-1	-8.241519928E-1	-3.015332818E-1
8.324255190E0	-1.197882414E0	-7.580223083E-1	4.891027808E-1
8.332252918E0	-1.392731190E0	-7.864542007E-1	6.519008875E-1
8.340343190E0	-1.330091000E0	-6.477432251E-1	5.285329223E-1
8.348451841E0	-9.751894474E-1	-5.144681931E-1	2.212415338E-1
8.356320187E0	-4.605014324E-1	-3.422622681E-1	-6.644201279E-2
8.364499533E0	1.530957222E-2	-1.777133942E-1	-1.218412519E-1
8.372580187E0	4.368953705E-1	-1.425609589E-1	9.603635967E-2
8.380667841E0	7.577960491E-1	-9.527587891E-2	3.846352994E-1
8.396861994E0	5.724668503E-3	5.528640747E-1	2.858715653E-1
8.404996417E0	-6.504349709E-1	9.347515106E-1	3.312719166E-1
8.412987344E0	-1.218615770E0	1.231059074E0	7.392033339E-1
8.421088036E0	-1.713425994E0	1.477652550E0	1.371378899E0
8.429181574E0	-2.008629799E0	1.560569763E0	1.830134511E0
8.437016571E0	-1.919788480E0	1.664727211E0	1.903568745E0
8.445193494E0	-1.659962296E0	1.871816635E0	1.639646411E0
8.453287725E0	-1.181653261E0	2.133158684E0	1.142203093E0
8.461390802E0	-8.301897049E-1	2.349764824E0	7.678641677E-1
8.469499648E0	-6.973693371E-1	2.378050804E0	5.591915846E-1
8.477544340E0	-3.880946636E-1	1.797352791E0	3.071382046E-1
8.485693190E0	-2.693722248E-1	7.781791687E-1	2.574889064E-1
8.493695613E0	-2.652614117E-1	-1.585960388E-1	7.422077656E-1
8.501779920E0	-2.725760937E-1	-6.721048355E-1	1.431958914E0
8.509875151E0	-6.553077698E-2	-5.709781647E-1	2.117991686E0
8.517760417E0	5.411453247E-1	2.587194443E-1	2.525896311E0
8.525936456E0	1.279700518E0	1.344422340E0	2.708866835E0
8.533968187E0	2.086520195E0	2.188661575E0	2.735383034E0
8.542099340E0	2.738328934E0	2.330681801E0	2.566834927E0
8.550167879E0	2.985336781E0	1.635559082E0	2.062362194E0
8.558334036E0	2.684125900E0	3.661813736E-1	1.491854191E0
8.566435536E0	2.066539764E0	-8.773031235E-1	1.175668240E0
8.574433035E0	1.420228481E0	-1.965544224E0	1.052708149E0
8.582519343E0	8.093352318E-1	-2.841755867E0	9.807575941E-1
8.590630458E0	2.907857895E-1	-3.618565559E0	8.785614967E-1
8.598534648E0	-1.523911953E-1	-4.301394463E0	8.468431234E-1
8.606646917E0	-4.917436838E-1	-4.816637993E0	9.035791159E-1
8.614753187E0	-6.907594204E-1	-5.126517296E0	1.039857388E0
8.622847110E0	-6.811337471E-1	-5.347505569E0	1.239147305E0
8.630894763E0	-7.752294540E-1	-5.414405346E0	1.484397411E0
8.639063187E0	-7.524029613E-1	-5.294367313E0	1.692454576E0
8.647185497E0	-5.235809088E-1	-5.088617325E0	1.862988234E0
8.655175035E0	-1.014481187E-1	-4.736468792E0	1.888124943E0
8.663286151E0	3.422832489E-1	-4.116740704E0	1.584571004E0
8.671370920E0	7.280224562E-2	-3.177913666E0	1.246983528E0
8.679263687E0	-2.496908009E-1	-2.041621208E0	7.534463406E-1
8.687492840E0	-3.686268330E-1	-1.041763306E0	2.538323402E-1
8.695467763E0	-5.325672626E-1	1.778841019E-1	-2.278585434E-1
8.703562225E0	-1.050843120E0	1.565787315E0	-7.794961929E-1
8.711687879E0	-1.402006865E0	2.734968185E0	-1.323871613E0
8.719727494E0	-1.675398707E0	3.715452194E0	-1.898081779E0
8.727890958E0	-1.802742720E0	4.258447170E0	-2.233183384E0
8.735893573E0	-1.739131212E0	4.540600777E0	-2.188637257E0
8.743980073E0	-1.478125811E0	4.414528847E0	-1.760661602E0
8.752076496E0	-7.378205061E-1	3.900691986E0	-9.658589363E-1
8.759920379E0	1.378290653E-1	3.398564816E0	-1.205530167E-1
8.767999571E0	1.022462249E0	2.876253605E0	5.981512070E-1
8.784224994E0	2.360561371E0	2.360739231E0	1.423521996E0
8.792270033E0	2.689224720E0	2.223832607E0	1.582954407E0
8.800293802E0	2.807113409E0	2.175409794E0	1.664609909E0
8.808617609E0	2.678087234E0	2.284971237E0	1.739100933E0
8.816627535E0	2.303605080E0	2.622605324E0	1.805681705E0
8.824713804E0	1.686917424E0	3.115812302E0	1.936608315E0
8.832823573E0	9.970946312E-1	3.458528996E0	1.890133381E0
8.840678956E0	4.426298141E-1	3.983047485E0	1.469229221E0
8.848731494E0	-2.233812809E-1	4.405571461E0	1.222293854E0
8.856830609E0	-7.458779812E-1	4.908567905E0	1.036593437E0
8.864928956E0	-7.982554436E-1	5.247809887E0	1.029708862E0
8.872932186E0	-7.543120384E-1	5.454395294E0	1.077301979E0
8.881163109E0	-4.459371567E-1	5.446027756E0	1.531723499E0
8.889381650E0	6.583237648E-2	5.279633999E0	2.185040474E0
8.897373073E0	5.780699253E-1	5.027799129E0	2.839508057E0
8.905475496E0	8.392621279E-1	4.744901657E0	3.333234787E0
8.913573573E0	9.846036434E-1	4.403031826E0	3.889468431E0
8.921431340E0	9.129259586E-1	4.039883137E0	4.324167728E0
8.929512879E0	8.111253977E-1	3.706998825E0	4.628376007E0
8.937685686E0	7.471348047E-1	3.372109890E0	4.846808910E0
8.945710340E0	7.085717916E-1	2.974433422E0	5.019824028E0
8.953749994E0	7.920833826E-1	2.536777020E0	5.008152962E0
8.961783879E0	1.145256281E0	2.085856438E0	4.868262291E0
8.970105380E0	1.407262683E0	1.650691032E0	4.537609577E0
8.978110842E0	1.591233492E0	1.249121189E0	4.105487823E0
8.986197726E0	1.547774315E0	9.699134827E-1	3.535159826E0
8.994293688E0	1.331885219E0	7.548880577E-1	3.001801491E0
9.002146879E0	1.008422136E0	4.939408302E-1	2.580326080E0
9.010228417E0	6.797325611E-1	2.519736290E-1	2.280583858E0
9.018373994E0	3.778431416E-1	1.035876274E-1	2.012460709E0
9.026440109E0	2.616567612E-1	-1.037173271E-1	1.836188316E0
9.034606725E0	4.828815460E-1	-3.429813385E-1	1.741423607E0
9.042491263E0	-5.708217621E-3	-6.137385368E-1	1.555269718E0
9.050846495E0	-7.646083832E-2	-8.154406548E-1	1.438741207E0
9.058845572E0	-3.261470795E-1	-8.604583740E-1	1.309620380E0
9.066932111E0	-4.279103279E-1	-9.879779816E-1	1.173461437E0
9.075041957E0	-2.618401051E-1	-1.077486515E0	9.399933815E-1
9.082925032E0	-4.290876389E-1	-1.109098911E0	5.300931931E-1
9.090969263E0	-8.972685337E-1	-1.165737629E0	6.407451630E-2
9.099214649E0	-1.342426062E0	-1.074436188E0	-5.644483566E-1
9.107172225E0	-1.527684212E0	-9.872055054E-1	-1.122353554E0
9.115236225E0	-1.464004278E0	-9.792790413E-1	-1.603180885E0
9.123494380E0	-1.601135254E0	-9.942064285E-1	-2.084037304E0
9.131579956E0	-1.170575142E0	-1.041169643E0	-2.367537498E0
9.139567456E0	-6.515893936E-1	-1.134035587E0	-2.236290932E0
9.147668956E0	-4.244446754E-2	-1.314724922E0	-1.896403790E0
9.155752032E0	5.236284733E-1	-1.550781250E0	-1.481348515E0
9.163665302E0	9.751310349E-1	-1.707219124E0	-1.045576572E0
9.171692532E0	1.215883851E0	-1.759490490E0	-6.396021843E-1
9.179857955E0	1.365178943E0	-1.713806152E0	-1.465525627E-1
9.187913878E0	1.426218033E0	-1.615143299E0	3.225383759E-1
9.195928802E0	1.370971560E0	-1.534392357E0	8.293447495E-1
9.204013455E0	1.397053719E0	-1.557355404E0	1.301782131E0
9.212293072E0	1.492262483E0	-1.607875347E0	1.696028709E0
9.220297264E0	1.583591104E0	-1.665698528E0	1.972162724E0
9.228383841E0	1.703213096E0	-1.776662827E0	2.081451416E0
9.236479686E0	1.797432661E0	-1.818649769E0	2.072690487E0
9.244532186E0	2.003613710E0	-1.867175817E0	2.062829971E0
9.252421840E0	2.203691959E0	-1.957518101E0	2.012624741E0
9.260478571E0	2.438072681E0	-2.072367430E0	1.885797024E0
9.268601071E0	2.718208313E0	-2.202480316E0	1.667134762E0
9.276673725E0	3.152704000E0	-2.287849188E0	1.208792686E0
9.284689763E0	3.582075357E0	-2.279299259E0	6.313834190E-1
9.293036917E0	4.030074596E0	-2.180449247E0	-1.016130447E-1
9.301037110E0	4.605423450E0	-2.037310362E0	-7.745819092E-1
9.309124071E0	5.000900269E0	-1.824744940E0	-1.506777763E0
9.317324110E0	5.404279709E0	-1.464424372E0	-2.375757217E0
9.325070032E0	6.025290489E0	-1.070667267E0	-3.203825951E0
9.333131186E0	6.570435047E0	-5.927259922E-1	-3.916391373E0
9.341233263E0	7.056381226E0	-3.291773796E-2	-4.453750610E0
9.349327609E0	7.347936630E0	6.127357483E-1	-5.197899818E0
9.357418955E0	6.802666664E0	1.487402201E0	-6.060441017E0
9.365457378E0	5.496009350E0	2.594534159E0	-6.426364899E0
9.373756302E0	3.776716948E0	3.450952530E0	-5.893277168E0
9.381747032E0	2.512326717E0	4.145012856E0	-5.360381126E0
9.389849032E0	1.023826122E0	4.236372471E0	-3.470762253E0
9.397945878E0	1.014163494E-1	3.748431921E0	-1.419383049E0
9.405840532E0	-5.369622707E-1	3.079972267E0	5.693788528E-1
9.413866224E0	-1.286085486E0	2.371134996E0	2.376266479E0
9.421955801E0	-1.988165140E0	1.634263992E0	3.890055180E0
9.430074571E0	-2.145297289E0	9.985733032E-1	4.913876534E0
9.438121724E0	-2.651303768E0	3.858137131E-1	5.598694324E0
9.446371494E0	-2.673087597E0	3.021001816E-2	5.870310783E0
9.454473263E0	-2.767079115E0	-2.474915981E-1	5.999871731E0
9.462471840E0	-2.898815632E0	-4.094374180E-1	5.781415939E0
9.470566763E0	-2.757340908E0	-3.716056347E-1	5.228469849E0
9.478665647E0	-2.390536785E0	-2.979683876E-1	4.388703823E0
9.486561417E0	-1.697524786E0	-1.457490921E-1	3.257516384E0
9.494784224E0	-8.888395429E-1	1.861746311E-1	1.879844666E0
9.502787147E0	-2.997184396E-1	5.094227791E-1	7.505989075E-1
9.510818994E0	1.324340999E-1	8.869762421E-1	-1.211175919E-1
9.518786032E0	3.412100673E-1	1.284091473E0	-7.622756958E-1
9.526928340E0	3.186771870E-1	1.714784384E0	-1.059867859E0
9.535246416E0	7.095949352E-2	2.046653271E0	-1.241364479E0
9.543243647E0	-4.087705016E-1	2.282599926E0	-1.403345108E0
9.551336993E0	-9.958422780E-1	2.329718828E0	-1.376357079E0
9.559447916E0	-1.655743122E0	2.242609501E0	-1.103768349E0
9.567267840E0	-2.224886656E0	2.122029305E0	-7.738933563E-1
9.575361494E0	-2.378408670E0	1.885679245E0	-5.839242935E-1
9.583471417E0	-1.996302605E0	1.540034771E0	-7.050046921E-1
9.591609840E0	-1.421387911E0	1.236645699E0	-1.063292503E0
9.599646224E0	-6.623659134E-1	8.873400688E-1	-1.582233429E0
9.607650494E0	1.903613806E-1	5.776486397E-1	-2.179339409E0
9.615997916E0	1.154789090E0	2.969212532E-1	-2.836359978E0
9.623985224E0	2.207966328E0	4.880666733E-2	-3.448079109E0
9.632086839E0	3.323819399E0	-2.085247040E-1	-4.026151657E0
9.640173378E0	4.357854843E0	-4.455609322E-1	-4.437707901E0
9.648012186E0	5.375717163E0	-6.446518898E-1	-4.707627296E0
9.656132109E0	6.193304539E0	-9.373497963E-1	-4.676640511E0
9.664219340E0	6.778450489E0	-1.302987814E0	-4.291305542E0
9.672317493E0	7.344380856E0	-1.818880320E0	-3.896712303E0
9.680341840E0	7.572058201E0	-2.182425737E0	-3.541507721E0
9.688363417E0	7.734991074E0	-2.623707056E0	-3.123866081E0
9.696261340E0	7.609626293E0	-2.915392876E0	-2.740708351E0
9.704356724E0	7.308529854E0	-2.963636398E0	-2.267013550E0
9.712637378E0	6.864174366E0	-2.764699697E0	-1.649285316E0
9.720561609E0	6.400256157E0	-2.396977663E0	-1.157655716E0
9.728679032E0	5.875384808E0	-1.983262300E0	-7.251567841E-1
9.737102570E0	5.266669750E0	-1.464401484E0	-4.875574112E-1
9.745091339E0	4.668686867E0	-9.566969872E-1	-6.245965958E-1
9.753192377E0	4.148862362E0	-5.116348267E-1	-1.061873436E0
9.761287339E0	3.774556875E0	-1.959714890E-1	-1.648078918E0
9.769231186E0	3.569789171E0	2.172470093E-2	-2.137637138E0
9.777050416E0	3.325111389E0	2.075371742E-1	-2.360597610E0
9.785238570E0	2.991783142E0	4.483618736E-1	-2.426046371E0
9.793236147E0	2.710988760E0	8.718605042E-1	-2.209947109E0
9.801325570E0	2.413358927E0	1.496741295E0	-1.889667034E0
9.809428493E0	2.033713102E0	2.258398533E0	-1.535673618E0
9.817842109E0	1.509509087E0	3.261112690E0	-1.125943661E0
9.825847069E0	9.783431292E-1	4.181577682E0	-9.663038254E-1
9.833932185E0	3.669483662E-1	5.081067562E0	-1.177647591E0
9.842026954E0	-4.284512997E-1	5.665884018E0	-1.596918583E0
9.849879032E0	-1.150195599E0	6.131476402E0	-1.966153622E0
9.857810455E0	-1.899286747E0	6.464641571E0	-1.719948769E0
9.865972147E0	-2.645206213E0	6.493203640E0	-1.194965363E0
9.873986147E0	-2.922750473E0	6.138962746E0	-7.695336342E-1
9.882050763E0	-2.776276588E0	5.665415764E0	-4.282855988E-2
9.890137109E0	-2.902753353E0	5.164660454E0	1.135289669E0
9.898581607E0	-3.129981518E0	4.742315292E0	2.025409698E0
9.906578377E0	-2.978637218E0	4.099381924E0	2.740654469E0
9.914663415E0	-2.344689846E0	3.285356045E0	3.719553709E0
9.922741646E0	-1.685641289E0	2.379892826E0	4.547772884E0
9.930605147E0	-9.469504356E-1	1.173708916E0	5.585119724E0
9.938822263E0	1.059556961E0	-6.674876213E-1	8.776599884E0
9.946655993E0	1.399992466E0	-2.109222889E0	9.364637375E0
9.954688070E0	1.422786713E0	-2.695314169E0	8.376946449E0
9.962738032E0	1.100476742E0	-2.590817690E0	7.248512268E0
9.970906147E0	6.944947243E-1	-2.456266642E0	6.400125027E0
9.979289838E0	4.786572456E-1	-2.229205608E0	5.982038021E0
9.987280338E0	3.163495064E-1	-2.224737406E0	5.970021248E0
9.995383992E0	-1.925401688E-1	-2.413687229E0	5.749304295E0
1.000348199E1	-9.816670418E-1	-2.487229347E0	4.884564400E0
1.001133922E1	-1.101950407E0	-2.735580206E0	4.377553940E0
1.001924215E1	-9.532015324E-1	-3.089993000E0	4.358360767E0
1.002751565E1	7.654309273E-2	-3.617440701E0	5.055603981E0
1.003550761E1	1.149792194E0	-4.116043091E0	6.329469681E0
1.004358496E1	1.608663082E0	-4.604580879E0	7.289704800E0
1.005160784E1	2.066755056E0	-4.931701183E0	7.966194630E0
1.006004653E1	2.239174128E0	-5.066567421E0	8.273474693E0
1.006805391E1	2.503568888E0	-5.212582588E0	8.559814453E0
1.007614211E1	2.685441971E0	-5.193219662E0	8.479673386E0
1.008424111E1	2.936233759E0	-5.114527702E0	8.353571892E0
1.009208588E1	3.207802773E0	-4.987549305E0	8.221591949E0
1.010002192E1	3.124973774E0	-4.673308372E0	7.696745872E0
1.010817942E1	2.894846439E0	-4.193204880E0	7.051710606E0
1.011621469E1	2.692787647E0	-3.605358601E0	6.366242409E0
1.012425696E1	2.356910467E0	-2.877302408E0	5.722611427E0
1.013234772E1	1.841963410E0	-1.975636959E0	5.077536583E0
1.014080484E1	6.203815937E-1	-6.398081779E-1	3.816348791E0
1.014880261E1	-6.545984745E-1	7.838411331E-1	2.751775265E0
1.015688968E1	-1.950052738E0	2.208523750E0	2.091963291E0
1.016496903E1	-3.259479046E0	3.775717258E0	1.487051964E0
1.017278434E1	-4.241770267E0	5.351164818E0	1.346744537E0
1.018072469E1	-5.006862640E0	6.567221165E0	4.549083710E-1
1.018891980E1	-5.093486786E0	7.103847980E0	-4.408020973E-1
1.019690088E1	-4.882509708E0	7.381253242E0	-1.697384834E0
1.020496926E1	-4.017800808E0	6.856056690E0	-2.774128437E0
1.021316719E1	-2.792818546E0	5.707945824E0	-3.310621738E0
1.022152222E1	-1.893640518E0	4.524888992E0	-3.346390247E0
1.022951241E1	-1.521141529E0	3.294977188E0	-3.161989689E0
1.023761445E1	-1.523567677E0	2.013769150E0	-2.815292835E0
1.024571026E1	-1.648069859E0	7.221136093E-1	-2.239830971E0
1.025355157E1	-1.580837011E0	-4.762878418E-1	-1.401138306E0
1.026148026E1	-1.625378132E0	-1.302000999E0	-8.411560059E-1
1.026964353E1	-1.620399952E0	-1.989402771E0	-3.160004616E-1
1.027765988E1	-1.795127869E0	-2.401368618E0	-4.979705811E-2
1.028578322E1	-1.828449011E0	-2.840688229E0	2.230238914E-1
1.029384730E1	-1.991462231E0	-3.098240614E0	5.736355782E-1
1.030226426E1	-2.208091021E0	-3.161711693E0	8.773460388E-1
1.031030726E1	-2.530772448E0	-3.059052944E0	1.030235291E0
1.031839434E1	-1.956680298E0	-2.517284393E0	1.027820587E0
1.032647949E1	-1.367279530E0	-1.817348957E0	8.996181488E-1
1.033434076E1	-6.164026260E-1	-1.066463947E0	6.931619644E-1
1.034227080E1	-1.099996567E-1	-3.236684799E-1	5.084381104E-1
1.035043069E1	2.229709625E-1	4.202919006E-1	2.639808655E-1
1.035844688E1	3.518638611E-1	1.220330715E0	1.600742340E-3
1.036650588E1	4.309442043E-1	1.879812241E0	-1.473054886E-1
1.037460249E1	4.471271038E-1	2.439071655E0	-2.032666206E-1
1.038305757E1	4.362394810E-1	2.867409229E0	-1.843671799E-1
1.039105849E1	3.959350586E-1	3.102582455E0	-4.610872269E-2
1.039914734E1	7.894077301E-1	3.220324993E0	2.119612694E-1
1.040722938E1	1.266064644E0	3.109390259E0	5.627803802E-1
1.041504992E1	1.527232170E0	2.765189648E0	8.953757286E-1
1.042306434E1	1.648117542E0	2.380922794E0	1.115348816E0
1.043118076E1	1.672461510E0	1.927192211E0	1.314962864E0
1.043920330E1	1.580935955E0	1.451099396E0	1.268195152E0
1.044722145E1	1.544715643E0	8.783307076E-1	1.436441898E0
1.045538095E1	1.584136009E0	3.365225792E-1	1.468492508E0
1.046378472E1	1.698928237E0	-1.076021194E-1	1.272312164E0
1.047177276E1	1.833265185E0	-5.911436081E-1	1.085280418E0
1.047987507E1	2.004925728E0	-8.721532822E-1	9.138321877E-1
1.048797164E1	2.161216736E0	-1.195898533E0	7.037630081E-1
1.049579265E1	2.334737778E0	-1.378014088E0	4.416794777E-1
1.050375053E1	2.508708954E0	-1.632877827E0	3.779029846E-2
1.051189557E1	2.733651161E0	-1.794947624E0	-4.082002640E-1
1.051991419E1	2.964179516E0	-1.884477615E0	-1.133870125E0
1.052797434E1	3.139499903E0	-2.165342331E0	-1.555534363E0
1.053606765E1	3.194327593E0	-2.105281830E0	-2.285956860E0
1.054452276E1	3.549547195E0	-2.529243469E0	-2.711887836E0
1.055250657E1	3.566480875E0	-2.617455244E0	-3.067940235E0
1.056061676E1	3.499960661E0	-2.771246195E0	-3.417263985E0
1.056869034E1	3.449190140E0	-2.905446529E0	-3.213625908E0
1.057653003E1	3.029954910E0	-2.759152889E0	-3.017967224E0
1.058445888E1	2.979048252E0	-2.897539377E0	-2.656895638E0
1.059261045E1	2.715662003E0	-2.795439720E0	-2.117688179E0
1.060073676E1	2.460245609E0	-2.598759890E0	-1.717803955E0
1.060871861E1	2.454334974E0	-2.422065973E0	-1.228883743E0
1.061680965E1	2.347800255E0	-2.009425640E0	-9.041500092E-1
1.062526022E1	2.227733135E0	-1.395847797E0	-8.333120346E-1
1.063326822E1	2.158189774E0	-7.105779648E-1	-8.338136673E-1
1.064137587E1	1.999570131E0	-5.232524872E-2	-8.241615295E-1
1.064943722E1	1.874180555E0	4.927124977E-1	-8.142671585E-1
1.065726607E1	1.681124687E0	1.009564400E0	-7.924013138E-1
1.066516957E1	1.373347163E0	1.522397041E0	-7.549581528E-1
1.067336722E1	1.070569634E0	1.966320038E0	-6.682596207E-1
1.068140442E1	7.115845084E-1	2.434305668E0	-5.711202621E-1
1.068945788E1	3.871377707E-1	2.770586967E0	-4.210872650E-1
1.069755511E1	1.566328853E-2	3.028758526E0	-2.545366287E-1
1.070600703E1	-4.683054388E-1	3.265396118E0	-1.997680664E-1
1.071399238E1	-9.952988625E-1	3.499836445E0	-2.326393127E-1
1.072210849E1	-1.574245811E0	3.718801022E0	-3.022308350E-1
1.073017930E1	-2.151173830E0	3.887936592E0	-3.777542114E-1
1.073800811E1	-2.467485189E0	3.832506180E0	-1.825819016E-1
1.074595876E1	-2.996043682E0	3.944189072E0	-2.667560577E-1
1.075411888E1	-3.197068930E0	3.826106548E0	-1.379823685E-1
1.076216195E1	-3.325137138E0	3.665176392E0	9.845447540E-2
1.077026549E1	-3.301268816E0	3.456448078E0	4.209375381E-1
1.077833049E1	-3.267696381E0	3.171352625E0	7.231330872E-1
1.078677857E1	-3.126761198E0	2.832033634E0	1.182512760E0
1.079478537E1	-2.866863489E0	2.575986385E0	1.532733440E0
1.080287353E1	-2.551637888E0	2.431674242E0	1.821595669E0
1.081097041E1	-2.296605110E0	2.379390001E0	2.039312840E0
1.081881034E1	-2.046476126E0	2.353806019E0	2.165756226E0
1.082671238E1	-1.766233921E0	2.240237713E0	2.239518642E0
1.083488699E1	-1.451848030E0	2.118719578E0	2.263180733E0
1.084293880E1	-1.084551930E0	1.949797630E0	2.230012894E0
1.085105161E1	-7.231848240E-1	1.705492973E0	2.128026485E0
1.085912645E1	-3.837114275E-1	1.340522289E0	1.985043049E0
1.086528618E1	-1.367053390E-1	9.923930168E-1	1.791615963E0
1.086749499E1	-7.924449444E-2	9.229612350E-1	1.760491371E0
1.087549614E1	1.588875055E-1	4.426794052E-1	1.571298122E0
1.088358391E1	3.544237614E-1	-6.564569473E-2	1.382089138E0
1.089166410E1	4.941686392E-1	-5.429854393E-1	1.200526237E0
1.089948649E1	6.283140779E-1	-1.009386539E0	9.008231163E-1
1.090746434E1	7.103714943E-1	-1.339106798E0	5.652465820E-1
1.091557184E1	7.131237984E-1	-1.581295490E0	1.843194962E-1
1.092360972E1	7.181882262E-1	-1.706939697E0	-2.464876175E-1
1.093171726E1	7.020248175E-1	-1.779244423E0	-7.552938461E-1
1.093978030E1	6.891536117E-1	-1.754888058E0	-1.253840446E0
1.094823553E1	6.807317138E-1	-1.680063725E0	-1.713436127E0
1.095621869E1	7.030830383E-1	-1.528682470E0	-2.118494987E0
1.096433299E1	7.344166040E-1	-1.286063671E0	-2.384197235E0
1.097243245E1	8.161399364E-1	-1.049523830E0	-2.522361755E0
1.098031776E1	8.993151188E-1	-8.197298050E-1	-2.576217651E0
1.098816918E1	1.016855240E0	-6.066112518E-1	-2.522832870E0
1.099633372E1	1.122520089E0	-3.662433624E-1	-2.400862694E0
1.100440145E1	1.197080612E0	-6.910419464E-2	-2.229306221E0
1.101245311E1	1.178763032E0	1.958184242E-1	-2.006840706E0
1.102054234E1	1.073864698E0	4.081506729E-1	-1.740698814E0
1.102900526E1	9.144780040E-1	5.903592110E-1	-1.504360199E0
1.103699253E1	7.047349811E-1	7.487850189E-1	-1.265094757E0
1.104510130E1	5.530601740E-1	8.348197937E-1	-1.073824883E0
1.105318976E1	4.392065406E-1	8.889703751E-1	-9.402017593E-1
1.106101995E1	2.370327711E-1	9.129281044E-1	-8.857078552E-1
1.106898015E1	-5.345630646E-2	9.467329979E-1	-8.892593384E-1
1.107712484E1	-3.659371138E-1	1.007970810E0	-9.106788635E-1
1.108524503E1	-6.683772802E-1	1.018786907E0	-8.742847443E-1
1.109321761E1	-9.130592346E-1	1.064227581E0	-8.430366516E-1
1.110132518E1	-1.148447871E0	1.149263859E0	-8.258609772E-1
1.110927811E1	-1.230723262E0	1.252097130E0	-7.989959717E-1
1.111736099E1	-1.306658506E0	1.379709721E0	-7.504339218E-1
1.112578634E1	-1.385778904E0	1.488431454E0	-7.020940781E-1
1.113353353E1	-1.417161107E0	1.545226574E0	-5.814790726E-1
1.114171815E1	-1.465395212E0	1.503916264E0	-3.989210129E-1
1.115012210E1	-1.462189078E0	1.371102810E0	-1.574220657E-1
1.115812699E1	-1.416236401E0	1.228494167E0	5.419445038E-2
1.116621472E1	-1.298117995E0	1.071097851E0	1.806173325E-1
1.117430603E1	-1.039260745E0	9.123601913E-1	1.842432022E-1
1.118214353E1	-7.350256443E-1	7.762804031E-1	6.689119339E-2
1.119006572E1	-4.019384384E-1	6.670107841E-1	-9.821939468E-2
1.119805534E1	-1.281660795E-1	5.363321304E-1	-2.808384895E-1
1.120630580E1	1.297969818E-1	4.177751541E-1	-4.523377419E-1
1.121433984E1	3.809484243E-1	3.229303360E-1	-6.800351143E-1
1.122235776E1	5.514727831E-1	2.389001846E-1	-9.049320221E-1
1.123088099E1	7.062394619E-1	1.886029243E-1	-1.103818417E0
1.123888087E1	8.352869749E-1	1.341981888E-1	-1.266641617E0
1.124696683E1	9.643307924E-1	7.072162628E-2	-1.350252628E0
1.125507710E1	1.016845942E0	1.194429398E-2	-1.328739166E0
1.126296718E1	1.063098907E0	-7.255220413E-2	-1.179645061E0
1.127076380E1	1.082451224E0	-1.778297424E-1	-9.072813988E-1
1.127881907E1	1.050468206E0	-2.563157082E-1	-6.153745651E-1
1.128704676E1	9.248740673E-1	-2.532124519E-1	-3.426423073E-1
1.129500880E1	7.091312408E-1	-1.912970543E-1	-1.458916664E-1
1.130309826E1	4.742609262E-1	-7.905864716E-2	7.050037384E-3
1.131162145E1	2.336333990E-1	6.457328796E-2	1.262593269E-1
1.131961049E1	2.319085598E-2	1.745419502E-1	2.302198410E-1
1.132771322E1	-1.928060055E-1	2.954506874E-1	3.494191170E-1
1.133581026E1	-3.620240688E-1	3.933162689E-1	4.466781616E-1
1.134362749E1	-5.041050911E-1	5.006666183E-1	5.379872322E-1
1.135161119E1	-6.214666367E-1	6.001052856E-1	5.975780487E-1
1.135961626E1	-7.171341181E-1	6.714811325E-1	6.781735420E-1
1.136792019E1	-7.990247011E-1	7.030062675E-1	7.537627220E-1
1.137574342E1	-8.783534765E-1	7.199687958E-1	8.195056915E-1
1.138382530E1	-9.382733107E-1	7.157421112E-1	8.691492081E-1
1.139233956E1	-9.466861486E-1	6.899409294E-1	8.876934052E-1
1.140034268E1	-9.108077288E-1	6.496186256E-1	8.772993088E-1
1.140842803E1	-8.480932713E-1	6.144318581E-1	8.576483727E-1
1.141652414E1	-7.812607288E-1	6.161708832E-1	8.175134659E-1
1.142447161E1	-6.948130131E-1	5.557551384E-1	7.655448914E-1
1.143227319E1	-5.923806429E-1	4.749245644E-1	7.029032707E-1
1.144026319E1	-4.643561840E-1	3.477749825E-1	6.419587135E-1
1.144857299E1	-3.232254982E-1	2.252454758E-1	5.619063377E-1
1.145647692E1	-2.096195221E-1	1.222624779E-1	4.617357254E-1
1.146455465E1	-1.338989735E-1	3.246974945E-2	3.439970016E-1
1.147308695E1	-6.831431389E-2	-6.604576111E-2	2.542200089E-1
1.148108260E1	5.278825760E-3	-1.925306320E-1	2.329273224E-1
1.148916933E1	9.428238869E-2	-3.216624260E-1	2.337841988E-1
1.149727891E1	1.791323423E-1	-4.720664024E-1	2.788562775E-1
1.150511949E1	2.486675978E-1	-6.102495193E-1	3.439259529E-1
1.151296561E1	2.863619328E-1	-7.250671387E-1	3.778934479E-1
1.152102599E1	3.501750231E-1	-8.103437424E-1	4.173941612E-1
1.152922649E1	3.552001715E-1	-8.612585068E-1	4.530944824E-1
1.153720172E1	3.840591908E-1	-9.119095802E-1	4.721512794E-1
1.154528926E1	4.422680140E-1	-9.277234077E-1	5.037889481E-1
1.155381729E1	5.289694071E-1	-9.231019020E-1	5.266261101E-1
1.156180710E1	6.221792698E-1	-9.277920723E-1	5.848798752E-1
1.156990891E1	7.068389654E-1	-8.932547569E-1	6.193914413E-1
1.157800591E1	7.725313902E-1	-8.797478676E-1	6.319127083E-1
1.158584068E1	8.202113509E-1	-8.614273071E-1	6.362609863E-1
1.159377415E1	8.647106886E-1	-8.086476326E-1	6.072583199E-1
1.160179607E1	8.830755353E-1	-7.465071678E-1	5.294532776E-1
1.161008707E1	8.950331211E-1	-6.771364212E-1	4.704852104E-1
1.161807634E1	8.710740805E-1	-6.107807159E-1	4.084625244E-1
1.162606815E1	8.378472328E-1	-5.219130516E-1	3.666553497E-1
1.163454006E1	7.624685168E-1	-4.411201477E-1	3.146991730E-1
1.164254787E1	6.487874389E-1	-3.568158150E-1	2.376666069E-1
1.165063772E1	5.182867050E-1	-2.115554810E-1	1.571164131E-1
1.165873633E1	4.194402099E-1	-1.109743118E-1	8.710575104E-2
1.166658149E1	3.262776136E-1	2.787113190E-3	3.029394150E-2
1.167457007E1	2.133791447E-1	1.014513969E-1	-2.270507812E-2
1.168255215E1	1.055637598E-1	1.951494217E-1	-5.483961105E-2
1.169083634E1	-3.959178925E-3	2.695479393E-1	-1.020369530E-1
1.169869822E1	-9.581279755E-2	3.039422035E-1	-1.229791641E-1
1.170677168E1	-1.639649868E-1	3.268008232E-1	-1.200661659E-1
1.171530456E1	-2.329518795E-1	3.334236145E-1	-1.122756004E-1
1.172330387E1	-2.980343103E-1	3.286180496E-1	-1.043643951E-1
1.173139133E1	-3.469836712E-1	3.134484291E-1	-1.380510330E-1
1.173950233E1	-4.114063978E-1	2.935338020E-1	-1.168727875E-1
1.174738326E1	-4.191409349E-1	2.481107712E-1	-3.724622726E-2
1.175551665E1	-3.725757599E-1	1.485171318E-1	9.370136261E-2
1.176326592E1	-2.969421148E-1	5.994176865E-2	2.334661484E-1
1.177158353E1	-2.196463346E-1	-3.133773804E-2	3.470873833E-1
1.177954184E1	-1.686452627E-1	-1.172595024E-1	4.399194717E-1
1.178756603E1	-8.343291283E-2	-1.825566292E-1	5.179777145E-1
1.179605187E1	-3.090095520E-2	-2.515754700E-1	6.096663475E-1
1.180403768E1	3.117489815E-2	-3.046855927E-1	6.987051964E-1
1.181213656E1	1.061185598E-1	-3.100972176E-1	8.387732506E-1
1.182023091E1	1.899502277E-1	-3.069963455E-1	8.974561691E-1
1.182804376E1	3.216215968E-1	-2.781419754E-1	9.419994354E-1
1.183598676E1	4.601389170E-1	-2.591905594E-1	9.749875069E-1
1.184399253E1	5.691623688E-1	-2.398319244E-1	9.846553802E-1
1.185218772E1	6.109763980E-1	-2.199487686E-1	9.542241096E-1
1.186012438E1	6.485738754E-1	-2.059464455E-1	9.224228859E-1
1.186821792E1	7.058197856E-1	-1.983947754E-1	8.645963669E-1
1.187674264E1	7.791562080E-1	-2.185535431E-1	8.170146942E-1
1.188474556E1	8.532592058E-1	-2.064108849E-1	7.532720566E-1
1.189283229E1	9.169018865E-1	-2.250514030E-1	6.511497498E-1
1.190090134E1	9.700824022E-1	-2.295012474E-1	5.318613052E-1
1.190882242E1	1.020179749E0	-2.150826454E-1	3.929157257E-1
1.191661007E1	1.033686161E0	-2.008562088E-1	2.655329704E-1
1.192473038E1	1.023222923E0	-1.704716682E-1	9.692478180E-2
1.193286734E1	9.307779074E-1	-1.779365540E-1	-6.421518326E-2
1.194083999E1	8.404117823E-1	-1.751737595E-1	-2.010235786E-1
1.194895192E1	6.823055148E-1	-1.928033829E-1	-2.580499649E-1
1.195748099E1	4.906649590E-1	-2.178788185E-1	-2.873415947E-1
1.196549379E1	3.018275499E-1	-2.429294586E-1	-3.058624268E-1
1.197358245E1	1.310665309E-1	-2.554945946E-1	-3.226947784E-1
1.198169475E1	-5.029439926E-3	-2.177710533E-1	-3.788785934E-1
1.198956457E1	-9.547799826E-2	-1.954998970E-1	-4.010429382E-1
1.199748807E1	-1.473580003E-1	-1.419367790E-1	-4.163227081E-1
1.200544880E1	-1.897659898E-1	-1.061224937E-1	-3.798170090E-1
1.201368911E1	-2.007601857E-1	-8.306741714E-2	-3.367300034E-1
1.202164488E1	-2.225341201E-1	-6.880378723E-2	-2.923097610E-1
1.202972349E1	-2.397925854E-1	-6.272983551E-2	-2.508277893E-1
1.203823787E1	-2.624166608E-1	-7.124614716E-2	-2.213058472E-1
1.204622502E1	-2.698798180E-1	-1.230773926E-1	-2.062301636E-1
1.205432556E1	-3.037568331E-1	-1.573143005E-1	-2.313241959E-1
1.206241914E1	-2.807533443E-1	-1.717934608E-1	-2.968654633E-1
1.207026888E1	-2.529402971E-1	-1.838331223E-1	-3.793201447E-1
1.207817053E1	-1.831735373E-1	-1.858234406E-1	-4.304380417E-1
1.208616684E1	-8.474507928E-2	-1.777234077E-1	-4.860305786E-1
1.209443595E1	9.120106697E-4	-1.806879044E-1	-5.314321518E-1
1.210234307E1	1.087641120E-1	-1.787395477E-1	-5.838794708E-1
1.211043068E1	1.687347293E-1	-1.809267998E-1	-6.287593842E-1
1.211893880E1	2.118180394E-1	-1.724910736E-1	-6.897478104E-1
1.212694398E1	2.216960937E-1	-1.741943359E-1	-7.463874817E-1
1.213503048E1	2.130347937E-1	-1.757235527E-1	-7.575120926E-1
1.214312691E1	2.004161924E-1	-1.634659767E-1	-7.427654266E-1
1.215096138E1	2.081787288E-1	-1.430253983E-1	-6.955108643E-1
1.215888049E1	2.052117586E-1	-9.270524979E-2	-6.371841431E-1
1.216687715E1	1.990368068E-1	-5.593872070E-2	-5.464630127E-1
1.217512476E1	1.969527006E-1	-1.830863953E-2	-4.376840591E-1
1.218304865E1	1.570359617E-1	-3.074932098E-2	-3.112926483E-1
1.219119072E1	1.102728248E-1	-7.306003571E-2	-1.738061905E-1
1.219968679E1	1.848837733E-2	-1.186881065E-1	-9.691047668E-2
1.220768460E1	-3.863319755E-2	-1.804351807E-1	9.806632996E-3
1.221576864E1	-1.049013138E-1	-2.404813766E-1	8.479213715E-2
1.222387737E1	-1.732045710E-1	-3.058009148E-1	1.449422836E-1
1.223169592E1	-2.205749750E-1	-3.547549248E-1	2.166824341E-1
1.223980211E1	-2.299772501E-1	-3.748655319E-1	2.404584885E-1
1.224805479E1	-2.215505540E-1	-3.576450348E-1	2.515282631E-1
1.225590342E1	-2.110814452E-1	-3.179636002E-1	2.544369698E-1
1.226388053E1	-1.821591854E-1	-2.653741837E-1	2.492265701E-1
1.227195018E1	-1.435631514E-1	-2.187438011E-1	2.433753014E-1
1.228042483E1	-7.856225967E-2	-1.781792641E-1	2.344293594E-1
1.228841429E1	-2.314949036E-2	-1.223998070E-1	2.365999222E-1
1.230460787E1	1.563864946E-2	3.257274628E-2	2.335481644E-1
1.231246145E1	2.493345737E-2	9.216213226E-2	2.530074120E-1
1.232039211E1	3.758776188E-2	1.370282173E-1	2.675266266E-1
1.232837111E1	4.695194960E-2	1.680693626E-1	2.537207603E-1
1.233658668E1	4.616808891E-2	2.086749077E-1	2.734413147E-1
1.234455488E1	7.325422764E-2	2.277383804E-1	2.596964836E-1
1.235259403E1	1.329230070E-1	2.323560715E-1	2.651062012E-1
1.236111748E1	2.247570455E-1	2.270245552E-1	2.440204620E-1
1.236911848E1	3.274236321E-1	2.215785980E-1	1.726508141E-1
1.237720129E1	3.875833750E-1	2.277951241E-1	6.049633026E-2
1.238529491E1	4.379987121E-1	2.075190544E-1	-6.595802307E-2
1.239320753E1	4.496453106E-1	1.975235939E-1	-1.797723770E-1
1.240112838E1	4.633956552E-1	1.907949448E-1	-2.665052414E-1
1.240905107E1	4.543222189E-1	1.285443306E-1	-3.231391907E-1
1.241726949E1	4.272312224E-1	8.042192459E-2	-3.710794449E-1
1.242524122E1	3.509499133E-1	-5.512237549E-3	-4.028205872E-1
1.243331511E1	2.637112439E-1	-7.415485382E-2	-4.326848984E-1
1.244184583E1	1.705785990E-1	-1.565599442E-1	-4.534664154E-1
1.244984306E1	1.064862013E-1	-1.985430717E-1	-4.921808243E-1
1.245792802E1	6.104543805E-2	-2.551894188E-1	-5.128717422E-1
1.246603825E1	2.451390028E-2	-2.743310928E-1	-4.991102219E-1
1.247388349E1	1.124423742E-2	-2.807965279E-1	-4.826145172E-1
1.248175595E1	1.591318846E-2	-2.627730370E-1	-4.371290207E-1
1.248981176E1	-5.705493689E-2	-2.210593224E-1	-3.775539398E-1
1.249804522E1	-1.253351569E-1	-1.520838737E-1	-3.215017319E-1
1.250604072E1	-2.416517735E-1	-5.986070633E-2	-2.389087677E-1
1.251408188E1	-3.244813085E-1	3.378200531E-2	-1.371459961E-1
1.252259187E1	-3.732042909E-1	1.168813705E-1	1.487255096E-2
1.253058160E1	-4.475183487E-1	1.992225647E-1	1.621961594E-1
1.253868675E1	-5.136564374E-1	2.798104286E-1	2.769670486E-1
1.254678456E1	-5.563362837E-1	3.342571259E-1	3.611907959E-1
1.255464965E1	-5.646389723E-1	3.787984848E-1	4.600501060E-1
1.256256068E1	-5.325519443E-1	4.069294930E-1	5.435309410E-1
1.257073188E1	-5.053527355E-1	4.244699478E-1	6.465120316E-1
1.257878361E1	-4.597592950E-1	4.256548882E-1	7.078628540E-1
1.258673057E1	-4.532824755E-1	4.176402092E-1	7.436933517E-1
1.259485888E1	-4.313484430E-1	3.796572685E-1	7.330136299E-1
1.260331633E1	-4.074655175E-1	3.449807167E-1	7.354154587E-1
1.261132014E1	-3.871775866E-1	3.192381859E-1	6.888294220E-1
1.261940733E1	-3.737563491E-1	2.653827667E-1	6.402354240E-1
1.262750375E1	-3.510743380E-1	1.984629631E-1	5.758624077E-1
1.263550272E1	-2.454487681E-1	1.001172066E-1	5.011663437E-1
1.265131618E1	-2.571958303E-2	-1.076927185E-1	3.846640587E-1
1.265954995E1	6.777012348E-2	-1.844720840E-1	3.347063065E-1
1.266752488E1	1.600780487E-1	-2.552452087E-1	2.805695534E-1
1.267557034E1	2.339625359E-1	-3.225874901E-1	2.195196152E-1
1.268406660E1	2.408237457E-1	-3.684020042E-1	1.529960632E-1
1.269206302E1	3.050854802E-1	-4.003672600E-1	8.544540405E-2
1.270014917E1	3.706588745E-1	-4.331045151E-1	5.272340775E-2
1.270825829E1	4.671055675E-1	-4.637980461E-1	3.618955612E-2
1.271610599E1	5.669688582E-1	-4.850168228E-1	1.461935043E-2
1.272398707E1	6.383482218E-1	-4.874906540E-1	3.815841675E-2
1.273217218E1	6.521083117E-1	-4.881072044E-1	7.801914215E-2
1.274029234E1	6.540831327E-1	-4.647302628E-1	1.253361702E-1
1.274818391E1	6.172639132E-1	-4.106521606E-1	1.580009460E-1
1.275632788E1	5.412333012E-1	-3.470416069E-1	1.571860313E-1
1.276480625E1	4.308770895E-1	-2.690320015E-1	1.540493965E-1
1.277279767E1	3.143712282E-1	-2.081875801E-1	9.539461136E-2
1.278089971E1	2.501000762E-1	-1.806612015E-1	4.167699814E-2
1.278899548E1	2.234143615E-1	-1.677651405E-1	2.824831009E-2
1.279688576E1	2.062846422E-1	-1.789245605E-1	1.683235168E-2
1.280478730E1	1.337355375E-1	-1.753101349E-1	-1.847791672E-2
1.281291368E1	5.552190542E-2	-1.662812233E-1	-7.267665863E-2
1.282096164E1	1.198792458E-2	-1.426553726E-1	-1.148757935E-1
1.282895838E1	-6.175106764E-2	-1.476259232E-1	-1.235809326E-1
1.283710703E1	-1.778920293E-1	-1.549391747E-1	-1.443090439E-1
1.284551725E1	-3.010289073E-1	-1.957826614E-1	-1.315598488E-1
1.285352110E1	-3.996762037E-1	-2.103891373E-1	-6.148910522E-2
1.286160706E1	-4.631122947E-1	-2.385172844E-1	6.405544281E-2
1.286970433E1	-4.823061824E-1	-2.441034317E-1	1.588034630E-1
1.287756664E1	-4.716681838E-1	-2.249383926E-1	2.681102753E-1
1.288541949E1	-4.527053833E-1	-2.026424408E-1	2.985439301E-1
1.289345757E1	-3.714426756E-1	-1.512784958E-1	3.002071381E-1
1.290168680E1	-2.706361413E-1	-8.821296692E-2	2.728786469E-1
1.290966899E1	-1.785894632E-1	-6.975650787E-3	2.593736649E-1
1.291783584E1	-8.132523298E-2	6.787490845E-2	2.353763580E-1
1.292626148E1	3.781735897E-3	1.385984421E-1	2.295961380E-1
1.293425702E1	8.082801104E-2	2.241377831E-1	2.300019264E-1
1.294234113E1	1.331629157E-1	3.023533821E-1	2.290019989E-1
1.295045002E1	1.890819073E-1	3.795394897E-1	2.355999947E-1
1.295826826E1	2.228872776E-1	4.480838776E-1	2.350635529E-1
1.296617484E1	2.109994292E-1	4.979453087E-1	2.365794182E-1
1.297421211E1	1.451079845E-1	5.054988861E-1	2.114906311E-1
1.298242530E1	6.223756075E-2	4.860548973E-1	2.105703354E-1
1.299040388E1	-1.000064611E-2	4.330773354E-1	1.759490967E-1
1.299846334E1	-6.219381094E-2	3.572554588E-1	1.393122673E-1
1.300698567E1	-1.247333288E-1	2.647452354E-1	5.130004883E-2
1.301497379E1	-1.749712825E-1	1.609263420E-1	-5.949640274E-2
1.302307163E1	-2.065457106E-1	6.131792068E-2	-1.914544106E-1
1.303116621E1	-1.632412672E-1	-4.216194153E-2	-2.780380249E-1
1.303898949E1	-1.095526218E-1	-1.197214127E-1	-3.369712830E-1
1.304691649E1	-7.400894165E-2	-1.821784973E-1	-3.835048676E-1
1.305524380E1	-4.689711332E-2	-2.179560661E-1	-4.035739899E-1
1.306343498E1	-6.404453516E-2	-2.292418480E-1	-4.233803749E-1
1.307110495E1	-8.012503386E-2	-2.013111115E-1	-4.211025238E-1
1.307918038E1	-1.001150608E-1	-1.458001137E-1	-4.180507660E-1
1.308768136E1	-9.799569845E-2	-7.975387573E-2	-4.024114609E-1
1.310376860E1	-3.631567955E-2	1.655101776E-3	-3.592453003E-1
1.311184276E1	-6.081998348E-2	2.575635910E-2	-2.748117447E-1
1.311977838E1	-7.652723789E-2	3.190040588E-2	-1.432514191E-1
1.312764664E1	-5.694746971E-2	-3.476142883E-3	-2.657318115E-2
1.313562118E1	-3.091198206E-2	-3.009080887E-2	6.327438354E-2
1.314386011E1	9.110987186E-3	-3.822660446E-2	1.000180244E-1
1.315186403E1	2.002787590E-2	-7.126379013E-2	1.121826172E-1
1.315988380E1	-1.243317127E-2	-1.025204659E-1	1.095900536E-1
1.316841502E1	-9.102672338E-2	-1.603875160E-1	6.856346130E-2
1.317641460E1	-1.579843760E-1	-1.679353714E-1	8.440971375E-3
1.318450156E1	-1.835982203E-1	-2.226390839E-1	-6.559753418E-2
1.319261383E1	-1.456990242E-1	-2.305536270E-1	-1.675958633E-1
1.320044272E1	-9.977048635E-2	-2.345228195E-1	-2.350807190E-1
1.320837318E1	-6.310558319E-2	-2.317533493E-1	-3.227949142E-1
1.321639903E1	-1.700103283E-2	-2.317085266E-1	-3.827228546E-1
1.322458572E1	3.320640326E-2	-2.156453133E-1	-3.696222305E-1
1.323257511E1	8.229207993E-2	-1.868948936E-1	-3.487386703E-1
1.324065884E1	1.395068765E-1	-1.673235893E-1	-2.843475342E-1
1.324916098E1	2.163579464E-1	-1.356086731E-1	-2.124729156E-1
1.325715048E1	2.818679810E-1	-1.121516228E-1	-1.531457901E-1
1.326525163E1	3.288046718E-1	-8.451032639E-2	-1.204013824E-1
1.327334644E1	3.549319208E-1	-5.297803879E-2	-5.938148499E-2
1.328118391E1	3.557652533E-1	-2.516031265E-2	-1.351070404E-2
1.328908757E1	3.288489580E-1	-2.222061157E-2	2.945518494E-2
1.329716518E1	2.891257405E-1	-2.746486664E-2	7.179832458E-2
1.330535545E1	2.304384708E-1	-5.033445358E-2	1.087331772E-1
1.331326888E1	1.497467160E-1	-1.048493385E-1	1.331362724E-1
1.332136111E1	5.462050438E-2	-1.642808914E-1	1.428546906E-1
1.332986144E1	-2.155804634E-2	-2.185544968E-1	1.095175743E-1
1.333786286E1	-9.632009268E-2	-2.342591286E-1	4.509258270E-2
1.334594748E1	-1.252757907E-1	-2.520198822E-1	-3.111076355E-2
1.335404179E1	-1.280800700E-1	-2.290067673E-1	-1.072492599E-1
1.336188611E1	-1.098312140E-1	-1.801009178E-1	-1.812458038E-1
1.336982845E1	-9.497201443E-2	-1.032953262E-1	-1.958665848E-1
1.337783753E1	-8.848297596E-2	-1.108264923E-2	-1.634054184E-1
1.338613018E1	-8.980947733E-2	6.773614883E-2	-9.593391418E-2
1.339397799E1	-1.213415861E-1	1.524329185E-1	-1.266956329E-2
1.340206572E1	-1.647650003E-1	1.985960007E-1	8.457279205E-2
1.341059279E1	-2.218472958E-1	2.688722610E-1	1.337699890E-1
1.341859052E1	-2.759861350E-1	3.127512932E-1	1.706905365E-1
1.342667756E1	-2.958677411E-1	3.270916939E-1	1.972036362E-1
1.343478913E1	-2.889827490E-1	3.114247322E-1	2.153973579E-1
1.344264484E1	-2.616643906E-1	2.609195709E-1	2.277784348E-1
1.345053972E1	-2.504683733E-1	2.186703682E-1	2.032680511E-1
1.345854041E1	-2.280864716E-1	1.705241203E-1	1.565079689E-1
1.346681734E1	-1.618369818E-1	1.549458504E-1	1.092357635E-1
1.347471972E1	-9.798425436E-2	1.462230682E-1	6.913757324E-2
1.348281157E1	-7.632595301E-2	1.538586617E-1	4.564857483E-2
1.349133452E1	-8.429241180E-2	1.421928406E-1	5.565166473E-2
1.349932359E1	-7.173943520E-2	1.245684624E-1	3.545665741E-2
1.350742352E1	-6.887000799E-2	9.393358231E-2	-2.211189270E-2
1.351551199E1	-2.795040607E-2	6.507396698E-2	-8.562755585E-2
1.352335657E1	3.933906555E-5	4.762125015E-2	-1.286249161E-1
1.353122107E1	5.797660351E-2	2.197313309E-2	-1.825227737E-1
1.353927830E1	1.051496863E-1	-9.912014008E-3	-1.997385025E-1
1.354764357E1	1.676968336E-1	-5.089092255E-2	-2.188720703E-1
1.355563918E1	2.192590833E-1	-1.012821198E-1	-1.970462799E-1
1.356354107E1	2.523462176E-1	-1.491155624E-1	-1.414213181E-1
1.357203052E1	2.881746292E-1	-1.940441132E-1	-4.453945160E-2
1.358003286E1	3.084764481E-1	-2.264199257E-1	7.918834686E-2
1.358811690E1	3.235298693E-1	-2.388296127E-1	1.987175941E-1
1.359621079E1	3.461133242E-1	-2.647848129E-1	2.637095451E-1
1.360405661E1	3.697375953E-1	-2.568025589E-1	3.097243309E-1
1.361190941E1	4.059664309E-1	-2.579679489E-1	3.200483322E-1
1.361994868E1	3.995246589E-1	-2.468605042E-1	3.018069267E-1
1.362819257E1	3.785121441E-1	-2.044520378E-1	2.429928780E-1
1.363612653E1	3.623168468E-1	-1.694674492E-1	2.151241302E-1
1.364421284E1	3.405021727E-1	-1.512799263E-1	1.585717201E-1
1.365275529E1	2.960870862E-1	-1.304655075E-1	1.118373871E-1
1.366075144E1	2.730110288E-1	-1.240649223E-1	6.028461456E-2
1.366883748E1	2.314749062E-1	-1.177005768E-1	4.236316681E-2
1.367694091E1	1.836414337E-1	-1.285543442E-1	3.381824493E-2
1.368477964E1	1.399779916E-1	-1.448621750E-1	5.358123779E-2
1.369267876E1	6.550312042E-2	-1.713681221E-1	1.279411316E-1
1.370068914E1	-2.374070883E-2	-2.100210190E-1	1.732645035E-1
1.370902441E1	-1.252323985E-1	-2.411980629E-1	2.353692055E-1
1.371686568E1	-2.195048332E-1	-2.547483444E-1	2.475819588E-1
1.372494945E1	-2.807732821E-1	-2.695350647E-1	2.101497650E-1
1.373347053E1	-3.061577082E-1	-2.756423950E-1	1.472015381E-1
1.374146940E1	-3.122808337E-1	-2.665405273E-1	8.222866058E-2
1.374957094E1	-2.997515798E-1	-1.970586777E-1	1.266384125E-2
1.375766590E1	-2.531318069E-1	-1.092553139E-1	-4.315471649E-2
1.376361307E1	-2.191013694E-1	-5.904293060E-2	-4.738140106E-2
1.376550107E1	-2.095245719E-1	-4.228353500E-2	-5.216979980E-2
1.377341868E1	-1.760954261E-1	3.919315338E-2	1.155471802E-2
1.378139045E1	-1.690592170E-1	1.137285233E-1	7.622909546E-2
1.378960384E1	-1.846631765E-1	1.529126167E-1	1.323857307E-1
1.379755257E1	-2.458381057E-1	2.146992683E-1	1.491389275E-1
1.380566576E1	-3.105461597E-1	2.728147507E-1	1.312069893E-1
1.381418852E1	-3.426798582E-1	2.935376167E-1	1.047515869E-1
1.382218780E1	-3.372761607E-1	3.039622307E-1	9.200477600E-2
1.383027755E1	-2.736312747E-1	2.801074982E-1	9.300327301E-2
1.383837340E1	-2.137182355E-1	2.608528137E-1	7.719135284E-2
1.384621788E1	-1.375628710E-1	2.059960365E-1	5.704116821E-2
1.385410691E1	-6.891518831E-2	1.393146515E-1	3.960514069E-2
1.386210149E1	-9.878158569E-3	6.330823898E-2	2.494335175E-2
1.387047438E1	5.207741261E-2	9.096145630E-3	-1.333045959E-2
1.387829003E1	5.767375231E-2	-4.673957825E-2	-8.448028564E-2
1.388638357E1	5.070281029E-2	-7.577562332E-2	-1.911678314E-1
1.389493102E1	1.299196482E-2	-7.814025879E-2	-3.072519302E-1
1.390292076E1	-2.380222082E-2	-8.681678772E-2	-4.084672928E-1
1.391101036E1	-6.204456091E-2	-8.193826675E-2	-4.967126846E-1
1.391910326E1	-4.959166050E-2	-7.740926743E-2	-5.500726700E-1
1.392691849E1	5.326807499E-3	-3.773117065E-2	-5.567607880E-1
1.393482468E1	9.712898731E-2	-1.924991608E-3	-5.148019791E-1
1.394286399E1	1.915268302E-1	5.326080322E-2	-4.054355621E-1
1.395110361E1	2.667461038E-1	9.590005875E-2	-2.650985718E-1
1.395901611E1	3.091549873E-1	1.230144501E-1	-1.110391617E-1
1.396713703E1	3.172958195E-1	1.278238297E-1	2.821540833E-2
1.397564825E1	2.754080296E-1	1.295218468E-1	1.214599609E-1
1.398362788E1	2.229855657E-1	1.259264946E-1	1.854815483E-1
1.399173532E1	1.718268991E-1	1.268196106E-1	1.845355034E-1
1.399982859E1	1.454008818E-1	1.369395256E-1	1.425676346E-1
1.400768953E1	1.264300942E-1	1.157302856E-1	7.170248032E-2
1.401560964E1	1.263446808E-1	9.184646606E-2	7.010316849E-2
1.402356561E1	1.184376478E-1	3.919315338E-2	2.544307709E-2
1.403185618E1	8.362013102E-2	5.589485168E-3	-2.642059326E-2
1.403978557E1	1.314687729E-2	-4.471063614E-2	-4.953479767E-2
1.404782368E1	-6.402307749E-2	-7.847976685E-2	-5.849361420E-2
1.405633828E1	-1.070989370E-1	-1.266851425E-1	-3.403568268E-2
1.406433828E1	-1.402047873E-1	-1.534175873E-1	4.697799683E-3
1.407242302E1	-1.589764357E-1	-1.987671852E-1	7.888793945E-3
1.408051905E1	-1.418054700E-1	-2.144427299E-1	-5.027770996E-3
1.408842476E1	-1.175297499E-1	-2.219758034E-1	-4.360866547E-2
1.409630818E1	-8.622086048E-2	-2.191629410E-1	-7.685947418E-2
1.410429357E1	-6.472432613E-2	-2.109117508E-1	-9.047794342E-2
1.411249457E1	-5.296105146E-2	-1.874818802E-1	-1.346445084E-1
1.412049738E1	-9.358173609E-2	-1.778497696E-1	-1.425323486E-1
1.412853303E1	-1.334203482E-1	-1.530652046E-1	-1.403818130E-1
1.413707394E1	-1.455839276E-1	-1.319155693E-1	-1.255922318E-1
1.414507028E1	-1.472916007E-1	-1.012282372E-1	-9.894466400E-2
1.415315628E1	-1.003625989E-1	-8.718395233E-2	-6.751060486E-2
1.416126398E1	-2.928072214E-2	-7.847118378E-2	2.098369598E-2
1.416910768E1	5.329841375E-2	-9.224939346E-2	9.211921692E-2
1.417694091E1	1.110162735E-1	-1.023721695E-1	1.984691620E-1
1.418500180E1	1.297190189E-1	-9.924268723E-2	2.418775558E-1
1.419322053E1	1.118988395E-1	-1.212029457E-1	2.965283394E-1
1.420119072E1	1.157195568E-1	-1.370158195E-1	3.384900093E-1
1.420928261E1	7.476055622E-2	-1.391172409E-1	3.679542542E-1
1.421779028E1	2.980959415E-2	-1.629567146E-1	3.636956215E-1
1.422575968E1	-3.833472729E-2	-1.627478600E-1	3.498506546E-1
1.423387432E1	-7.242488861E-2	-1.668839455E-1	2.907590866E-1
1.424196628E1	-1.204932332E-1	-1.538743973E-1	2.654180527E-1
1.424981876E1	-1.114842892E-1	-1.121778488E-1	1.898055077E-1
1.425770057E1	-8.706849813E-2	-8.776521683E-2	1.594548225E-1
1.426569941E1	-1.390928030E-2	-6.442499161E-2	1.811928749E-1
1.427395645E1	5.346214771E-2	-3.015565872E-2	2.286472321E-1
1.428186222E1	6.555247307E-2	-1.126384735E-2	2.706313133E-1
1.428996391E1	6.324487925E-2	4.328536987E-2	2.956748009E-1
1.429847824E1	8.981436491E-2	8.590698242E-2	3.231287003E-1
1.430647414E1	1.189848185E-1	1.361150742E-1	3.125214577E-1
1.431457040E1	1.534286737E-1	1.650447845E-1	2.589616776E-1
1.432266574E1	2.215079069E-1	2.084364891E-1	1.647481918E-1
1.433058426E1	2.391767502E-1	2.133545876E-1	1.183118820E-1
1.433844484E1	2.606638074E-1	2.203664780E-1	5.499887466E-2
1.434668326E1	2.729400992E-1	2.123198509E-1	1.295995712E-2
1.435467888E1	2.640412450E-1	2.039637566E-1	-9.947776794E-3
1.436268761E1	2.121233344E-1	1.882624626E-1	-4.004955292E-3
1.437069495E1	1.490778923E-1	1.512379646E-1	2.618360519E-2
1.437922267E1	7.805991173E-2	8.589315414E-2	1.046094894E-1
1.438722067E1	2.032804489E-2	4.598236084E-2	1.432452202E-1
1.439530913E1	-9.367346764E-3	-1.142168045E-2	1.182231903E-1
1.440342009E1	-1.774799824E-2	-4.064512253E-2	8.950042725E-2
1.441125811E1	-4.842197895E-2	-6.079673767E-2	6.873130798E-3
1.441914864E1	-3.325968981E-2	-5.567646027E-2	-5.329704285E-2
1.442717141E1	1.977211237E-2	-7.619380951E-2	-9.378385544E-2
1.443537626E1	8.878529072E-2	-1.012868881E-1	-1.029248238E-1
1.444335349E1	1.135690808E-1	-9.764719009E-2	-8.562183380E-2
1.445157230E1	9.649145603E-2	-8.949565887E-2	-5.883026123E-2
1.445997059E1	8.764523268E-2	-9.825372696E-2	-1.526069641E-2
1.446795959E1	8.761739731E-2	-1.048736572E-1	3.058576584E-2
1.447606005E1	8.755034208E-2	-1.161394119E-1	8.849906921E-2
1.448415636E1	6.911742687E-2	-1.487846375E-1	1.009569168E-1
1.449195999E1	4.725635052E-2	-1.572051048E-1	1.039066315E-1
1.449987588E1	4.576814175E-2	-1.720972061E-1	7.610750198E-2
1.450790295E1	5.698859692E-2	-1.912312508E-1	3.185892105E-2
1.451612653E1	5.170643330E-2	-1.789255142E-1	-1.938152313E-2
1.452412241E1	2.946418524E-2	-1.570224762E-1	-1.160860062E-1
1.453214560E1	2.867871523E-2	-1.334047318E-1	-1.869258881E-1
1.454068274E1	-2.004683018E-2	-8.410358429E-2	-2.079343796E-1
1.454868570E1	-5.201160908E-2	-6.220769882E-2	-1.865987778E-1
1.455677270E1	-1.198874712E-1	-2.902507782E-2	-1.298198700E-1
1.456486897E1	-1.901414990E-1	-1.078939438E-2	-7.344818115E-2
1.457272303E1	-2.258533835E-1	9.347438812E-3	-1.272487640E-2
1.458057068E1	-2.719990015E-1	-1.896381378E-3	4.290199280E-2
1.458860322E1	-3.183850646E-1	8.469581604E-3	1.055674553E-1
1.459693218E1	-3.620744944E-1	-2.440452576E-3	9.156751633E-2
1.460492622E1	-3.577464223E-1	-2.752399445E-2	5.353116989E-2
1.461291026E1	-3.555263281E-1	-1.222085953E-2	-4.123687744E-3
1.462143417E1	-3.197191358E-1	-9.257316589E-3	-1.677989960E-2
1.462943136E1	-2.721792459E-1	-7.026672363E-3	3.582000732E-3
1.463751813E1	-2.181093097E-1	3.264045715E-2	1.381206512E-2
1.464562694E1	-1.676492095E-1	6.159257889E-2	6.405925751E-2
1.465355307E1	-1.160504222E-1	7.975482941E-2	1.279354095E-1
1.466135245E1	-6.299281120E-2	1.063160896E-1	2.054414749E-1
1.466937495E1	-2.438586950E-2	1.081304550E-1	2.680206299E-1
1.467757395E1	-1.658529043E-2	1.094880104E-1	3.039040565E-1
1.468555141E1	-3.923368454E-2	1.035838127E-1	3.157033920E-1
1.469364241E1	-5.632233620E-2	9.525585175E-2	3.058462143E-1
1.470216836E1	-1.471388340E-2	7.956075668E-2	2.885279655E-1
1.471015970E1	6.324487925E-2	4.995393753E-2	2.714557648E-1
1.471826463E1	1.106486917E-1	2.308034897E-2	2.258095741E-1
1.472636244E1	8.750289679E-2	4.019737244E-3	1.423993111E-1
1.473421549E1	7.928723097E-2	-7.196903229E-3	3.808689117E-2
1.474214426E1	9.847319126E-2	-5.856466293E-2	-8.250236511E-3
1.475011457E1	1.241580248E-1	-9.241485596E-2	-6.834602356E-2
1.475832276E1	1.591547728E-1	-1.324563026E-1	-1.205434799E-1
1.476627591E1	1.593560576E-1	-1.735968590E-1	-1.788692474E-1
1.477437468E1	1.953250170E-1	-1.842918396E-1	-2.500715256E-1
1.478289317E1	2.281615138E-1	-2.025771141E-1	-3.027644157E-1
1.479089747E1	2.935920954E-1	-1.956849098E-1	-2.776088715E-1
1.479898609E1	3.692643642E-1	-1.591482162E-1	-2.202315331E-1
1.480708078E1	3.770183325E-1	-1.202683449E-1	-1.553621292E-1
1.481494572E1	3.617896438E-1	-8.474302292E-2	-6.948757172E-2
1.482282157E1	3.603568673E-1	-4.543113708E-2	8.538722992E-3
1.483082199E1	3.136451244E-1	-1.195383072E-2	5.945062637E-2
1.483911034E1	2.813983560E-1	1.587009430E-2	9.056615829E-2
1.484701580E1	2.102051377E-1	3.100824356E-2	9.465503693E-2
1.485510503E1	1.147187352E-1	2.199459076E-2	7.682609558E-2
1.486361999E1	1.706087589E-2	8.232116699E-3	3.720808029E-2
1.487163420E1	-4.197239876E-2	-8.759498596E-4	1.638126373E-2
1.487972132E1	-8.017468452E-2	4.843711853E-3	-1.147556305E-2
1.488783274E1	-1.125636101E-1	-3.110408783E-3	-8.444404602E-2
1.489573876E1	-1.446394920E-1	1.066493988E-2	-2.004051208E-1
1.490352653E1	-1.745662689E-1	2.669525146E-2	-2.685632706E-1
1.491159457E1	-2.072619796E-1	2.589082718E-2	-3.032169342E-1
1.491978841E1	-2.210548520E-1	6.228446960E-3	-2.993335724E-1
1.492775053E1	-2.230620384E-1	-3.568172455E-3	-2.880487442E-1
1.493586268E1	-2.179903984E-1	-1.532697678E-2	-2.525167465E-1
1.494435922E1	-2.104334235E-1	-2.914476395E-2	-1.904230118E-1
1.495234997E1	-2.244119048E-1	-9.420394897E-3	-1.402902603E-1
1.496044790E1	-2.450279593E-1	1.258182526E-2	-1.333837509E-1
1.496853936E1	-2.267807722E-1	4.111289978E-2	-1.102294922E-1
1.497634872E1	-1.937695146E-1	1.139616966E-1	-6.877136230E-2
1.498427768E1	-1.748799682E-1	1.690583229E-1	-5.196666718E-2
1.499228718E1	-1.414471269E-1	2.446651459E-1	7.198333740E-3
1.500049364E1	-1.076872349E-1	2.953853607E-1	6.088972092E-2
1.500846818E1	-1.139160395E-1	3.237094879E-1	1.043462753E-1
1.501660311E1	-1.254218221E-1	2.983489037E-1	1.373419762E-1
1.502504943E1	-1.509646773E-1	2.618317604E-1	1.881198883E-1
1.503304993E1	-1.716418862E-1	2.005076408E-1	2.308664322E-1
1.504113517E1	-2.227703333E-1	1.191091537E-1	2.487077713E-1
1.504923147E1	-2.474150062E-1	6.398057938E-2	1.967844963E-1
1.505708522E1	-2.640860677E-1	2.358675003E-2	1.474051476E-1
1.506503687E1	-2.708430886E-1	2.701282501E-3	6.706571579E-2
1.507300576E1	-2.688689232E-1	-1.760768890E-2	3.986549377E-2
1.508122368E1	-2.792225480E-1	-3.064012527E-2	2.949857712E-2
1.508915976E1	-3.144221306E-1	-4.560995102E-2	3.148794174E-2
1.509728141E1	-3.261114955E-1	-4.115009308E-2	2.172231674E-2
1.510578230E1	-3.111804128E-1	-5.835342407E-2	5.731010437E-2
1.511378255E1	-2.451217771E-1	-7.309055328E-2	9.549570084E-2
1.512186732E1	-1.680529118E-1	-9.021949768E-2	1.744728088E-1
1.512997670E1	-1.018431187E-1	-1.069259644E-1	2.059974670E-1
1.513793761E1	-1.125097275E-2	-9.685087204E-2	2.260875702E-1
1.514579907E1	7.287657261E-2	-1.295914650E-1	2.298040390E-1
1.515374295E1	1.794697046E-1	-1.739859581E-1	2.458901405E-1
1.516207922E1	2.972584367E-1	-2.230906487E-1	2.357850075E-1
1.517004695E1	3.692066669E-1	-2.767224312E-1	2.115359306E-1
1.517801703E1	4.181106091E-1	-2.987356186E-1	1.399407387E-1
1.518651628E1	4.619079828E-1	-3.366694450E-1	1.075668335E-1
1.519450332E1	4.600884318E-1	-3.232750893E-1	9.780788422E-2
1.520260309E1	4.815272987E-1	-3.299527168E-1	8.227729797E-2
1.521069740E1	4.882543981E-1	-3.231406212E-1	8.251380920E-2
1.521859484E1	5.218511820E-1	-2.912635803E-1	8.855056763E-2
1.522666318E1	4.939232469E-1	-2.677407265E-1	7.407665253E-2
1.523450972E1	4.702149630E-1	-2.222108841E-1	7.193756104E-2
1.524280341E1	4.747804105E-1	-1.595063210E-1	6.559181213E-2
1.525064803E1	5.041056871E-1	-9.498739243E-2	8.050251007E-2
1.525871499E1	5.064270496E-1	-2.882528305E-2	7.839822769E-2
1.526721559E1	4.132622182E-1	2.643060684E-2	7.071733475E-2
1.527521878E1	3.105282784E-1	8.211183548E-2	1.379399300E-1
1.528330636E1	2.431359291E-1	1.150388718E-1	2.016811371E-1
1.529140236E1	1.240898967E-1	1.212410927E-1	2.001380920E-1
1.529929234E1	2.734482288E-3	1.302843094E-1	1.792688370E-1
1.530720472E1	-8.101743460E-2	1.329836845E-1	1.609959602E-1
1.531516380E1	-1.374011636E-1	1.081528664E-1	1.408491135E-1
1.532350203E1	-1.911398172E-1	9.177064896E-2	1.046071053E-1
1.533154422E1	-2.506063581E-1	5.968093872E-2	5.459737778E-2
1.533952984E1	-2.978240252E-1	3.280162811E-2	-2.315521240E-3
1.534795632E1	-3.380876184E-1	3.378868103E-3	-1.861572266E-3
1.535595336E1	-3.358464241E-1	-2.880764008E-2	7.957935333E-3
1.536403770E1	-2.956086993E-1	-6.582736969E-2	-6.164550781E-3
1.537214597E1	-3.143801093E-1	-7.435846329E-2	-1.096820831E-2
1.538007941E1	-3.690366745E-1	-7.366037369E-2	-2.580642700E-2
1.538789337E1	-3.967480659E-1	-4.199171066E-2	-4.582881927E-2
1.539592030E1	-3.807811141E-1	6.168365479E-3	-4.477787018E-2
1.540416491E1	-3.415111303E-1	5.407953262E-2	-4.407310486E-2
1.541224222E1	-2.834430337E-1	1.085677147E-1	-4.138660431E-2
1.542020568E1	-2.193372250E-1	1.335825920E-1	-7.989883423E-3
1.542867905E1	-1.959220767E-1	1.502189636E-1	5.328226089E-2
1.543666436E1	-1.883228421E-1	1.517791748E-1	5.912876129E-2
1.544476424E1	-1.578263640E-1	1.615085602E-1	7.844781876E-2
1.545285855E1	-7.368004322E-2	1.651034355E-1	1.185073853E-1
1.546070172E1	-6.461340189E-2	1.557788849E-1	1.316461563E-1
1.546865445E1	-1.103647947E-1	1.287989616E-1	1.489081383E-1
1.547660864E1	-1.509140134E-1	8.481788635E-2	1.467914581E-1
1.548484807E1	-1.551438570E-1	4.552984238E-2	1.565351486E-1
1.549278103E1	-1.264483333E-1	2.263545990E-3	1.261916161E-1
1.550085637E1	-1.047258377E-1	-4.020357132E-2	7.963705063E-2
1.550935997E1	-9.007400274E-2	-7.263040543E-2	3.578042984E-2
1.551736143E1	-7.860541344E-2	-1.046981812E-1	4.225254059E-3
1.552544539E1	-2.479326725E-2	-1.125020981E-1	-2.702331543E-2
1.553353909E1	-2.618849277E-3	-1.057348251E-1	-5.328178406E-2
1.554144599E1	1.924127340E-2	-8.182096481E-2	-8.163690567E-2
1.554928911E1	5.277961493E-2	-4.319572449E-2	-1.168918610E-1
1.555736099E1	5.969560146E-2	-1.999855042E-3	-1.112952232E-1
1.556551853E1	7.129269838E-2	8.131504059E-3	-8.169984818E-2
1.557356291E1	6.617331505E-2	1.846599579E-2	-4.478311539E-2
1.558165903E1	8.505308628E-2	2.674198151E-2	-1.481151581E-2
1.559007932E1	9.961485863E-2	1.877832413E-2	3.701782227E-2
1.559807397E1	9.309476614E-2	-5.211830139E-3	4.622697830E-2
1.560615782E1	1.391739845E-1	-4.018926620E-2	1.304531097E-2
1.561426551E1	1.504827738E-1	-6.967067719E-2	-1.470661163E-2
1.562210287E1	1.834390759E-1	-9.916973114E-2	-1.109123230E-2
1.563022626E1	2.756528854E-1	-1.334304810E-1	3.357315063E-2
1.563811218E1	3.152927160E-1	-1.417479515E-1	6.144952774E-2
1.564652701E1	3.571097255E-1	-1.384177208E-1	9.655475616E-2
1.565421472E1	3.475844264E-1	-1.069345474E-1	9.064531326E-2
1.566231841E1	3.458759189E-1	-7.595539093E-2	1.013197899E-1
1.567080743E1	3.642845452E-1	-9.279012680E-2	1.313252449E-1
1.567879428E1	3.359966874E-1	-1.163215637E-1	1.256213188E-1
1.568689359E1	2.546995878E-1	-1.294078827E-1	8.200597763E-2
1.569498939E1	1.782447100E-1	-1.392378807E-1	2.677249908E-2
1.570286895E1	1.109641194E-1	-1.412868500E-1	-2.824211121E-2
1.571080645E1	8.279633522E-2	-1.169013977E-1	-6.411409378E-2
1.571889191E1	6.439071894E-2	-8.578968048E-2	-3.808736801E-2
1.572701734E1	3.875994682E-2	-3.611469269E-2	-3.401994705E-2
1.573520210E1	-5.390352011E-2	5.555057526E-2	-2.595710754E-2
1.574309368E1	-1.588366628E-1	1.125340462E-1	-5.699539185E-2
1.575150197E1	-2.451686859E-1	1.661806107E-1	-8.386039734E-2
1.575950012E1	-3.220705390E-1	2.528343201E-1	-1.230478287E-1
1.576758332E1	-3.737846017E-1	3.125514984E-1	-1.532096863E-1
1.577567720E1	-4.516646862E-1	4.026818275E-1	-2.032747269E-1
1.578355568E1	-4.905583858E-1	4.776668549E-1	-2.517943382E-1
1.579162372E1	-5.240480304E-1	5.612587929E-1	-3.036885262E-1
1.579951060E1	-5.222089887E-1	6.417875290E-1	-3.801875114E-1
1.580766495E1	-5.266221166E-1	7.500748634E-1	-4.646625519E-1
1.581578772E1	-5.316264033E-1	8.718461990E-1	-5.593047142E-1
1.582374595E1	-5.337054133E-1	9.740443230E-1	-6.540799141E-1
1.583222316E1	-5.094986558E-1	1.071450233E0	-7.653880119E-1
1.584022020E1	-4.791363478E-1	1.160317898E0	-8.540759087E-1
1.584830505E1	-4.560369253E-1	1.226656437E0	-9.534740448E-1
1.585641374E1	-4.141033888E-1	1.290036201E0	-1.029741287E0
1.586427341E1	-3.702557683E-1	1.335362434E0	-1.083627224E0
1.587224495E1	-3.249687552E-1	1.372102737E0	-1.122347355E0
1.588019907E1	-3.114920259E-1	1.381455898E0	-1.148061752E0
1.588848841E1	-2.914575934E-1	1.399328709E0	-1.172769070E0
1.589650191E1	-3.541204929E-1	1.403944016E0	-1.199179173E0
1.590444307E1	-4.131818414E-1	1.397227287E0	-1.213500500E0
1.591294012E1	-4.829089046E-1	1.381080151E0	-1.182796955E0
1.592092989E1	-5.152291059E-1	1.311634064E0	-1.062390804E0
1.592903066E1	-5.398169756E-1	1.166202545E0	-8.391413689E-1
1.593712458E1	-6.152424216E-1	1.063934803E0	-4.418697357E-1
1.594497522E1	-5.978224874E-1	9.087953568E-1	-1.416673660E-1
1.595291560E1	-4.532424212E-1	6.558599472E-1	2.558369637E-1
1.596090076E1	-3.066736460E-1	4.516077042E-1	5.473661423E-1
1.596915480E1	-1.444188356E-1	2.509012222E-1	7.149667740E-1
1.597712553E1	-4.577994347E-3	5.625200272E-2	8.552007675E-1
1.598516522E1	8.924078941E-2	-1.502075195E-1	9.988179207E-1
1.599363735E1	1.162866354E-1	-3.838543892E-1	1.092504025E0
1.600163870E1	1.125932932E-1	-6.431937218E-1	1.225575924E0
1.601782012E1	1.618425846E-1	-1.098606586E0	1.503101826E0
1.602568830E1	1.855546236E-1	-1.292172909E0	1.631386757E0
1.603381891E1	2.284095287E-1	-1.471530914E0	1.766867161E0
1.604159595E1	2.897907495E-1	-1.647398472E0	1.858884335E0
1.604979834E1	4.083333015E-1	-1.814333916E0	1.935873032E0
1.605783599E1	4.941569567E-1	-1.969572544E0	1.966875553E0
1.606586607E1	5.578300953E-1	-2.070256233E0	1.862696171E0
1.607436797E1	6.515252590E-1	-2.110023022E0	1.639343262E0
1.608236335E1	7.377479076E-1	-2.071868420E0	1.241012096E0
1.609044693E1	8.998620510E-1	-1.993535519E0	8.096437454E-1
1.609855535E1	1.016967773E0	-1.924295902E0	4.349265099E-1
1.610642503E1	1.088565469E0	-1.849062920E0	9.616899490E-2
1.611428422E1	1.053122997E0	-1.768324852E0	-1.545147896E-1
1.612237464E1	9.531786442E-1	-1.664063931E0	-3.781437874E-1
1.613058210E1	8.927665949E-1	-1.630478859E0	-5.422673225E-1
1.613859472E1	8.194063902E-1	-1.549462318E0	-6.463713646E-1
1.614662122E1	8.261740208E-1	-1.479239941E0	-7.544574738E-1
1.615509024E1	8.714027405E-1	-1.400405884E0	-8.446092606E-1
1.616308854E1	9.110113382E-1	-1.328466892E0	-8.981971741E-1
1.617118558E1	9.352555275E-1	-1.244173050E0	-9.985194206E-1
1.617927747E1	9.737210274E-1	-1.144006729E0	-1.093241215E0
1.618714580E1	9.996178746E-1	-1.026515007E0	-1.209295273E0
1.619506237E1	9.863295555E-1	-8.965759277E-1	-1.323774338E0
1.620304914E1	9.271860719E-1	-7.433018684E-1	-1.431030273E0
1.621126464E1	8.848487139E-1	-6.380581856E-1	-1.447038174E0
1.621932434E1	8.608431816E-1	-5.408840179E-1	-1.391157627E0
1.622730453E1	7.957909703E-1	-4.882998466E-1	-1.245701313E0
1.623578797E1	6.541072726E-1	-4.016833305E-1	-9.902052879E-1
1.624379154E1	4.893617034E-1	-3.260917664E-1	-7.016716003E-1
1.625187735E1	3.484300375E-1	-2.555084229E-1	-4.440326691E-1
1.625997247E1	1.220613718E-1	-1.444015503E-1	-2.170987129E-1
1.626790599E1	-1.469118595E-1	-5.229234695E-2	-6.173133850E-2
1.627568587E1	-4.083724022E-1	9.249114990E-2	9.611701965E-2
1.628373730E1	-6.120342016E-1	2.442040443E-1	2.482399940E-1
1.629207295E1	-7.598357201E-1	4.369368553E-1	4.278998375E-1
1.630005676E1	-7.917913198E-1	6.417298317E-1	5.305581093E-1
1.630799603E1	-7.413833141E-1	9.265270233E-1	5.058383942E-1
1.631651993E1	-6.555243731E-1	1.233842850E0	3.429203033E-1
1.632451612E1	-5.426583290E-1	1.565713882E0	1.138944626E-1
1.633260124E1	-3.939986229E-1	1.845327854E0	-1.531567574E-1
1.634070993E1	-2.501046658E-1	2.033936977E0	-3.778190613E-1
1.634855872E1	-1.884750128E-1	2.180842876E0	-5.524849892E-1
1.635641876E1	-2.536742687E-1	2.248778343E0	-6.079363823E-1
1.636450618E1	-3.547044992E-1	2.111508369E0	-3.735089302E-1
1.637269164E1	-6.029816866E-1	1.829999924E0	-1.042075157E-1
