"Time (s)"	"Acceleration x (m/s^2)"	"Acceleration y (m/s^2)"	"Acceleration z (m/s^2)"
6.796807000E-3	-2.322375536E0	2.346317768E0	8.949525833E0
9.708933000E-3	-2.310404539E0	2.303221941E0	9.050082207E0
1.088346100E-2	-2.310404539E0	2.269703150E0	9.145850182E0
1.374743300E-2	-2.308010340E0	2.236184359E0	9.234436035E0
1.492915400E-2	-2.293645144E0	2.209848166E0	9.306262016E0
1.780512500E-2	-2.281674147E0	2.188300371E0	9.366117477E0
1.937046100E-2	-2.255337954E0	2.188300371E0	9.452308655E0
2.186119200E-2	-2.250549555E0	2.193088770E0	9.481039047E0
2.304311500E-2	-2.243366957E0	2.200271368E0	9.538499832E0
2.592274100E-2	-2.240972757E0	2.207453966E0	9.600749016E0
2.774984600E-2	-2.245761156E0	2.233790159E0	9.677363396E0
2.996112500E-2	-2.236184359E0	2.262520552E0	9.703699112E0
3.109834600E-2	-2.233790159E0	2.281674147E0	9.706093788E0
3.401947100E-2	-2.243366957E0	2.300827742E0	9.696516991E0
3.565615400E-2	-2.250549555E0	2.317587137E0	9.682151794E0
3.807819200E-2	-2.243366957E0	2.329558372E0	9.653421402E0
3.924061500E-2	-2.236184359E0	2.346317768E0	9.607931137E0
4.215474100E-2	-2.231395960E0	2.343923569E0	9.562441826E0
4.342550000E-2	-2.231395960E0	2.336740971E0	9.516951561E0
4.602392300E-2	-2.221819162E0	2.336740971E0	9.469067574E0
4.746984600E-2	-2.202665567E0	2.341529369E0	9.416395187E0
5.038835600E-2	-2.188300371E0	2.336740971E0	9.375694275E0
5.191561500E-2	-2.181117773E0	2.327163935E0	9.349357605E0
5.442239400E-2	-2.176329374E0	2.317587137E0	9.351752281E0
5.562623100E-2	-2.173935175E0	2.308010340E0	9.387664795E0
5.847970200E-2	-2.169146776E0	2.298433542E0	9.457097054E0
6.002423100E-2	-2.154781580E0	2.286462545E0	9.533711433E0
6.251574100E-2	-2.133233786E0	2.279279947E0	9.612719536E0
6.365392300E-2	-2.104503393E0	2.284068346E0	9.674968719E0
6.657377900E-2	-2.063801765E0	2.286462545E0	9.727641106E0
6.817219200E-2	-2.001552582E0	2.293645144E0	9.794678688E0
7.062773100E-2	-1.984793186E0	2.298433542E0	9.806650162E0
7.176607700E-2	-1.951274395E0	2.308010340E0	9.832986832E0
7.468627900E-2	-1.927332401E0	2.315192938E0	9.859322548E0
7.635123100E-2	-1.865083098E0	2.308010340E0	9.883264542E0
7.871803800E-2	-1.843535304E0	2.312798738E0	9.890447617E0
7.990757700E-2	-1.800439715E0	2.312798738E0	9.902418137E0
8.278416400E-2	-1.747767210E0	2.303221941E0	9.909601212E0
8.405746100E-2	-1.685518026E0	2.310404539E0	9.916783333E0
8.680746100E-2	-1.599326730E0	2.319981337E0	9.897629738E0
8.816434600E-2	-1.532289028E0	2.262520552E0	9.849745750E0
9.100197100E-2	-1.628057122E0	2.231395960E0	9.856928825E0
9.255673100E-2	-1.620874524E0	2.257732153E0	9.868899345E0
9.505166300E-2	-1.527500629E0	2.300827742E0	9.883264542E0
9.631200000E-2	-1.436521053E0	2.312798738E0	9.852140427E0
9.910927900E-2	-1.379060149E0	2.279279947E0	9.749189377E0
1.006467690E-1	-1.323993564E0	2.240972757E0	9.605537415E0
1.031459710E-1	-1.254561663E0	2.212242365E0	9.461885452E0
1.043161540E-1	-1.187524080E0	2.193088770E0	9.342175484E0
1.072040480E-1	-1.120486379E0	2.171540976E0	9.251194954E0
1.088071540E-1	-1.055842996E0	2.149993181E0	9.184157372E0
1.112365480E-1	-1.003170490E0	2.106897593E0	9.145850182E0
1.124506540E-1	-9.504981041E-1	2.030282974E0	9.109937668E0
1.152944330E-1	-9.050082564E-1	1.944091797E0	9.107542992E0
1.170383460E-1	-8.667010069E-1	1.872265697E0	9.141061783E0
1.193761250E-1	-8.355764151E-1	1.838746905E0	9.179368973E0
1.205440380E-1	-8.020575643E-1	1.829170108E0	9.193734169E0
1.234332400E-1	-7.805097699E-1	1.819593310E0	9.179368973E0
1.247451920E-1	-7.541735172E-1	1.812410712E0	9.138668060E0
1.272736540E-1	-7.230489254E-1	1.802833915E0	9.093177795E0
1.287899610E-1	-6.847416759E-1	1.795651317E0	9.045293808E0
1.316512790E-1	-6.320692301E-1	1.788468719E0	8.990227699E0
1.332613840E-1	-5.530605912E-1	1.762132406E0	8.911218643E0
1.356868560E-1	-5.291185975E-1	1.747767210E0	8.889671326E0
1.368782300E-1	-4.668693244E-1	1.707065821E0	8.860940933E0
1.397442020E-1	-3.950432837E-1	1.659181833E0	8.870517731E0
1.416719610E-1	-2.753331959E-1	1.575384736E0	8.932766914E0
1.437951250E-1	-2.418143749E-1	1.544260144E0	8.963891029E0
1.449544610E-1	-1.819593310E-1	1.465251446E0	9.033323288E0
1.478523560E-1	-1.197100878E-1	1.386242747E0	9.119514465E0
1.494585770E-1	-4.788403213E-2	1.300051570E0	9.236829758E0
1.518882020E-1	-2.873042040E-2	1.278503656E0	9.272743225E0
1.530915380E-1	1.436521020E-2	1.244984865E0	9.339780807E0
1.559452020E-1	9.576806426E-2	1.223437071E0	9.397241592E0
1.576396920E-1	1.604115069E-1	1.233013868E0	9.411606789E0
1.600103940E-1	2.059013397E-1	1.249773264E0	9.399636269E0
1.613183460E-1	2.418143749E-1	1.266532660E0	9.373299599E0
1.640678170E-1	2.753331959E-1	1.285686255E0	9.339780807E0
1.654123070E-1	3.016694188E-1	1.321599364E0	9.282320023E0
1.681440770E-1	3.208230138E-1	1.364694953E0	9.205705643E0
1.694471920E-1	3.208230138E-1	1.393425345E0	9.129091263E0
1.722996630E-1	3.447650373E-1	1.424550056E0	9.088389397E0
1.739336150E-1	3.615244627E-1	1.450886250E0	9.074024200E0
1.763335860E-1	3.351882398E-1	1.465251446E0	9.085995674E0
1.775370380E-1	2.681505978E-1	1.446097851E0	9.119514465E0
1.803918940E-1	1.867477298E-1	1.386242747E0	9.153033257E0
1.819413460E-1	1.316810995E-1	1.335964561E0	9.210494041E0
1.844288170E-1	9.576806426E-2	1.312022567E0	9.291896820E0
1.856665380E-1	7.422025502E-2	1.309628367E0	9.385271072E0
1.884854710E-1	3.830722719E-2	1.319205165E0	9.500192642E0
1.900906150E-1	-1.197100803E-2	1.333570361E0	9.643844604E0
1.925322400E-1	-9.337386489E-2	1.357512355E0	9.821015358E0
1.937127300E-1	-2.035071403E-1	1.369483352E0	1.002452278E1
1.965888940E-1	-2.968810201E-1	1.383848548E0	1.025197124E1
1.982966920E-1	-4.118026793E-1	1.424550056E0	1.059913063E1
2.006292780E-1	-4.381389022E-1	1.438915253E0	1.070687008E1
2.019744230E-1	-4.884171486E-1	1.472434044E0	1.091037750E1
2.046868170E-1	-5.626373887E-1	1.515529633E0	1.109712505E1
2.059952300E-1	-6.416460276E-1	1.575384736E0	1.127668953E1
2.085884230E-1	-7.038952708E-1	1.640028119E0	1.143949604E1
2.100470000E-1	-7.517793179E-1	1.714248419E0	1.155920601E1
2.129057780E-1	-7.876923680E-1	1.812410712E0	1.163342571E1
2.146454610E-1	-8.020575643E-1	1.963245392E0	1.166694450E1
2.169562780E-1	-8.212111592E-1	2.068590164E0	1.164779091E1
2.181539610E-1	-8.547300100E-1	2.173935175E0	1.162384892E1
2.210134710E-1	-9.026140571E-1	2.300827742E0	1.159272480E1
2.226264230E-1	-9.528923035E-1	2.439691544E0	1.155441761E1
2.250486630E-1	-1.005564690E0	2.559401512E0	1.151850414E1
2.262245380E-1	-1.055842996E0	2.679111719E0	1.146822643E1
2.291055860E-1	-1.086967587E0	2.798821688E0	1.138203526E1
2.307189610E-1	-1.098938584E0	2.916137695E0	1.126471901E1
2.331658550E-1	-1.101332784E0	3.026270866E0	1.112585545E1
2.343938840E-1	-1.125274777E0	3.124433279E0	1.097023201E1
2.372231240E-1	-1.165976286E0	3.201047659E0	1.080503273E1
2.389747300E-1	-1.192312479E0	3.256114244E0	1.066137981E1
2.413025090E-1	-1.201889277E0	3.296815634E0	1.054406452E1
2.425049610E-1	-1.194706678E0	3.313575268E0	1.043871975E1
2.453596630E-1	-1.161187768E0	3.284844637E0	1.034534550E1
2.468328460E-1	-1.108515382E0	3.193865061E0	1.026873112E1
2.494852400E-1	-1.063025594E0	3.076549292E0	1.022324085E1
2.507508460E-1	-1.022324085E0	2.942473888E0	1.017535686E1
2.535774320E-1	-9.648633003E-1	2.791639090E0	1.011310768E1
2.551325380E-1	-8.786720037E-1	2.633621931E0	1.003888798E1
2.576109320E-1	-7.685387731E-1	2.468421936E0	9.971850395E0
2.588534230E-1	-7.374141216E-1	2.348711967E0	9.940725327E0
2.616680860E-1	-9.361328483E-1	2.355894566E0	9.902418137E0
2.632344230E-1	-1.307234168E0	2.516305923E0	9.753977776E0
2.657188940E-1	-1.307234168E0	2.533065319E0	9.722852707E0
2.669081530E-1	-1.051054597E0	2.437297344E0	9.691728592E0
2.697759320E-1	-6.536170840E-1	2.233790159E0	9.612719536E0
2.713780770E-1	-4.309563041E-1	1.984793186E0	9.478644371E0
2.738027400E-1	-4.764461517E-1	1.932120800E0	9.469067574E0
2.749904610E-1	-5.171475410E-1	1.824381709E0	9.469067574E0
2.778596630E-1	-3.758896589E-1	1.687912226E0	9.440337181E0
2.796800000E-1	-2.274491638E-1	1.546654344E0	9.380482674E0
2.819021240E-1	-2.059013397E-1	1.498770237E0	9.421183586E0
2.830995380E-1	-1.364694983E-1	1.381454349E0	9.528923035E0
2.859585090E-1	9.576806799E-3	1.218648672E0	9.617507935E0
2.873220770E-1	3.112462163E-2	1.158793569E0	9.581595421E0
2.899705770E-1	3.112462163E-2	1.118092179E0	9.548076630E0
2.913270380E-1	1.316810995E-1	1.074996591E0	9.536105156E0
2.941882780E-1	2.729389966E-1	1.039083481E0	9.512163162E0
2.958098840E-1	3.687070608E-1	1.017535686E0	9.409213066E0
2.982213170E-1	4.165911078E-1	1.019929886E0	9.253589630E0
2.994030000E-1	5.003881454E-1	9.840168953E-1	9.150638580E0
3.022776240E-1	7.158663273E-1	9.026140571E-1	9.093177795E0
3.038958460E-1	1.180341482E0	7.924807668E-1	8.942343712E0
3.063121630E-1	1.707065821E0	7.374141216E-1	8.829815865E0
3.075092690E-1	1.848323703E0	7.876923680E-1	8.781931877E0
3.103682780E-1	1.740584612E0	8.906430602E-1	8.772355080E0
3.119837690E-1	1.659181833E0	9.983820915E-1	8.786720276E0
3.144115860E-1	1.659181833E0	1.101332784E0	8.815450668E0
3.156163840E-1	1.683123827E0	1.194706678E0	8.851364136E0
3.184684320E-1	1.699883223E0	1.297657371E0	8.901641846E0
3.201451530E-1	1.695094824E0	1.410184860E0	8.971074104E0
3.225088160E-1	1.673547029E0	1.508347034E0	9.071630478E0
3.237601150E-1	1.644816518E0	1.599326730E0	9.191340446E0
3.265658550E-1	1.589749932E0	1.690306425E0	9.299078941E0
3.279058840E-1	1.515529633E0	1.769315004E0	9.418789864E0
3.306738460E-1	1.426944256E0	1.836352706E0	9.550470352E0
3.319529610E-1	1.350329757E0	1.889025092E0	9.679757118E0
3.347817010E-1	1.326387763E0	1.941697598E0	9.804255486E0
3.365690380E-1	1.357512355E0	2.023100376E0	1.000536919E1
3.388298930E-1	1.345541358E0	2.051830769E0	1.007001209E1
3.400702300E-1	1.292868972E0	2.114080191E0	1.018014526E1
3.428874320E-1	1.151610970E0	2.169146776E0	1.031661510E1
3.444984230E-1	8.044517636E-1	2.245761156E0	1.053448772E1
3.469233160E-1	6.943184733E-1	2.310404539E0	1.058237171E1
3.481090000E-1	6.512228847E-1	2.367865562E0	1.060870743E1
3.509812780E-1	6.703764796E-1	2.425326347E0	1.064462090E1
3.525692690E-1	7.062895298E-1	2.477998734E0	1.068053341E1
3.550137390E-1	7.134721279E-1	2.530671120E0	1.071165848E1
3.563051920E-1	6.991068721E-1	2.566584110E0	1.073799419E1
3.590715090E-1	7.038952708E-1	2.597708941E0	1.074517727E1
3.608353840E-1	7.422025204E-1	2.631227732E0	1.074278259E1
3.631338930E-1	7.924807668E-1	2.652775526E0	1.074517727E1
3.643500380E-1	8.379706144E-1	2.671929121E0	1.072362900E1
3.671912010E-1	9.121908545E-1	2.695871115E0	1.067574501E1
3.685130380E-1	9.744400978E-1	2.715024710E0	1.063743782E1
3.711698460E-1	1.015141487E0	2.726995707E0	1.060152531E1
3.725630380E-1	1.039083481E0	2.734178305E0	1.055124664E1
3.754091240E-1	1.046266198E0	2.743755102E0	1.048660374E1
3.770303070E-1	1.029506683E0	2.748543501E0	1.040998936E1
3.794425090E-1	1.015141487E0	2.731784105E0	1.032858658E1
3.806248840E-1	1.022324085E0	2.707842112E0	1.023760605E1
3.834998930E-1	1.017535686E0	2.667140722E0	1.013704967E1
3.852028840E-1	9.935936928E-1	2.621650934E0	1.001494598E1
3.875498930E-1	9.864110947E-1	2.571372509E0	9.861717224E0
3.888348460E-1	1.003170490E0	2.528276920E0	9.718064308E0
3.916071620E-1	1.053448796E0	2.492363930E0	9.583989143E0
3.932427690E-1	1.146822572E0	2.422932148E0	9.402029991E0
3.956455470E-1	1.189918280E0	2.406172752E0	9.337387085E0
3.968210380E-1	1.288080573E0	2.375048161E0	9.212887764E0
3.997018930E-1	1.369483352E0	2.336740971E0	9.105149269E0
4.014213460E-1	1.479616642E0	2.281674147E0	8.937555313E0
4.037674700E-1	1.520318031E0	2.267308950E0	8.887276649E0
4.050871920E-1	1.594538331E0	2.221819162E0	8.810662270E0
4.078246240E-1	1.644816518E0	2.157175779E0	8.774748802E0
4.091783070E-1	1.697489023E0	2.039859772E0	8.743624687E0
4.119644700E-1	1.776497602E0	1.975216389E0	8.714894295E0
4.133557300E-1	1.893813491E0	1.900996208E0	8.683769226E0
4.160571620E-1	2.008735180E0	1.821987510E0	8.683769226E0
4.178334610E-1	2.114080191E0	1.747767210E0	8.705317497E0
4.200895850E-1	2.224213362E0	1.673547029E0	8.724471092E0
4.213588840E-1	2.336740971E0	1.584961534E0	8.743624687E0
4.241464310E-1	2.408566952E0	1.491587639E0	8.798690796E0
4.257834610E-1	2.422932148E0	1.410184860E0	8.882488251E0
4.281811620E-1	2.408566952E0	1.345541358E0	8.973467827E0
4.294125760E-1	2.403778553E0	1.319205165E0	9.045293808E0
4.322381240E-1	2.434903145E0	1.323993564E0	9.093177795E0
4.338630760E-1	2.468421936E0	1.347935557E0	9.138668060E0
4.362845850E-1	2.477998734E0	1.383848548E0	9.191340446E0
4.374897300E-1	2.487575531E0	1.426944256E0	9.232041359E0
4.403411240E-1	2.489969730E0	1.477222443E0	9.287108421E0
4.420714230E-1	2.487575531E0	1.534683347E0	9.349357605E0
4.443822010E-1	2.506729126E0	1.572990537E0	9.406818390E0
4.458583840E-1	2.497152328E0	1.589749932E0	9.476250648E0
4.484389310E-1	2.444479942E0	1.592144132E0	9.552865028E0
4.498966530E-1	2.372653961E0	1.592144132E0	9.622296333E0
4.523309610E-1	2.341529369E0	1.580173135E0	9.665391922E0
4.539153840E-1	2.329558372E0	1.558625340E0	9.696516991E0
4.566550080E-1	2.296039343E0	1.544260144E0	9.734824181E0
4.582864610E-1	2.205059767E0	1.544260144E0	9.818621635E0
4.607033540E-1	2.171540976E0	1.551442742E0	9.849745750E0
4.618866150E-1	2.099714994E0	1.584961534E0	9.904812813E0
4.647598160E-1	2.011129379E0	1.632845521E0	9.955090523E0
4.663254610E-1	1.869871497E0	1.719036818E0	1.001733971E1
4.687953160E-1	1.829170108E0	1.754949808E0	1.003409958E1
4.699833460E-1	1.759738207E0	1.829170108E0	1.004846478E1
4.728522390E-1	1.702277422E0	1.898601890E0	1.004367638E1
4.744576530E-1	1.628057122E0	1.948880196E0	1.001015759E1
4.768861620E-1	1.575384736E0	1.939303398E0	9.976638794E0
4.782844230E-1	1.549048543E0	1.929726601E0	9.959878922E0
4.809432770E-1	1.470039845E0	1.865083098E0	9.916783333E0
4.826358070E-1	1.391031146E0	1.802833915E0	9.911994934E0
4.850230470E-1	1.302445769E0	1.740584612E0	9.911994934E0
4.866492300E-1	1.209071875E0	1.692700624E0	9.902418137E0
4.890800850E-1	1.132457376E0	1.666364431E0	9.888052940E0
4.904854610E-1	1.082179189E0	1.649604917E0	9.861717224E0
4.932052000E-1	1.046266198E0	1.632845521E0	9.828198433E0
4.944917300E-1	1.036689281E0	1.625662923E0	9.787496567E0
4.972967770E-1	1.051054597E0	1.640028119E0	9.753977776E0
4.989191920E-1	1.077390790E0	1.654393315E0	9.725247383E0
5.013292000E-1	1.106121182E0	1.663970232E0	9.696516991E0
5.025595380E-1	1.142034173E0	1.663970232E0	9.674968719E0
5.053860080E-1	1.182735682E0	1.656787634E0	9.660603523E0
5.069827690E-1	1.206677675E0	1.647210717E0	9.651026726E0
5.094363160E-1	1.213860273E0	1.632845521E0	9.653421402E0
5.106273460E-1	1.230619669E0	1.611297727E0	9.655815125E0
5.134932770E-1	1.244984865E0	1.587355733E0	9.670180321E0
5.150999990E-1	1.261744261E0	1.561019540E0	9.684545517E0
5.175250460E-1	1.285686255E0	1.537077546E0	9.694122314E0
5.187236920E-1	1.307234168E0	1.513135433E0	9.682151794E0
5.215821230E-1	1.326387763E0	1.489193439E0	9.660603523E0
5.232698070E-1	1.357512355E0	1.467645645E0	9.600749016E0
5.256590080E-1	1.362300754E0	1.462857246E0	9.572018623E0
5.268888070E-1	1.359906554E0	1.441309452E0	9.516951561E0
5.297163160E-1	1.331176162E0	1.424550056E0	9.473855972E0
5.313153460E-1	1.280897856E0	1.403002143E0	9.442731857E0
5.336266150E-1	1.213860273E0	1.400607944E0	9.418789864E0
5.351844230E-1	1.096544385E0	1.414973259E0	9.414001465E0
5.379470850E-1	1.015141487E0	1.438915253E0	9.416395187E0
5.397943840E-1	9.313444495E-1	1.489193439E0	9.428366661E0
5.419816620E-1	8.571242094E-1	1.558625340E0	9.445125580E0
5.431656920E-1	7.948749661E-1	1.642422318E0	9.466673851E0
5.460387000E-1	7.350199223E-1	1.719036818E0	9.488221169E0
5.476161150E-1	6.607996821E-1	1.778891921E0	9.521739960E0
5.500752000E-1	5.913678408E-1	1.833958507E0	9.572018623E0
5.512585380E-1	5.219359994E-1	1.877054095E0	9.627084732E0
5.541323540E-1	4.357447028E-1	1.893813491E0	9.672574997E0
5.557549610E-1	3.471592367E-1	1.886630893E0	9.727641106E0
5.581861230E-1	2.585737705E-1	1.850717902E0	9.792284966E0
5.593744990E-1	1.604115069E-1	1.817199111E0	9.856928825E0
5.622432390E-1	6.943184882E-2	1.786074519E0	9.919178009E0
5.639512300E-1	-2.394201700E-3	1.752555609E0	9.976638794E0
5.662830460E-1	-6.464344263E-2	1.719036818E0	1.002691650E1
5.674929220E-1	-1.244984865E-1	1.697489023E0	1.007240677E1
5.703407390E-1	-1.771709323E-1	1.687912226E0	1.009874249E1
5.716636530E-1	-2.130839527E-1	1.680729628E0	1.011071396E1
5.744260380E-1	-2.442085743E-1	1.678335428E0	1.011310768E1
5.758208070E-1	-2.705447972E-1	1.692700624E0	1.010353088E1
5.785571230E-1	-2.825157940E-1	1.711854219E0	1.008437729E1
5.802058070E-1	-2.873041928E-1	1.733402014E0	1.005804157E1
5.826070080E-1	-2.968810201E-1	1.766920805E0	1.002931118E1
5.838359990E-1	-3.040636182E-1	1.795651317E0	9.998186111E0
5.866638540E-1	-3.136404157E-1	1.817199111E0	9.959878922E0
5.882903070E-1	-3.351882398E-1	1.850717902E0	9.883264542E0
5.906988150E-1	-3.423708379E-1	1.862688899E0	9.854534149E0
5.919014610E-1	-3.639186621E-1	1.891419291E0	9.797073364E0
5.947559690E-1	-3.950432837E-1	1.924938202E0	9.744400978E0
5.963587690E-1	-4.644751251E-1	1.987187386E0	9.682151794E0
5.987877770E-1	-4.979939461E-1	2.013523579E0	9.665391922E0
5.999981530E-1	-5.674257874E-1	2.068590164E0	9.629479408E0
6.028457000E-1	-6.344634295E-1	2.135627985E0	9.586383820E0
6.045337690E-1	-7.493851185E-1	2.248155355E0	9.519346237E0
6.069281230E-1	-8.451532125E-1	2.322375536E0	9.490615845E0
6.081466920E-1	-9.385270476E-1	2.384624958E0	9.461885452E0
6.109858920E-1	-1.039083481E0	2.437297344E0	9.445125580E0
6.123544220E-1	-1.134851575E0	2.494758129E0	9.442731857E0
6.149934220E-1	-1.228225470E0	2.554613113E0	9.442731857E0
6.163760380E-1	-1.323993564E0	2.595314741E0	9.430760384E0
6.192043540E-1	-1.474828243E0	2.640804529E0	9.416395187E0
6.208986920E-1	-1.697489023E0	2.700659513E0	9.392453194E0
6.232383920E-1	-1.989581585E0	2.786850691E0	9.349357605E0
6.244374220E-1	-2.284068346E0	2.885013103E0	9.277531624E0
6.272963150E-1	-2.540247917E0	2.980781078E0	9.186552048E0
6.290691530E-1	-2.755726099E0	3.059789658E0	9.160215378E0
6.313469690E-1	-2.918531895E0	3.100491285E0	9.215282440E0
6.325581530E-1	-3.026270866E0	3.098097086E0	9.284713745E0
6.354050850E-1	-3.086126089E0	3.047818661E0	9.339780807E0
6.370594990E-1	-3.090914488E0	2.964021683E0	9.361329079E0
6.394351610E-1	-3.052607059E0	2.849100113E0	9.363722801E0
6.408960760E-1	-2.990357876E0	2.715024710E0	9.342175484E0
6.434932770E-1	-2.904166698E0	2.578555346E0	9.277531624E0
6.452851530E-1	-2.683900118E0	2.358288765E0	9.064447403E0
6.475608540E-1	-2.600103140E0	2.272097349E0	8.956708908E0
6.491085380E-1	-2.473210335E0	2.070984364E0	8.695740700E0
6.516190460E-1	-2.358288765E0	1.795651317E0	8.389283180E0
6.538004220E-1	-2.070984364E0	1.247379065E0	7.915230751E0
6.556714310E-1	-1.960851192E0	1.043871999E0	7.773972988E0
6.570556150E-1	-1.695094824E0	6.200982332E-1	7.520187378E0
6.597290460E-1	-1.276109457E0	2.059013397E-1	7.287950039E0
6.613926530E-1	-3.782838583E-1	-2.226607651E-1	7.132327080E0
6.637636610E-1	-1.268926859E-1	-2.753331959E-1	7.211335659E0
6.649689610E-1	1.221042871E-1	-1.963245422E-1	7.611167431E0
6.678216230E-1	2.873042040E-2	7.422025502E-2	8.161833763E0
6.695659990E-1	-2.561795712E-1	6.057330370E-1	8.688557625E0
6.718582770E-1	-2.705447972E-1	7.589619160E-1	8.695740700E0
6.730562690E-1	-1.532289088E-1	9.983820915E-1	8.544905663E0
6.759162000E-1	2.274491638E-1	1.165976286E0	8.271966934E0
6.775279990E-1	5.554547906E-1	1.149216771E0	8.137891769E0
6.799576610E-1	8.714894056E-1	1.065419793E0	8.044517517E0
6.812605380E-1	1.108515382E0	9.504981041E-1	7.987056732E0
6.840153920E-1	1.221042871E0	8.355764151E-1	7.967903137E0
6.857208450E-1	1.163581967E0	7.398083210E-1	7.975085735E0
6.880566230E-1	9.528923035E-1	6.727706790E-1	7.977479935E0
6.893423840E-1	6.512228847E-1	6.488286853E-1	8.006210327E0
6.921149690E-1	3.327940404E-1	6.655880809E-1	8.063671112E0
6.935978840E-1	7.900865376E-2	7.015010715E-1	8.133103371E0
6.960083450E-1	-1.053448766E-1	7.445967197E-1	8.216899872E0
6.976230760E-1	-2.442085743E-1	8.044517636E-1	8.348581314E0
7.003343150E-1	-3.495534360E-1	8.523358107E-1	8.494627953E0
7.019489610E-1	-5.027823448E-1	8.690952063E-1	8.655038834E0
7.043846230E-1	-7.733271718E-1	8.259995580E-1	8.834604263E0
7.056941530E-1	-9.361328483E-1	8.140285611E-1	8.968679428E0
7.084428150E-1	-1.098938584E0	8.690952063E-1	9.133879662E0
7.102738070E-1	-1.448492050E0	9.528923035E-1	9.409213066E0
7.124795460E-1	-1.580173135E0	1.003170490E0	9.598354340E0
7.136509990E-1	-1.441309452E0	1.063025594E0	9.622296333E0
7.165380070E-1	-1.331176162E0	1.134851575E0	9.572018623E0
7.181722300E-1	-1.379060149E0	1.235408068E0	9.504981041E0
7.205742380E-1	-1.386242747E0	1.264138460E0	9.497797966E0
7.217636530E-1	-1.321599364E0	1.314416766E0	9.478644371E0
7.246318920E-1	-1.146822572E0	1.352723956E0	9.418789864E0
7.263910380E-1	-8.690952063E-1	1.395819545E0	9.299078941E0
7.287142380E-1	-7.829039693E-1	1.405396342E0	9.248801231E0
7.300324990E-1	-6.560112834E-1	1.426944256E0	9.141061783E0
7.327723150E-1	-5.841852427E-1	1.443703651E0	9.038111687E0
7.341393070E-1	-5.817909837E-1	1.448492050E0	8.944737434E0
7.368559220E-1	-6.440402865E-1	1.407790542E0	8.860940933E0
7.381995760E-1	-7.134721279E-1	1.391031146E0	8.829815865E0
7.409910070E-1	-7.829039693E-1	1.388636947E0	8.789113998E0
7.425787690E-1	-9.002198577E-1	1.410184860E0	8.724471092E0
7.450264690E-1	-1.012747288E0	1.410184860E0	8.664615631E0
7.462144990E-1	-1.101332784E0	1.403002143E0	8.667010307E0
7.490848150E-1	-1.204283476E0	1.407790542E0	8.655038834E0
7.506814220E-1	-1.362300754E0	1.426944256E0	8.635885239E0
7.531365840E-1	-1.537077546E0	1.448492050E0	8.638279915E0
7.543666530E-1	-1.704671621E0	1.450886250E0	8.695740700E0
7.571950460E-1	-1.843535304E0	1.438915253E0	8.810662270E0
7.589011920E-1	-1.927332401E0	1.431732655E0	8.956708908E0
7.612240070E-1	-1.972822189E0	1.424550056E0	9.121908188E0
7.624490380E-1	-1.982398987E0	1.426944256E0	9.291896820E0
7.652816990E-1	-1.968033791E0	1.446097851E0	9.433155060E0
7.670146920E-1	-1.965639591E0	1.484405041E0	9.555258751E0
7.693388920E-1	-1.900996208E0	1.553836942E0	9.634267807E0
7.705466150E-1	-1.680729628E0	1.635239720E0	9.639056206E0
7.733968150E-1	-1.314416766E0	1.707065821E0	9.610325813E0
7.747098450E-1	-9.337386489E-1	1.762132406E0	9.600749016E0
7.772991150E-1	-6.320692301E-1	1.783680320E0	9.641449928E0
7.787767300E-1	-4.764461517E-1	1.771709204E0	9.763554573E0
7.816293530E-1	-3.974374831E-1	1.733402014E0	9.911994934E0
7.832863450E-1	-2.418143749E-1	1.699883223E0	1.002691650E1
7.856637380E-1	-1.867477298E-1	1.704671621E0	1.004367638E1
7.868422300E-1	-1.005564705E-1	1.728613615E0	1.008437729E1
7.897220070E-1	-9.816227108E-2	1.752555609E0	1.017535686E1
7.912971150E-1	-2.370259613E-1	1.783680320E0	1.040998936E1
7.937621990E-1	-3.016694188E-1	1.793257117E0	1.051054573E1
7.949665380E-1	-4.285621047E-1	1.805228114E0	1.072602367E1
7.978202760E-1	-5.458779931E-1	1.833958507E0	1.093431950E1
7.996832680E-1	-6.464344859E-1	1.898601890E0	1.121444035E1
8.018698530E-1	-6.368576288E-1	1.951274395E0	1.137724686E1
8.030542300E-1	-5.578489900E-1	2.008735180E0	1.152568722E1
8.059271990E-1	-4.477157295E-1	2.066195965E0	1.168370438E1
8.078103070E-1	-3.351882398E-1	2.140416384E0	1.186326981E1
8.099680840E-1	-2.489969730E-1	2.207453966E0	1.202607536E1
8.111493840E-1	-1.675941199E-1	2.274491549E0	1.218409252E1
8.140260840E-1	-1.005564705E-1	2.348711967E0	1.235168648E1
8.153185380E-1	-5.267243832E-2	2.415749550E0	1.249533844E1
8.181505840E-1	2.394201700E-3	2.473210335E0	1.259828949E1
8.194101920E-1	6.943184882E-2	2.535459518E0	1.268448067E1
8.222433530E-1	1.580173075E-1	2.621650934E0	1.276109505E1
8.238406150E-1	1.771709323E-1	2.712630510E0	1.283770943E1
8.262947760E-1	1.675941199E-1	2.798821688E0	1.290235329E1
8.276309990E-1	1.987187415E-1	2.899378300E0	1.291432381E1
8.303527380E-1	2.274491638E-1	3.007117271E0	1.282334423E1
8.319288840E-1	2.130839527E-1	3.088520288E0	1.261504841E1
8.343904680E-1	2.418143749E-1	3.160346270E0	1.232295609E1
8.356303450E-1	2.466027737E-1	3.193865061E0	1.193509579E1
8.384488910E-1	1.221042871E-1	3.124433279E0	1.147780323E1
8.400354220E-1	-7.422025502E-2	2.952050686E0	1.102529907E1
8.425056220E-1	-2.729389966E-1	2.712630510E0	1.062307262E1
8.436785380E-1	-4.357447028E-1	2.461239338E0	1.030464458E1
8.465635450E-1	-5.315127969E-1	2.214636564E0	1.008677197E1
8.482229610E-1	-5.841852427E-1	1.922544003E0	9.897629738E0
8.506443530E-1	-5.793967843E-1	1.850717902E0	9.868899345E0
8.518456150E-1	-5.243301988E-1	1.723825216E0	9.842563629E0
8.547021220E-1	-4.070142806E-1	1.642422318E0	9.864110947E0
8.559819990E-1	-2.537853718E-1	1.594538331E0	9.911994934E0
8.584987680E-1	-1.173158810E-1	1.587355733E0	9.962273598E0
8.600389220E-1	-7.900865376E-2	1.594538331E0	1.005804157E1
8.629208140E-1	-1.819593310E-1	1.580173135E0	1.012747288E1
8.645429990E-1	-1.867477298E-1	1.663970232E0	1.007240677E1
8.669559300E-1	-1.915361285E-1	1.845929503E0	9.914389610E0
8.681277300E-1	-2.657563984E-1	2.054224968E0	9.765948296E0
8.710135450E-1	-3.854664862E-1	2.238578558E0	9.667786598E0
8.725836150E-1	-5.123591423E-1	2.391807556E0	9.591172218E0
8.750640840E-1	-6.248866320E-1	2.516305923E0	9.514557838E0
8.762331910E-1	-7.445967197E-1	2.624045134E0	9.430760384E0
8.791214300E-1	-8.690952063E-1	2.734178305E0	9.356540680E0
8.807966150E-1	-1.000776291E0	2.858676910E0	9.265560150E0
8.831539300E-1	-1.161187768E0	2.983175278E0	9.172186852E0
8.843459990E-1	-1.335964561E0	3.122039080E0	9.069235802E0
8.872104300E-1	-1.527500629E0	3.282450438E0	8.975862503E0
8.889706150E-1	-1.707065821E0	3.440467834E0	8.896853447E0
8.912756990E-1	-1.819593310E0	3.588908434E0	8.839392662E0
8.924531530E-1	-1.857900500E0	3.732560396E0	8.805873871E0
8.953331600E-1	-1.819593310E0	3.864241600E0	8.801085472E0
8.966341910E-1	-1.752555609E0	3.952826977E0	8.836998940E0
8.994119220E-1	-1.683123827E0	3.981557369E0	8.918401718E0
9.007761150E-1	-1.515529633E0	3.995922565E0	9.011775017E0
9.035656990E-1	-1.316810966E0	4.050989151E0	9.131484985E0
9.052089610E-1	-1.058237195E0	4.139574528E0	9.361329079E0
9.075997760E-1	-9.792284966E-1	4.153939724E0	9.433155060E0
9.088411910E-1	-8.307880163E-1	4.158728123E0	9.588777542E0
9.116570450E-1	-7.134721279E-1	4.110844135E0	9.756371498E0
9.132129990E-1	-6.344634295E-1	4.017470360E0	1.005564690E1
9.156928140E-1	-6.416460276E-1	3.995922565E0	1.015141487E1
9.168951910E-1	-7.062895298E-1	3.969586372E0	1.032858658E1
9.197499680E-1	-8.451532125E-1	3.938461781E0	1.047942066E1
9.213574610E-1	-9.720458984E-1	3.861847401E0	1.060152531E1
9.237929680E-1	-9.744400978E-1	3.857059002E0	1.061110210E1
9.249649990E-1	-9.696516991E-1	3.883395195E0	1.062067890E1
9.278503910E-1	-1.003170490E0	3.938461781E0	1.055842972E1
9.295186910E-1	-1.151610970E0	3.969586372E0	1.042674828E1
9.318926600E-1	-1.335964561E0	4.007893562E0	1.019690514E1
9.330597300E-1	-1.486799240E0	4.058171749E0	9.859322548E0
9.359508140E-1	-1.565807939E0	4.120420933E0	9.557653427E0
9.374061530E-1	-1.594538331E0	4.218583584E0	9.464279175E0
9.399456910E-1	-1.644816518E0	4.357447147E0	9.504981041E0
9.414101150E-1	-1.726219416E0	4.508281708E0	9.557653427E0
9.441684680E-1	-1.814804912E0	4.642356873E0	9.569623947E0
9.458245760E-1	-1.912967205E0	4.735731125E0	9.653421402E0
9.482177760E-1	-2.013523579E0	4.807557106E0	9.847352028E0
9.494155760E-1	-2.070984364E0	4.862623692E0	1.007958889E1
9.522750450E-1	-2.063801765E0	4.927267075E0	1.029506683E1
9.538396150E-1	-2.027888775E0	4.989516258E0	1.045787334E1
9.563106990E-1	-1.989581585E0	5.035006046E0	1.063264942E1
9.574939610E-1	-1.965639591E0	5.056553841E0	1.077630138E1
9.603680830E-1	-1.965639591E0	5.061342239E0	1.087685871E1
9.620244990E-1	-1.960851192E0	5.056553841E0	1.096304989E1
9.644231600E-1	-1.922544003E0	5.056553841E0	1.102290440E1
9.656005380E-1	-1.850717902E0	5.037400246E0	1.102529907E1
9.684801600E-1	-1.781286120E0	4.996698856E0	1.096304989E1
9.701841910E-1	-1.733402014E0	4.951209068E0	1.087685871E1
9.725615060E-1	-1.714248419E0	4.944026470E0	1.083376312E1
9.737341140E-1	-1.699883223E0	4.958391666E0	1.068053341E1
9.766183140E-1	-1.719036818E0	5.020640850E0	1.049139214E1
9.780499990E-1	-1.728613615E0	5.094861031E0	1.034534550E1
9.807431990E-1	-1.644816518E0	5.202600479E0	1.024000072E1
9.819972680E-1	-1.496376038E0	5.322310448E0	1.007240677E1
9.848356990E-1	-1.273715258E0	5.530605793E0	9.969455719E0
9.866857300E-1	-1.146822572E0	5.681440830E0	9.928754807E0
9.888713140E-1	-1.086967587E0	5.827486992E0	9.947908401E0
9.900698450E-1	-1.034295082E0	5.956773758E0	9.971850395E0
9.929296990E-1	-9.744400978E-1	6.059724331E0	9.935936928E0
9.945112300E-1	-9.696516991E-1	6.133944988E0	9.911994934E0
9.969833910E-1	-1.003170490E0	6.196194172E0	9.883264542E0
9.981526140E-1	-8.451532125E-1	6.373364925E0	9.859322548E0
1.001040775E0	-3.926490843E-1	6.591237068E0	9.854534149E0
1.002644191E0	-9.097966552E-2	6.564900875E0	9.911994934E0
1.005096045E0	-4.309562966E-2	6.411672115E0	9.859322548E0
1.006301499E0	-2.633621916E-2	6.222530365E0	9.758766174E0
1.009153698E0	3.351882473E-2	6.042964935E0	9.624691010E0
1.010816230E0	1.580173075E-1	5.863399982E0	9.483432770E0
1.013230506E0	3.375824392E-1	5.698200226E0	9.313444138E0
1.014434653E0	5.363011956E-1	5.568912983E0	8.954314232E0
1.017287545E0	7.015010715E-1	5.489904404E0	8.528146744E0
1.019223384E0	8.140285611E-1	5.449203014E0	7.984662533E0
1.021075499E0	8.786720037E-1	5.449203014E0	7.807491779E0
1.022553691E0	1.005564690E0	5.487510204E0	7.357381821E0
1.025395121E0	1.070208192E0	5.590460777E0	6.715735912E0
1.027055268E0	1.165976286E0	5.729324818E0	5.935225964E0
1.029429275E0	1.405396342E0	5.837063789E0	5.279214859E0
1.030618768E0	1.666364431E0	5.872976780E0	4.908113480E0
1.033485929E0	1.795651317E0	5.896918774E0	4.539406300E0
1.035063999E0	1.850717902E0	5.935225964E0	4.086902142E0
1.037523083E0	1.965639591E0	5.975927353E0	3.722983599E0
1.038812807E0	2.111685991E0	5.980715752E0	3.541024208E0
1.041579852E0	2.312798738E0	5.889736176E0	3.517082214E0
1.043199076E0	2.628833532E0	5.671864033E0	3.854664803E0
1.045623775E0	2.719813108E0	5.588066578E0	4.019864559E0
1.046809384E0	2.853888512E0	5.401319027E0	4.376600742E0
1.049680968E0	2.925714493E0	5.185841084E0	4.855441093E0
1.051442038E0	3.028665066E0	4.869806290E0	5.959167957E0
1.053721737E0	3.074155092E0	4.764461517E0	6.315904140E0
1.054899191E0	3.131615877E0	4.599261284E0	6.770802498E0
1.057778929E0	3.093308687E0	4.539406300E0	6.924031258E0
1.059067191E0	2.987963676E0	4.517858505E0	6.981492043E0
1.061904083E0	2.966415882E0	4.450820923E0	7.065289021E0
1.063166114E0	2.959233284E0	4.319139957E0	7.242460251E0
1.065996121E0	2.935291290E0	4.199429989E0	7.635109425E0
1.067634038E0	2.815581083E0	4.209006786E0	8.216899872E0
1.070045121E0	2.580949545E0	4.328716755E0	8.592789650E0
1.071215961E0	2.245761156E0	4.503493309E0	8.676587105E0
1.074102929E0	1.903390408E0	4.699818134E0	8.566453934E0
1.075672730E0	1.754949808E0	4.845864296E0	8.327033043E0
1.078140391E0	1.836352706E0	4.917690277E0	8.209717751E0
1.079304576E0	1.915361404E0	5.090072632E0	8.353369713E0
1.082199237E0	1.879448295E0	5.343858242E0	8.477868080E0
1.083832884E0	1.788468719E0	5.554547787E0	8.540117264E0
1.086227737E0	1.731007814E0	5.674258232E0	8.537723541E0
1.087395768E0	1.687912226E0	5.765237808E0	8.391676903E0
1.090286198E0	1.568202138E0	5.930437565E0	8.178592682E0
1.091962384E0	1.359906554E0	6.189011574E0	7.958326340E0
1.094369660E0	1.084573388E0	6.426037312E0	7.829039574E0
1.095635807E0	8.667010069E-1	6.603208065E0	7.668628216E0
1.098427929E0	7.829039693E-1	6.739677906E0	7.410054207E0
1.099709614E0	8.978256583E-1	6.811503887E0	7.192182064E0
1.102281537E0	1.182735682E0	6.830657482E0	7.115567684E0
1.103796653E0	1.482010841E0	6.845022678E0	7.175422668E0
1.106646813E0	1.714248419E0	6.873753071E0	7.220912457E0
1.108325230E0	2.094926596E0	6.947973251E0	7.307103634E0
1.110681660E0	2.260126352E0	6.979097843E0	7.299921036E0
1.111866076E0	2.621650934E0	6.983886242E0	7.187393665E0
1.114739775E0	2.956839085E0	6.845022678E0	7.098807812E0
1.116312076E0	3.303998232E0	6.682217121E0	7.079654217E0
1.118793467E0	3.402160645E0	6.684611320E0	6.967126846E0
1.119979576E0	3.608062029E0	6.718130112E0	6.576871872E0
1.122851660E0	3.940855980E0	6.641515732E0	5.906495571E0
1.124423230E0	3.967192173E0	6.596025467E0	5.674258232E0
1.126883236E0	3.744531393E0	6.641515732E0	5.379771233E0
1.128075576E0	3.426102638E0	6.667851925E0	4.939238071E0
1.130940929E0	3.148375273E0	6.552929878E0	4.510675907E0
1.132589537E0	2.978386879E0	6.296750546E0	4.170699596E0
1.135009006E0	2.837129116E0	6.110002518E0	4.015076160E0
1.136175961E0	2.614468336E0	6.105214119E0	3.780444384E0
1.139067429E0	2.365471363E0	6.110002518E0	3.150769472E0
1.140351614E0	2.154781580E0	5.999869347E0	2.559401512E0
1.143208967E0	2.003946781E0	5.805939198E0	2.300827742E0
1.144405691E0	1.903390408E0	5.592854977E0	2.310404539E0
1.147302236E0	1.872265697E0	5.394136429E0	2.470816135E0
1.148831268E0	1.951274395E0	5.315127850E0	2.693476915E0
1.151336006E0	2.169146776E0	5.499481201E0	2.846705914E0
1.152486999E0	2.197877169E0	5.552153587E0	3.023876667E0
1.155393775E0	2.056619167E0	5.430049419E0	3.411737442E0
1.156939037E0	1.951274395E0	5.293580055E0	3.852270603E0
1.159430929E0	2.006340981E0	5.274426460E0	4.106055737E0
1.160578153E0	1.980004787E0	5.475539207E0	4.340687752E0
1.163489006E0	1.860294700E0	5.719748020E0	4.288015366E0
1.165069922E0	1.750161409E0	6.016628742E0	3.828328609E0
1.167523037E0	1.750161409E0	6.100425720E0	3.694253206E0
1.168661922E0	1.781286120E0	6.232107162E0	3.526659012E0
1.171582236E0	1.848323703E0	6.296750546E0	3.478775024E0
1.173235230E0	2.001552582E0	6.260837555E0	3.569754839E0
1.175638390E0	2.073378563E0	6.217741966E0	3.658340216E0
1.176790614E0	2.233790159E0	6.112396717E0	3.904942989E0
1.179696698E0	2.339135170E0	6.069301128E0	4.053383350E0
1.181099691E0	2.272097349E0	6.112396717E0	3.983951569E0
1.183488384E0	1.924938202E0	6.224924564E0	3.754108191E0
1.185129076E0	1.716642618E0	6.313509941E0	3.706224203E0
1.187915967E0	1.601720929E0	6.454767704E0	3.842693806E0
1.189523422E0	1.563413739E0	6.653486729E0	4.074931145E0
1.191966198E0	1.592144132E0	6.842628479E0	4.240131378E0
1.193138691E0	1.692700624E0	6.964732647E0	4.343081951E0
1.196023467E0	1.872265697E0	7.029376030E0	4.390965939E0
1.197581153E0	2.094926596E0	7.046135426E0	4.388571739E0
1.200060082E0	2.293645144E0	7.019799232E0	4.422090530E0
1.201259576E0	2.449268341E0	6.957550049E0	4.455609322E0
1.204118275E0	2.573766708E0	6.907271862E0	4.412513733E0
1.205720884E0	2.667140722E0	6.892906666E0	4.280832767E0
1.208159428E0	2.741360903E0	6.909666061E0	4.146757126E0
1.209326191E0	2.789244890E0	6.924031258E0	4.091690540E0
1.212217544E0	2.782062292E0	6.892906666E0	4.118026733E0
1.213923807E0	2.753331900E0	6.845022678E0	4.177882195E0
1.216300082E0	2.880224705E0	6.890512466E0	4.189853191E0
1.217507653E0	2.966415882E0	6.969521046E0	4.007893562E0
1.220358159E0	2.880224705E0	6.957550049E0	3.948038578E0
1.221873960E0	2.729389906E0	6.919242859E0	4.012681961E0
1.224448922E0	2.549824715E0	6.969521046E0	3.952826977E0
1.225719537E0	2.303221941E0	7.048529625E0	3.799597979E0
1.228576775E0	1.982398987E0	7.070077419E0	3.816357613E0
1.230164807E0	1.802833915E0	7.153874874E0	3.998316765E0
1.232611313E0	1.845929503E0	7.208941460E0	3.988739967E0
1.233791460E0	1.956062794E0	7.299921036E0	3.897760391E0
1.236669428E0	2.027888775E0	7.311892033E0	3.821146011E0
1.238236537E0	2.114080191E0	7.331045628E0	3.881000996E0
1.240724198E0	2.147598982E0	7.364564419E0	3.931279182E0
1.241907768E0	2.205059767E0	7.438784599E0	4.024652958E0
1.244781851E0	2.240972757E0	7.467514992E0	4.055777550E0
1.246361384E0	2.267308950E0	7.395689011E0	3.991134167E0
1.248810313E0	2.286462545E0	7.347805023E0	3.974374771E0
1.249987268E0	2.434903145E0	7.170634270E0	4.096478939E0
1.252868121E0	2.827552319E0	6.880935669E0	4.563348293E0
1.254620345E0	2.719813108E0	6.981492043E0	4.108449936E0
1.256912736E0	2.262520552E0	7.094019413E0	3.308786631E0
1.258128191E0	1.776497602E0	7.091625214E0	2.796427488E0
1.260970813E0	1.467645645E0	7.005434036E0	2.712630510E0
1.262292807E0	1.424550056E0	6.880935669E0	2.870647907E0
1.265111236E0	1.644816518E0	6.737283707E0	3.074155092E0
1.266547960E0	2.015917778E0	6.564900875E0	3.251325846E0
1.269203774E0	2.410961151E0	6.347028732E0	3.416525841E0
1.270933845E0	2.791639090E0	6.074089527E0	3.550601006E0
1.273237967E0	3.086126089E0	5.901707172E0	3.634398222E0
1.274449345E0	3.169923067E0	5.868188381E0	3.715801001E0
1.277296697E0	3.028665066E0	5.916072369E0	3.756502390E0
1.278861191E0	2.729389906E0	5.961562157E0	3.665522814E0
1.281335044E0	2.372653961E0	5.975927353E0	3.466804028E0
1.282554153E0	2.126051188E0	5.949591160E0	3.217807055E0
1.285393120E0	2.056619167E0	5.892130375E0	2.932897091E0
1.286992076E0	2.099714994E0	5.865794182E0	2.669534922E0
1.289431428E0	2.161964178E0	5.870582581E0	2.360682964E0
1.290608960E0	2.205059767E0	5.865794182E0	1.994369984E0
1.293490351E0	2.207453966E0	5.851428986E0	1.680729628E0
1.295227614E0	2.214636564E0	5.827486992E0	1.558625340E0
1.297533659E0	2.272097349E0	5.817910194E0	1.630451322E0
1.298782807E0	2.624045134E0	5.781997204E0	1.932120800E0
1.301591774E0	3.260902643E0	5.700594425E0	2.324769735E0
1.302901422E0	3.852270603E0	5.600037575E0	2.760514498E0
1.305719774E0	4.048594952E0	5.537788391E0	3.181894064E0
1.306993576E0	3.842693806E0	5.588066578E0	3.450044632E0
1.309812890E0	3.402160645E0	5.808333397E0	3.438073635E0
1.311596730E0	3.299209833E0	5.937620163E0	3.277662039E0
1.313862620E0	3.435679436E0	5.937620163E0	3.011905670E0
1.315125076E0	3.694253206E0	5.944802761E0	2.817975283E0
1.317920928E0	3.852270603E0	6.145915985E0	2.865859509E0
1.319511883E0	3.926490784E0	6.414066315E0	2.853888512E0
1.321959236E0	3.928884983E0	6.600813866E0	2.755726099E0
1.323159691E0	3.849876404E0	6.687005520E0	2.748543501E0
1.326017851E0	3.763684988E0	6.701370716E0	2.904166698E0
1.327679845E0	3.754108191E0	6.672640324E0	3.117250681E0
1.330080274E0	3.835511208E0	6.600813866E0	3.301604033E0
1.331290499E0	3.969586372E0	6.509834290E0	3.397372246E0
1.334138928E0	4.070142746E0	6.421248913E0	3.411737442E0
1.335815037E0	4.118026733E0	6.342240334E0	3.392583847E0
1.338220274E0	4.137180328E0	6.284779549E0	3.366247654E0
1.339518383E0	4.151545525E0	6.244078159E0	3.323152065E0
1.342278313E0	4.185064793E0	6.215347767E0	3.263296843E0
1.343694422E0	4.223371983E0	6.165069580E0	3.205836058E0
1.346139114E0	4.249708176E0	6.086060524E0	3.167528868E0
1.348040460E0	4.259284973E0	5.985504150E0	3.186682463E0
1.350496351E0	4.278438568E0	5.856217384E0	3.256114244E0
1.352137845E0	4.307168961E0	5.707777023E0	3.342305660E0
1.354531620E0	4.350264549E0	5.544970989E0	3.383007050E0
1.355718807E0	4.446032524E0	5.358223438E0	3.359065056E0
1.358589889E0	4.627991676E0	5.171475887E0	3.248931646E0
1.360182499E0	5.006275654E0	4.874594688E0	2.997540474E0
1.362642659E0	5.104437828E0	4.812345505E0	2.928108692E0
1.363845383E0	5.214571476E0	4.747702122E0	2.904166698E0
1.366700543E0	5.212177277E0	4.666299343E0	2.808398485E0
1.368396422E0	5.001487255E0	4.479551315E0	2.557007313E0
1.370762543E0	4.915296078E0	4.417302132E0	2.535459518E0
1.371940037E0	4.783615112E0	4.309563160E0	2.600103140E0
1.374820312E0	4.769249916E0	4.182670593E0	2.817975283E0
1.376620537E0	4.841075897E0	4.110844135E0	2.952050686E0
1.378887043E0	4.948814869E0	4.065354347E0	3.033453465E0
1.380072422E0	5.063736439E0	4.048594952E0	3.066972494E0
1.382945274E0	5.154716492E0	4.067748547E0	3.059789658E0
1.384257883E0	5.221754074E0	4.115632534E0	3.033453465E0
1.387087082E0	5.284003258E0	4.182670593E0	3.009511471E0
1.388460076E0	5.358223438E0	4.266467571E0	3.007117271E0
1.391180620E0	5.461174011E0	4.350264549E0	3.004723072E0
1.392850883E0	5.564124584E0	4.431667328E0	2.959233284E0
1.395216235E0	5.657498837E0	4.520252705E0	2.889801502E0
1.396401768E0	5.765237808E0	4.606443882E0	2.853888512E0
1.399274582E0	5.913678169E0	4.692635536E0	2.861071110E0
1.400886576E0	6.081272125E0	4.793191910E0	2.896984100E0
1.403312620E0	6.241683960E0	4.886565685E0	2.952050686E0
1.404516960E0	6.385335922E0	4.972756863E0	3.028665066E0
1.407370428E0	6.521805286E0	5.042188644E0	3.136404276E0
1.408984883E0	6.670246124E0	5.087678432E0	3.294421434E0
1.411419966E0	6.823474884E0	5.123591423E0	3.414131641E0
1.412623999E0	6.964732647E0	5.164293289E0	3.409343243E0
1.415478428E0	7.084442616E0	5.159504890E0	3.438073635E0
1.417204268E0	7.254431248E0	5.147533417E0	3.426102638E0
1.419519735E0	7.266402245E0	5.185841084E0	3.277662039E0
1.420903230E0	7.211335659E0	5.281609058E0	2.853888512E0
1.423577312E0	7.125144482E0	5.317522049E0	2.533065319E0
1.424904922E0	7.094019413E0	5.276820660E0	2.501940727E0
1.427423383E0	7.163451672E0	5.197812080E0	2.683900118E0
1.428909999E0	7.309497833E0	5.092466831E0	2.923320293E0
1.431796389E0	7.615955830E0	4.898536682E0	3.148375273E0
1.433395576E0	7.783549786E0	4.745307922E0	3.179499865E0
1.435847774E0	7.855375767E0	4.587290287E0	3.143586874E0
1.437108345E0	7.841010571E0	4.448426723E0	3.052607059E0
1.439906043E0	7.783549786E0	4.331110954E0	2.949656487E0
1.441497499E0	7.714118004E0	4.235342979E0	2.894589901E0
1.443943043E0	7.649474621E0	4.132391930E0	2.916137695E0
1.445580306E0	7.580042362E0	4.022258759E0	2.985569477E0
1.448001004E0	7.517793179E0	3.897760391E0	3.102885485E0
1.449650999E0	7.467514992E0	3.775655985E0	3.265691042E0
1.452042543E0	7.414842606E0	3.658340216E0	3.435679436E0
1.453301960E0	7.376535416E0	3.550601006E0	3.581725836E0
1.456099851E0	7.364564419E0	3.471592426E0	3.691859007E0
1.457783268E0	7.376535416E0	3.402160645E0	3.763684988E0
1.460181504E0	7.410054207E0	3.349488258E0	3.782838583E0
1.461419268E0	7.445967197E0	3.325546265E0	3.763684988E0
1.464238812E0	7.469909191E0	3.320757866E0	3.722983599E0
1.465530230E0	7.477091789E0	3.337517262E0	3.639186621E0
1.468364197E0	7.481880188E0	3.356670856E0	3.531447411E0
1.469601653E0	7.498639584E0	3.387795448E0	3.411737442E0
1.472456543E0	7.565677166E0	3.426102638E0	3.318363667E0
1.474212614E0	7.706935406E0	3.459621429E0	3.253720045E0
1.476490927E0	7.893682957E0	3.488351822E0	3.174711466E0
1.477804768E0	8.125920296E0	3.519476414E0	3.088520288E0
1.480548889E0	8.379706383E0	3.548206806E0	3.016694069E0
1.482178076E0	8.765172005E0	3.596091032E0	2.913743496E0
1.484600120E0	8.882488251E0	3.612850428E0	2.880224705E0
1.485770153E0	9.112331390E0	3.653551817E0	2.815581083E0
1.488657504E0	9.334992409E0	3.694253206E0	2.734178305E0
1.490305268E0	9.658209801E0	3.770867586E0	2.628833532E0
1.492694697E0	9.761159897E0	3.797203779E0	2.592920542E0
1.493864768E0	9.959878922E0	3.842693806E0	2.547430515E0
1.496753043E0	1.011550236E1	3.890577793E0	2.542642117E0
1.498424537E0	1.025197124E1	3.974374771E0	2.588132143E0
1.500830004E0	1.029267311E1	4.022258759E0	2.636016130E0
1.502035306E0	1.030464458E1	4.065354347E0	2.698265314E0
1.504888081E0	1.029506683E1	4.074931145E0	2.777273893E0
1.506695499E0	1.027112484E1	4.062960148E0	2.861071110E0
1.508950576E0	1.024239445E1	4.036623955E0	2.956839085E0
1.510321345E0	1.022563553E1	3.998316765E0	3.059789658E0
1.513120850E0	1.020169353E1	3.950432777E0	3.145981073E0
1.514699345E0	1.016099167E1	3.895366192E0	3.201047659E0
1.517154927E0	1.011071396E1	3.837905407E0	3.241749048E0
1.518358383E0	1.006282997E1	3.790021181E0	3.260902643E0
1.521213427E0	1.002452278E1	3.725377798E0	3.236960649E0
1.522838537E0	1.000536919E1	3.653551817E0	3.186682463E0
1.525250081E0	9.991003990E0	3.581725836E0	3.136404276E0
1.526450729E0	9.991003990E0	3.502717018E0	3.105279684E0
1.529308389E0	1.001015759E1	3.416525841E0	3.102885485E0
1.531024653E0	1.006043530E1	3.327940464E0	3.136404276E0
1.533356543E0	1.013944435E1	3.260902643E0	3.201047659E0
1.534671614E0	1.022324085E1	3.213018656E0	3.294421434E0
1.537415389E0	1.030703831E1	3.186682463E0	3.397372246E0
1.539107191E0	1.040998936E1	3.172317266E0	3.543418407E0
1.541457158E0	1.043153667E1	3.179499865E0	3.588908434E0
1.542628922E0	1.046745014E1	3.217807055E0	3.653551817E0
1.545516427E0	1.048899746E1	3.282450438E0	3.691859007E0
1.546952153E0	1.049378586E1	3.368641853E0	3.718195200E0
1.549643196E0	1.050336266E1	3.466804028E0	3.742137194E0
1.551156306E0	1.054645824E1	3.552995205E0	3.727771997E0
1.553736312E0	1.062307262E1	3.641580820E0	3.689464808E0
1.555323960E0	1.074517727E1	3.773261786E0	3.620033026E0
1.557786081E0	1.081221485E1	3.852270603E0	3.586514235E0
1.559062537E0	1.084094524E1	3.883395195E0	3.576937437E0
1.561844504E0	1.090798283E1	3.938461781E0	3.552995205E0
1.563498922E0	1.094389629E1	3.957615376E0	3.529053211E0
1.565880389E0	1.097262669E1	3.969586372E0	3.493140221E0
1.567131960E0	1.097741508E1	3.979163170E0	3.450044632E0
1.569938350E0	1.096783829E1	3.991134167E0	3.397372246E0
1.571656922E0	1.097262669E1	3.986345768E0	3.351882458E0
1.573993619E0	1.100614548E1	3.957615376E0	3.313575268E0
1.575250922E0	1.105642319E1	3.912125587E0	3.263296843E0
1.578051619E0	1.112824917E1	3.864241600E0	3.210624456E0
1.579754383E0	1.122162342E1	3.813963413E0	3.179499865E0
1.582115004E0	1.132936287E1	3.754108191E0	3.174711466E0
1.583295076E0	1.144428444E1	3.689464808E0	3.181894064E0
1.586173235E0	1.154005241E1	3.627215624E0	3.174711466E0
1.587468576E0	1.159751320E1	3.569754839E0	3.138798475E0
1.590017037E0	1.162624359E1	3.524264812E0	3.088520288E0
1.591732576E0	1.161666679E1	3.493140221E0	3.052607059E0
1.594391850E0	1.157117653E1	3.478775024E0	3.023876667E0
1.595965499E0	1.150653362E1	3.469198227E0	2.997540474E0
1.598427889E0	1.142991924E1	3.459621429E0	2.983175278E0
1.599770614E0	1.135569859E1	3.454833031E0	2.968810081E0
1.602486504E0	1.130542088E1	3.454833031E0	2.944868088E0
1.604227037E0	1.127908421E1	3.464409828E0	2.899378300E0
1.606538812E0	1.126950741E1	3.473986626E0	2.887407303E0
1.607735076E0	1.124077702E1	3.502717018E0	2.875436306E0
1.610598081E0	1.120486355E1	3.541024208E0	2.877830505E0
1.612242076E0	1.111388397E1	3.632004023E0	2.923320293E0
1.614656004E0	1.107797146E1	3.667917013E0	2.949656487E0
1.615881999E0	1.099896240E1	3.746925592E0	2.992752075E0
1.618714658E0	1.093910789E1	3.833117008E0	3.014299870E0
1.620549883E0	1.091516590E1	3.991134167E0	3.004723072E0
1.622775306E0	1.091277122E1	4.110844135E0	2.978386879E0
1.623937268E0	1.089361763E1	4.232948780E0	2.987963676E0
1.626842004E0	1.086249352E1	4.359841347E0	3.043030262E0
1.628159191E0	1.081460953E1	4.479551315E0	3.126827478E0
1.630983888E0	1.074996567E1	4.592078686E0	3.220201254E0
1.632265845E0	1.067574501E1	4.675876141E0	3.289633036E0
1.635077042E0	1.059194851E1	4.742913723E0	3.296815634E0
1.636612652E0	1.052251625E1	4.812345505E0	3.234566450E0
1.639113311E0	1.046505547E1	4.879383087E0	3.131615877E0
1.640257460E0	1.042195988E1	4.951209068E0	3.033453465E0
1.643171311E0	1.037886429E1	5.020640850E0	2.968810081E0
1.644849191E0	1.032619190E1	5.075707436E0	2.971204281E0
1.647208465E0	1.026394272E1	5.114014626E0	3.023876667E0
1.648391422E0	1.018972206E1	5.128379822E0	3.088520288E0
1.651266273E0	1.010592556E1	5.125985622E0	3.160346270E0
1.652857883E0	1.001255131E1	5.109226227E0	3.210624456E0
1.655318888E0	9.931148529E0	5.080495834E0	3.215412855E0
1.656572076E0	9.871294022E0	5.046977043E0	3.165134668E0
1.659376465E0	9.830592155E0	5.001487255E0	3.081337690E0
1.661017306E0	9.768342972E0	4.929661274E0	2.956839085E0
1.663418004E0	9.753977776E0	4.903325081E0	2.916137695E0
1.664582614E0	9.742006302E0	4.843470097E0	2.841917515E0
1.667475965E0	9.753977776E0	4.771644115E0	2.755726099E0
1.668947922E0	9.773131371E0	4.697423935E0	2.662352324E0
1.671402191E0	9.794678688E0	4.630385876E0	2.576161146E0
1.672957114E0	9.830592155E0	4.570530891E0	2.537853718E0
1.675695696E0	9.871294022E0	4.505887508E0	2.542642117E0
1.677275422E0	9.895236015E0	4.407725334E0	2.612074137E0
1.679745696E0	9.895236015E0	4.381389141E0	2.631227732E0
1.681118729E0	9.885659218E0	4.323928356E0	2.636016130E0
1.683803696E0	9.842563629E0	4.228160381E0	2.554613113E0
1.685354499E0	9.818621635E0	4.175487995E0	2.463633537E0
1.687840850E0	9.818621635E0	4.129997730E0	2.372653961E0
1.689003383E0	9.830592155E0	4.091690540E0	2.315192938E0
1.691898811E0	9.840168953E0	4.058171749E0	2.298433542E0
1.693601999E0	9.842563629E0	4.031835556E0	2.296039343E0
1.695943427E0	9.828198433E0	4.005499363E0	2.293645144E0
1.697114229E0	9.813833237E0	3.988739967E0	2.286462545E0
1.700001427E0	9.840168953E0	3.983951569E0	2.257732153E0
1.701698229E0	9.902418137E0	4.005499363E0	2.214636564E0
1.704083119E0	9.983820915E0	4.050989151E0	2.224213362E0
1.705259768E0	1.005564690E1	4.115632534E0	2.296039343E0
1.708141503E0	1.007958889E1	4.197035789E0	2.389413357E0
1.709497614E0	1.005564690E1	4.292803764E0	2.454056740E0
1.712225883E0	1.000776291E1	4.398148537E0	2.482787132E0
1.713498845E0	9.945513725E0	4.508281708E0	2.475604534E0
1.716362234E0	9.902418137E0	4.611232281E0	2.418143749E0
1.718065768E0	9.880870819E0	4.702212334E0	2.353500366E0
1.720396657E0	9.868899345E0	4.764461517E0	2.322375536E0
1.721589883E0	9.849745750E0	4.805162907E0	2.348711967E0
1.724454503E0	9.813833237E0	4.831499100E0	2.420537949E0
1.726662691E0	9.686940193E0	4.841075897E0	2.549824715E0
1.728490388E0	9.629479408E0	4.841075897E0	2.578555346E0
1.729676845E0	9.488221169E0	4.836287498E0	2.612074137E0
1.732548234E0	9.320627213E0	4.812345505E0	2.633621931E0
1.734142229E0	9.088389397E0	4.764461517E0	2.688688517E0
1.736586119E0	9.016563416E0	4.742913723E0	2.715024710E0
1.737755075E0	8.877699852E0	4.697423935E0	2.772485495E0
1.740643888E0	8.755595207E0	4.642356873E0	2.825158119E0
1.742319614E0	8.623914719E0	4.515464306E0	2.865859509E0
1.744689080E0	8.597578049E0	4.465186119E0	2.868253708E0
1.745872229E0	8.564059258E0	4.352658749E0	2.868253708E0
1.748746965E0	8.552088737E0	4.230554581E0	2.868253708E0
1.750056422E0	8.588001251E0	4.043806553E0	2.856282711E0
1.752608845E0	8.655038834E0	3.890577793E0	2.841917515E0
1.754103383E0	8.746018410E0	3.737348795E0	2.815581083E0
1.756981619E0	8.846575737E0	3.588908434E0	2.767697096E0
1.758621614E0	9.014169693E0	3.706224203E0	2.741360903E0
1.761019196E0	9.097966194E0	3.885789394E0	2.837129116E0
1.762193075E0	8.963891029E0	3.617638826E0	2.865859509E0
1.765077926E0	8.801085472E0	3.385401249E0	2.724601507E0
1.766636691E0	8.700529099E0	3.289633036E0	2.688688517E0
1.769111768E0	8.690952301E0	3.239354849E0	2.899378300E0
1.770256306E0	8.698134422E0	3.145981073E0	3.181894064E0
1.773174196E0	8.688557625E0	2.978386879E0	3.385401249E0
1.774750191E0	8.695740700E0	2.760514498E0	3.450044632E0
1.777230003E0	8.738836288E0	2.499546528E0	3.390189648E0
1.778450575E0	8.808267593E0	2.202665567E0	3.215412855E0
1.781288311E0	8.872911453E0	1.924938202E0	2.961627483E0
1.783010191E0	8.899248123E0	1.728613615E0	2.762908697E0
1.785330003E0	8.889671326E0	1.623268723E0	2.681505919E0
1.786568306E0	8.899248123E0	1.546654344E0	2.693476915E0
1.789388349E0	8.947132111E0	1.486799240E0	2.774879694E0
1.790686229E0	9.028534889E0	1.491587639E0	2.849100113E0
1.793514388E0	9.153033257E0	1.553836942E0	2.820369720E0
1.794738652E0	9.284713745E0	1.637633920E0	2.782062292E0
1.797607388E0	9.394847870E0	1.747767210E0	2.853888512E0
1.799290306E0	9.512163162E0	1.946485996E0	3.100491285E0
1.801657580E0	9.538499832E0	2.018311977E0	3.193865061E0
1.802885037E0	9.545681953E0	2.159569979E0	3.392583847E0
1.805715657E0	9.490615845E0	2.308010340E0	3.591302633E0
1.807378152E0	9.263166428E0	2.583343744E0	3.845088005E0
1.809755080E0	9.148244858E0	2.688688517E0	3.909731388E0
1.810962768E0	8.856152534E0	2.870647907E0	3.967192173E0
1.813814234E0	8.458714485E0	3.076549292E0	3.940855980E0
1.815400845E0	8.283937454E0	3.179499865E0	3.919308186E0
1.817853080E0	8.166622162E0	3.251325846E0	3.904942989E0
1.819197960E0	8.082824707E0	3.282450438E0	3.869029999E0
1.821912542E0	8.003816605E0	3.265691042E0	3.813963413E0
1.823653691E0	7.939172745E0	3.220201254E0	3.758896589E0
1.825994888E0	7.896077156E0	3.150769472E0	3.708618402E0
1.827198960E0	7.905653954E0	3.064578056E0	3.655946016E0
1.830053926E0	7.989450932E0	2.968810081E0	3.572149038E0
1.831424614E0	8.137891769E0	2.858676910E0	3.414131641E0
1.833931537E0	8.346187592E0	2.746149302E0	3.193865061E0
1.835404460E0	8.590395927E0	2.645592928E0	2.971204281E0
1.838272849E0	8.853757858E0	2.537853718E0	2.808398485E0
1.839931537E0	9.136273384E0	2.413355350E0	2.712630510E0
1.842308234E0	9.416395187E0	2.274491549E0	2.669534922E0
1.843482652E0	9.667786598E0	2.123656988E0	2.647987127E0
1.846366888E0	9.859322548E0	1.956062794E0	2.645592928E0
1.847985075E0	9.988609314E0	1.812410712E0	2.693476915E0
1.850419657E0	1.008437729E1	1.733402014E0	2.803610086E0
1.851699575E0	1.015859795E1	1.735796213E0	2.908955097E0
1.854478349E0	1.022802925E1	1.802833915E0	2.940079689E0
1.856130768E0	1.027830791E1	1.929726601E0	2.880224705E0
1.858522618E0	1.026873112E1	1.956062794E0	2.817975283E0
1.859690383E0	1.022084713E1	1.944091797E0	2.559401512E0
1.862580849E0	1.017056847E1	1.898601890E0	2.231395960E0
1.864445383E0	1.018014526E1	1.783680320E0	1.865083098E0
1.866649388E0	1.021366405E1	1.747767210E0	1.848323703E0
1.867845845E0	1.030224991E1	1.673547029E0	1.850717902E0
1.870708080E0	1.037407589E1	1.537077546E0	1.778891921E0
1.872055883E0	1.048899746E1	1.381454349E0	1.932120800E0
1.874848272E0	1.053209305E1	1.237802267E0	1.838746905E0
1.876155037E0	1.054645824E1	1.103726983E0	1.833958507E0
1.878941734E0	1.058955383E1	9.600749016E-1	1.817199111E0
1.880504114E0	1.062546730E1	8.140285611E-1	1.754949808E0
1.882976964E0	1.066137981E1	6.919242740E-1	1.680729628E0
1.884180537E0	1.070447540E1	5.746083856E-1	1.580173135E0
1.887035387E0	1.072841740E1	5.099649429E-1	1.529894829E0
1.888641422E0	1.073560047E1	4.596867263E-1	1.472434044E0
1.891072849E0	1.074517727E1	4.046200812E-1	1.374271750E0
1.892269422E0	1.075235939E1	3.615244627E-1	1.323993564E0
1.895130580E0	1.077151299E1	3.232172430E-1	1.309628367E0
1.896935729E0	1.080024433E1	2.729389966E-1	1.321599364E0
1.899174310E0	1.082897472E1	1.987187415E-1	1.347935557E0
1.900372498E0	1.084333992E1	1.173158810E-1	1.393425345E0
1.903232272E0	1.083855152E1	5.027823523E-2	1.424550056E0
1.904910575E0	1.083376312E1	-1.915361360E-2	1.400607944E0
1.907274580E0	1.082418633E1	-1.053448766E-1	1.326387763E0
1.908459729E0	1.081221485E1	-2.130839527E-1	1.244984865E0
1.911331695E0	1.077390766E1	-3.280056417E-1	1.177947283E0
1.912649498E0	1.072362900E1	-4.453215301E-1	1.218648672E0
1.915323037E0	1.069489861E1	-5.482721925E-1	1.383848548E0
1.916994537E0	1.066616821E1	-6.153098345E-1	1.484405041E0
1.919549233E0	1.059913063E1	-6.799532771E-1	1.410184860E0
1.921160614E0	1.043632507E1	-8.283938169E-1	1.022324085E0
1.923598310E0	1.037647057E1	-9.002198577E-1	8.547300100E-1
1.924942498E0	1.028070164E1	-1.074996591E0	5.363011956E-1
1.927655387E0	1.023042393E1	-1.295263171E0	3.136404157E-1
1.929253960E0	1.023281765E1	-1.695094824E0	3.591302633E-1
1.931692926E0	1.024718285E1	-1.824381709E0	4.908113480E-1
1.932913345E0	1.028549004E1	-2.051830769E0	8.283938169E-1
1.935751156E0	1.030224991E1	-2.308010340E0	1.225831270E0
1.937388883E0	1.028070164E1	-2.425326347E0	1.328781962E0
1.939815656E0	1.026394272E1	-2.506729126E0	1.307234168E0
1.941135768E0	1.026154804E1	-2.559401512E0	1.125274777E0
1.943874580E0	1.024478912E1	-2.616862535E0	9.145850539E-1
1.945557037E0	1.024239445E1	-2.681505919E0	7.900865674E-1
1.947959195E0	1.032619190E1	-2.705447912E0	8.499416113E-1
1.949142229E0	1.049378586E1	-2.636016130E0	1.132457376E0
1.952018349E0	1.065419769E1	-2.523488522E0	1.276109457E0
1.953358768E0	1.074517727E1	-2.442085743E0	1.237802267E0
1.956145579E0	1.078108978E1	-2.430114746E0	1.177947283E0
1.957459691E0	1.082658005E1	-2.454056740E0	1.175553083E0
1.960239156E0	1.090319443E1	-2.475604534E0	1.173158884E0
1.961816921E0	1.103008747E1	-2.492363930E0	1.237802267E0
1.964274349E0	1.116655636E1	-2.525882721E0	1.323993564E0
1.965555383E0	1.129344940E1	-2.566584110E0	1.398213744E0
1.968332810E0	1.139161205E1	-2.592920542E0	1.414973259E0
1.969985575E0	1.145864964E1	-2.602497339E0	1.350329757E0
1.972385233E0	1.149456215E1	-2.624045134E0	1.237802267E0
1.973602691E0	1.150892735E1	-2.664746523E0	1.134851575E0
1.976443426E0	1.152808094E1	-2.722207308E0	1.046266198E0
1.978048075E0	1.160230160E1	-2.839523315E0	9.672574997E-1
1.980499272E0	1.161906052E1	-2.885013103E0	9.624691010E-1
1.981697768E0	1.162384892E1	-2.971204281E0	9.696516991E-1
1.984557349E0	1.157117653E1	-3.047818661E0	9.696516991E-1
1.986237152E0	1.142273617E1	-3.138798475E0	8.978256583E-1
1.988615618E0	1.137724686E1	-3.155557871E0	8.331822157E-1
1.989806383E0	1.130302620E1	-3.193865061E0	6.368576288E-1
1.992673656E0	1.124556541E1	-3.258508444E0	4.141969085E-1
1.994054421E0	1.119289303E1	-3.485957623E0	3.160346150E-1
1.996498114E0	1.121444035E1	-3.620033026E0	4.836287498E-1
1.998033460E0	1.131020927E1	-3.579331636E0	7.350199223E-1
2.000907349E0	1.141794777E1	-3.351882458E0	8.212111592E-1
2.002541191E0	1.144428444E1	-3.081337690E0	6.871358752E-1
2.004942310E0	1.140837097E1	-2.849100113E0	4.572925270E-1
2.006321152E0	1.137245846E1	-2.645592928E0	2.537853718E-1
2.009000733E0	1.138682365E1	-2.485181332E0	1.053448766E-1
2.010584037E0	1.143710136E1	-2.367865562E0	6.224924326E-2
2.013038156E0	1.152329254E1	-2.284068346E0	1.843535304E-1
2.014295806E0	1.156399441E1	-2.276885748E0	3.806780577E-1
2.017096464E0	1.152089882E1	-2.379836559E0	5.674257874E-1
2.019239498E0	1.137245846E1	-2.590526342E0	7.900865674E-1
2.021138925E0	1.131020927E1	-2.633621931E0	8.212111592E-1
2.022308575E0	1.115458584E1	-2.674323320E0	8.068459630E-1
2.025197118E0	1.099178028E1	-2.659958124E0	6.296750307E-1
2.026943691E0	1.086009884E1	-2.607285738E0	3.782838583E-1
2.029238656E0	1.076672459E1	-2.530671120E0	2.561795712E-1
2.030666114E0	1.072841740E1	-2.468421936E0	2.609679997E-1
2.033296695E0	1.074038887E1	-2.458845139E0	3.711012602E-1
2.034616729E0	1.076911926E1	-2.480392933E0	5.003881454E-1
2.037423771E0	1.079784966E1	-2.494758129E0	5.770025849E-1
2.038766691E0	1.079784966E1	-2.463633537E0	5.961562395E-1
2.041517156E0	1.075954247E1	-2.415749550E0	5.578489900E-1
2.043162768E0	1.067574501E1	-2.389413357E0	4.405331016E-1
2.045567233E0	1.064462090E1	-2.401384354E0	4.070142806E-1
2.046750498E0	1.057518864E1	-2.430114746E0	4.189853072E-1
2.049625348E0	1.051293945E1	-2.449268341E0	5.339069963E-1
2.051230691E0	1.046026707E1	-2.463633537E0	7.158663273E-1
2.053662002E0	1.044111347E1	-2.463633537E0	7.733271718E-1
2.054835268E0	1.037407589E1	-2.463633537E0	8.786720037E-1
2.057719079E0	1.029985619E1	-2.482787132E0	8.786720037E-1
2.059416768E0	1.019929886E1	-2.540247917E0	7.158663273E-1
2.061756348E0	1.013704967E1	-2.588132143E0	6.967126727E-1
2.062926268E0	1.009395409E1	-2.638410330E0	7.326257229E-1
2.065814118E0	1.009874249E1	-2.674323320E0	7.852981687E-1
2.067503306E0	1.013465595E1	-2.681505919E0	7.900865674E-1
2.069895617E0	1.015141487E1	-2.662352324E0	7.422025204E-1
2.071152114E0	1.013704967E1	-2.628833532E0	6.560112834E-1
2.073953656E0	1.006043530E1	-2.561795712E0	6.368576288E-1
2.075280075E0	9.945513725E0	-2.449268341E0	7.254431248E-1
2.078073268E0	9.821015358E0	-2.279279947E0	8.547300100E-1
2.079312614E0	9.698910713E0	-2.056619167E0	9.624691010E-1
2.082173310E0	9.581595421E0	-1.805228114E0	1.043871999E0
2.083727921E0	9.464279175E0	-1.544260144E0	1.127668977E0
2.086207579E0	9.334992409E0	-1.273715258E0	1.237802267E0
2.087388191E0	9.157821655E0	-8.858546019E-1	1.352723956E0
2.090265348E0	8.887276649E0	-2.681505978E-1	1.489193439E0
2.091938306E0	8.465897560E0	7.445967197E-1	1.659181833E0
2.094316617E0	7.996633530E0	2.116474390E0	1.848323703E0
2.095729344E0	7.855375767E0	3.052607059E0	2.042253971E0
2.098374194E0	8.010998726E0	3.483563423E0	2.121262789E0
2.099981844E0	8.293514252E0	3.739742994E0	2.027888775E0
2.102437771E0	8.544905663E0	3.955221176E0	1.810016513E0
2.103761883E0	8.674192429E0	4.132391930E0	1.584961534E0
2.106495694E0	8.678980827E0	4.240131378E0	1.434126854E0
2.108178652E0	8.571242332E0	4.256890774E0	1.333570361E0
2.110563156E0	8.540117264E0	4.232948780E0	1.321599364E0
2.112067498E0	8.504204750E0	4.106055737E0	1.278503656E0
2.114621156E0	8.511386871E0	3.864241600E0	1.211466074E0
2.115972960E0	8.549694061E0	3.505111217E0	1.132457376E0
2.118740960E0	8.676587105E0	2.820369720E0	1.022324085E0
2.119977075E0	8.774748802E0	2.327163935E0	9.313444495E-1
2.122856194E0	8.911218643E0	1.776497602E0	8.259995580E-1
2.124413306E0	9.150638580E0	1.103726983E0	7.924807668E-1
2.126889963E0	9.246406555E0	4.884171486E-1	8.259995580E-1
2.128189691E0	9.198522568E0	-4.548983276E-2	8.619126081E-1
2.130947579E0	9.148244858E0	-5.770025849E-1	8.547300100E-1
2.132514075E0	9.157821655E0	-1.122880578E0	7.781155705E-1
2.134984156E0	9.198522568E0	-1.671152830E0	6.488286853E-1
2.136241075E0	9.222464561E0	-2.224213362E0	5.243301988E-1
2.139041925E0	9.220070839E0	-2.791639090E0	4.213795066E-1
2.140790037E0	9.210494041E0	-3.387795448E0	3.447650373E-1
2.143084656E0	9.215282440E0	-3.986345768E0	3.112462163E-1
2.144291114E0	9.212887764E0	-4.539406300E0	3.399766386E-1
2.147142463E0	9.167398453E0	-4.982333660E0	4.261679053E-1
2.148947575E0	9.093177795E0	-5.343858242E0	5.698199868E-1
2.151184233E0	9.004592896E0	-5.580883980E0	7.182605267E-1
2.152429421E0	8.901641846E0	-5.631162167E0	8.116343617E-1
2.155242502E0	8.813055992E0	-5.552153587E0	8.236053586E-1
2.156531691E0	8.781931877E0	-5.449203014E0	7.996633649E-1
2.159086383E0	8.798690796E0	-5.348646641E0	7.661445141E-1
2.160800075E0	8.851364136E0	-5.269638062E0	7.661445141E-1
2.163462617E0	8.935160637E0	-5.209783077E0	8.092401624E-1
2.165003883E0	9.131484985E0	-5.099649429E0	9.696516991E-1
2.167512271E0	9.208099365E0	-5.054159641E0	1.022324085E0
2.168793306E0	9.380482674E0	-4.951209068E0	1.058237195E0
2.171570886E0	9.598354340E0	-4.843470097E0	1.003170490E0
2.173116306E0	9.945513725E0	-4.814739704E0	8.523358107E-1
2.175596421E0	1.008677197E1	-4.778826714E0	7.757213712E-1
2.176766883E0	1.034534550E1	-4.714183331E0	6.272808313E-1
2.179666502E0	1.045787334E1	-4.718971729E0	5.913678408E-1
2.181235075E0	1.042914295E1	-4.692635536E0	6.727706790E-1
2.183701502E0	1.046026707E1	-4.683058739E0	6.153098345E-1
2.184881498E0	1.056321812E1	-4.604049683E0	4.261679053E-1
2.187759809E0	1.063264942E1	-4.496310711E0	2.011129409E-1
2.189457498E0	1.067813969E1	-4.347870350E0	7.422025502E-2
2.191840694E0	1.079545593E1	-4.173093796E0	3.591302410E-2
2.193007498E0	1.086009884E1	-3.943250179E0	0.000000000E0
2.195898540E0	1.090798283E1	-3.529053211E0	-3.351882473E-2
2.197165114E0	1.119049835E1	-2.750937700E0	3.830722719E-2
2.199902998E0	1.152329254E1	-2.219424963E0	1.843535304E-1
2.201209652E0	1.211466026E1	-1.922544003E0	4.620809257E-1
2.204117848E0	1.325669479E1	-1.522712231E0	5.865794420E-1
2.205663421E0	1.461899567E1	-1.012747288E0	5.841852427E-1
2.208153809E0	1.566047287E1	-5.267243981E-1	6.775590777E-1
2.209314191E0	1.610579491E1	-1.149216816E-1	9.696516991E-1
2.212212155E0	1.607945824E1	2.681505978E-1	1.316810966E0
2.213754152E0	1.584722137E1	6.488286853E-1	1.556231141E0
2.216249191E0	1.559343529E1	9.576807022E-1	1.644816518E0
2.217419152E0	1.532049656E1	1.134851575E0	1.654393315E0
2.220322655E0	1.494221306E1	1.228225470E0	1.668758631E0
2.221879152E0	1.444661331E1	1.273715258E0	1.738190413E0
2.224364460E0	1.387200451E1	1.266532660E0	1.833958507E0
2.225526767E0	1.326627159E1	1.233013868E0	1.951274395E0
2.228438155E0	1.267969227E1	1.168370485E0	2.090138197E0
2.230082344E0	1.191833591E1	1.058237195E0	2.324769735E0
2.232493652E0	1.171243477E1	1.022324085E0	2.401384354E0
2.233716267E0	1.134851646E1	9.409212470E-1	2.590526342E0
2.236574425E0	1.108275986E1	8.379706144E-1	2.820369720E0
2.237881344E0	1.103966427E1	7.517793179E-1	2.997540474E0
2.240354652E0	1.113782597E1	6.631938815E-1	3.201047659E0
2.241934806E0	1.132457447E1	5.003881454E-1	3.634398222E0
2.244807348E0	1.144907284E1	4.237737060E-1	3.967192173E0
2.246364537E0	1.154723454E1	4.309563041E-1	4.276044369E0
2.248841925E0	1.169806957E1	3.998316824E-1	4.527435303E0
2.249978498E0	1.184172153E1	3.782838583E-1	4.728548527E0
2.252900348E0	1.184411621E1	3.854664862E-1	4.699818134E0
2.254429498E0	1.161906052E1	4.094084799E-1	4.067748547E0
2.256936924E0	1.120965195E1	4.094084799E-1	2.674323320E0
2.258080190E0	1.074278259E1	3.782838583E-1	8.906430602E-1
2.260994886E0	1.034774017E1	2.489969730E-1	-6.512228847E-1
2.262570267E0	1.013226128E1	-6.224924326E-2	-1.678335428E0
2.265034421E0	1.003409958E1	-3.567360640E-1	-2.279279947E0
2.266175767E0	1.008916569E1	-5.482721925E-1	-2.525882721E0
2.269097348E0	1.032619190E1	-7.086837292E-1	-2.229001760E0
2.270743075E0	1.080024433E1	-8.930372596E-1	-1.304839969E0
2.273137037E0	1.141076565E1	-1.084573388E0	-8.379705995E-2
2.274277960E0	1.195185471E1	-1.345541358E0	8.475474119E-1
2.277196155E0	1.235168648E1	-1.520318031E0	1.161187768E0
2.278499383E0	1.255519390E1	-1.477222443E0	9.816226959E-1
2.281321424E0	1.253843403E1	-1.403002143E0	5.339069963E-1
2.282556652E0	1.244984913E1	-1.280897856E0	2.154781483E-2
2.285413617E0	1.233732128E1	-1.110909581E0	-3.663128614E-1
2.287016690E0	1.207395935E1	-9.792284966E-1	-4.501099288E-1
2.289461924E0	1.204522896E1	-8.906430602E-1	-3.782838583E-1
2.290633229E0	1.202368069E1	-6.847416759E-1	-1.244984865E-1
2.293519078E0	1.196143150E1	-4.979939461E-1	2.130839527E-1
2.295193383E0	1.170764637E1	-2.537853718E-1	6.823474765E-1
2.297555078E0	1.156399441E1	-1.699883193E-1	7.900865674E-1
2.298831767E0	1.117613316E1	3.830722719E-2	9.313444495E-1
2.301612578E0	1.075714779E1	2.609679997E-1	9.289502501E-1
2.303245537E0	1.033816338E1	5.674257874E-1	7.110779285E-1
2.305667809E0	1.019929886E1	6.703764796E-1	6.727706790E-1
2.306837844E0	9.895236015E0	8.212111592E-1	6.655880809E-1
2.309726117E0	9.607931137E0	7.302315235E-1	7.924807668E-1
2.311437614E0	9.466673851E0	5.722141862E-1	9.145850539E-1
2.313811193E0	9.361329079E0	3.687070608E-1	9.720458984E-1
2.315121267E0	9.165003777E0	3.256114423E-1	1.031900883E0
2.317868963E0	8.784325600E0	5.674257874E-1	1.201889277E0
2.319170152E0	8.334216118E0	8.523358107E-1	1.414973259E0
2.321669960E0	7.972691536E0	1.206677675E0	1.618480325E0
2.323265844E0	7.824251175E0	1.697489023E0	1.750161409E0
2.326086963E0	7.867346764E0	2.214636564E0	1.857900500E0
2.327673960E0	7.948749542E0	2.688688517E0	1.908178806E0
2.330122270E0	8.010998726E0	3.150769472E0	1.795651317E0
2.331314075E0	7.955932140E0	3.536235809E0	1.711854219E0
2.334180040E0	7.742848396E0	3.883395195E0	1.807622313E0
2.335893614E0	7.393294811E0	4.060565948E0	2.396595955E0
2.338232540E0	7.182605267E0	4.019864559E0	3.102885485E0
2.339403306E0	7.302315235E0	4.043806553E0	3.394978046E0
2.342290463E0	7.632715225E0	4.106055737E0	3.289633036E0
2.343869229E0	7.953537941E0	4.103661537E0	3.052607059E0
2.346325001E0	8.152256966E0	4.012681961E0	2.942473888E0
2.347662767E0	8.176198959E0	3.883395195E0	3.062183857E0
2.350383040E0	8.128314972E0	3.801992416E0	3.222595453E0
2.352090998E0	8.027758598E0	3.445256233E0	3.210624456E0
2.354449001E0	7.984662533E0	3.251325846E0	3.126827478E0
2.355698960E0	7.896077156E0	2.875436306E0	2.873042107E0
2.358506116E0	7.824251175E0	2.609679937E0	2.554613113E0
2.360432267E0	7.656657219E0	2.367865562E0	2.121262789E0
2.362517844E0	7.560888767E0	2.305616140E0	2.001552582E0
2.363756537E0	7.383718014E0	2.133233786E0	1.812410712E0
2.366600501E0	7.311892033E0	1.795651317E0	1.702277422E0
2.368205113E0	7.134721279E0	1.436521053E0	1.642422318E0
2.370635693E0	7.053318024E0	1.376665950E0	1.644816518E0
2.371818152E0	6.921637058E0	1.343147159E0	1.623268723E0
2.374693578E0	6.751648903E0	1.254561663E0	1.556231141E0
2.376292575E0	6.619967937E0	1.036689281E0	1.362300754E0
2.378731116E0	6.749254704E0	1.031900883E0	1.137245774E0
2.379957267E0	6.890512466E0	1.015141487E0	9.241618514E-1
2.382789039E0	7.026981831E0	9.026140571E-1	7.876923680E-1
2.384429690E0	7.223306656E0	7.038952708E-1	6.392518282E-1
2.386825001E0	7.331045628E0	5.626373887E-1	4.333505034E-1
2.388096690E0	7.354987621E0	5.051765442E-1	1.364694983E-1
2.390883001E0	7.316680431E0	4.620809257E-1	-2.298433632E-1
2.392588344E0	7.232883453E0	4.932055473E-1	-5.913678408E-1
2.394939116E0	7.098807812E0	6.033388376E-1	-8.978256583E-1
2.396146037E0	6.967126846E0	7.757213712E-1	-1.125274777E0
2.398997001E0	6.888118267E0	1.019929886E0	-1.266532660E0
2.400292921E0	6.782773495E0	1.256955862E0	-1.335964561E0
2.402903729E0	6.627150536E0	1.436521053E0	-1.359906554E0
2.404562767E0	6.430825710E0	1.596932530E0	-1.398213744E0
2.407214962E0	6.224924564E0	1.812410712E0	-1.493981838E0
2.408814267E0	6.042964935E0	2.102109194E0	-1.625662923E0
2.411263885E0	5.856217384E0	2.360682964E0	-1.795651317E0
2.412711113E0	5.659893036E0	2.521094322E0	-1.953668594E0
2.415321193E0	5.501875401E0	2.614468336E0	-2.094926596E0
2.416922421E0	5.403713226E0	2.698265314E0	-2.276885748E0
2.419358270E0	5.307945251E0	2.822763920E0	-2.576161146E0
2.420530421E0	5.305551052E0	2.808398485E0	-2.880224705E0
2.423414808E0	5.580883980E0	2.070984364E0	-3.064578056E0
2.424986383E0	6.083666325E0	7.230489254E-1	-3.270479441E0
2.427471385E0	6.047753334E0	6.416460276E-1	-3.351882458E0
2.428676383E0	5.736507416E0	7.876923680E-1	-3.462015629E0
2.431528655E0	5.358223438E0	1.029506683E0	-3.476380825E0
2.433195229E0	5.003881454E0	1.350329757E0	-3.325546265E0
2.435608924E0	4.912901878E0	1.474828243E0	-3.251325846E0
2.436863113E0	4.709394932E0	1.774103403E0	-3.047818661E0
2.439665770E0	4.429273129E0	2.056619167E0	-2.722207308E0
2.441003037E0	3.845088005E0	1.968033791E0	-1.580173135E0
2.443735037E0	3.971980572E0	1.944091797E0	-8.140285611E-1
2.445181383E0	4.311957359E0	2.114080191E0	-3.208230138E-1
2.447882962E0	4.666299343E0	2.286462545E0	2.226607651E-1
2.449440998E0	5.133168221E0	2.341529369E0	1.139639974E0
2.451916770E0	5.628767967E0	2.288856745E0	2.375048161E0
2.453236806E0	6.050147533E0	2.322375536E0	3.399766445E0
2.455973270E0	6.452373505E0	2.384624958E0	4.434061527E0
2.457543998E0	6.751648903E0	2.396595955E0	5.398924828E0
2.460024885E0	6.914454460E0	2.394201756E0	6.153098583E0
2.461421613E0	6.981492043E0	2.367865562E0	6.713341713E0
2.464082078E0	7.024587631E0	2.334346771E0	7.213729858E0
2.465658037E0	7.000645638E0	2.284068346E0	7.584830761E0
2.468137962E0	6.845022678E0	2.236184359E0	7.728483200E0
2.469484267E0	6.141127586E0	2.343923569E0	7.398083210E0
2.472195501E0	3.043030262E0	3.177105665E0	5.274426460E0
2.473852575E0	-1.857900500E0	4.790797710E0	1.721431017E0
2.476271616E0	-5.398924828E0	6.236895561E0	-1.381454349E0
2.477552998E0	-6.734889507E0	7.187393665E0	-3.466804028E0
2.480329039E0	-6.361393929E0	7.702147007E0	-4.738125324E0
2.481660036E0	-4.905719280E0	7.802703381E0	-5.319916248E0
2.484142921E0	-2.789244890E0	7.546523571E0	-5.130774021E0
2.485707344E0	-3.160346150E-1	7.062894821E0	-4.220977783E0
2.488559962E0	2.078166962E0	6.517016888E0	-2.865859509E0
2.490198883E0	4.663905144E0	5.846640587E0	-6.943184733E-1
2.492593424E0	5.183446884E0	5.683835030E0	-8.858546615E-2
2.493785383E0	5.834669590E0	5.449203014E0	7.637503147E-1
2.496650731E0	6.200982571E0	5.300762653E0	1.189918280E0
2.498227460E0	6.507440090E0	5.159504890E0	1.482010841E0
2.500687000E0	6.612784863E0	5.106832027E0	1.551442742E0
2.501872844E0	6.933608055E0	4.934449673E0	1.699883223E0
2.504744077E0	7.173028469E0	4.596867085E0	2.090138197E0
2.506464267E0	7.618350029E0	4.273650169E0	3.162740469E0
2.508787385E0	7.450755596E0	4.165910721E0	4.469974518E0
2.509973690E0	7.869740963E0	4.053383350E0	5.779603004E0
2.512844424E0	8.925583839E0	3.873818398E0	6.957550049E0
2.514638383E0	9.777919769E0	3.746925592E0	7.649474621E0
2.516884923E0	9.821015358E0	3.749319792E0	7.730877399E0
2.518078383E0	9.263166428E0	3.830722809E0	7.326257229E0
2.520942616E0	8.734047890E0	4.000710964E0	6.868964672E0
2.522238075E0	8.257601738E0	4.213795185E0	6.418854713E0
2.525036690E0	7.893682957E0	4.441244125E0	5.906495571E0
2.526308306E0	7.587224960E0	4.697423935E0	5.468356609E0
2.529160116E0	7.268796444E0	4.996698856E0	5.075707436E0
2.530845267E0	6.916848660E0	5.322310448E0	4.762067318E0
2.533208923E0	6.519411087E0	5.645527840E0	4.544194698E0
2.534397460E0	6.040570736E0	5.954379559E0	4.402936935E0
2.537266577E0	5.439626217E0	6.236895561E0	4.362235546E0
2.538874613E0	4.788403511E0	6.344634533E0	4.422090530E0
2.541304000E0	4.175487995E0	6.320692539E0	4.577713490E0
2.542477844E0	3.754108191E0	6.404489517E0	4.687847137E0
2.545361654E0	3.394978046E0	6.579266071E0	4.819528103E0
2.546934267E0	3.043030262E0	6.777985096E0	4.979939461E0
2.549415270E0	2.710236311E0	6.979097843E0	5.106832027E0
2.550584690E0	2.437297344E0	7.165845871E0	5.200206280E0
2.553470962E0	2.205059767E0	7.343016624E0	5.312733650E0
2.555854536E0	1.886630893E0	7.570465565E0	5.513846397E0
2.557493654E0	1.786074519E0	7.627926826E0	5.556941986E0
2.558682498E0	1.582567334E0	7.716512203E0	5.585672379E0
2.561550654E0	1.285686255E0	7.773972988E0	5.528211594E0
2.562978690E0	9.313444495E-1	7.802703381E0	5.370194435E0
2.565395883E0	6.177040339E-1	7.824251175E0	5.130774021E0
2.567000613E0	2.274491638E-1	7.843404770E0	4.714183331E0
2.569768000E0	-4.788403399E-3	7.836222172E0	4.414907932E0
2.571360152E0	-3.088520169E-1	7.893682957E0	4.048594952E0
2.573801077E0	-7.230489254E-1	8.027758598E0	3.672705412E0
2.575153229E0	-1.060631394E0	8.113949776E0	3.344699860E0
2.577858346E0	-1.297657371E0	8.166622162E0	3.066972494E0
2.579447229E0	-1.596932530E0	8.322244644E0	2.671929121E0
2.581909039E0	-1.929726601E0	8.578424454E0	2.085349798E0
2.583094844E0	-2.305616140E0	9.030928612E0	1.582567334E0
2.585966346E0	-2.779668093E0	9.691728592E0	1.340752959E0
2.587636844E0	-3.323152065E0	1.040759468E1	1.273715258E0
2.589996308E0	-3.909731388E0	1.107557678E1	1.204283476E0
2.591178421E0	-4.532223701E0	1.169328117E1	1.007958889E0
2.594054231E0	-5.061342239E0	1.228943729E1	6.368576288E-1
2.595726998E0	-5.504269600E0	1.287841129E1	1.580173075E-1
2.598120308E0	-6.023811340E0	1.350329781E1	-1.987187415E-1
2.599299806E0	-6.560112476E0	1.414254951E1	-5.291185975E-1
2.602178000E0	-7.003039837E0	1.477701283E1	-9.792284966E-1
2.603494844E0	-7.508216381E0	1.538274574E1	-1.448492050E0
2.606276959E0	-7.939172745E0	1.589510536E1	-1.941697598E0
2.607654575E0	-8.185775757E0	1.635000420E1	-2.458845139E0
2.610410577E0	-8.298302650E0	1.678096008E1	-2.992752075E0
2.611968536E0	-8.346187592E0	1.737472153E1	-3.799597979E0
2.614443615E0	-8.343792915E0	1.756865120E1	-4.067748547E0
2.615779459E0	-8.353369713E0	1.793975258E1	-4.577713490E0
2.618500538E0	-8.279149055E0	1.827972984E1	-5.011064053E0
2.620101075E0	-7.881711960E0	1.877772331E1	-5.552153587E0
2.622535885E0	-7.690176010E0	1.895250130E1	-5.702988625E0
2.623874152E0	-7.275979042E0	1.934514999E1	-5.906495571E0
2.626592731E0	-6.873753071E0	1.978568268E1	-5.999869347E0
2.628391459E0	-6.205770969E0	2.044648170E1	-6.083666325E0
2.630628923E0	-5.892130375E0	2.059013367E1	-6.105214119E0
2.631865383E0	-5.068524837E0	2.071223831E1	-6.205770969E0
2.634685500E0	-4.192247391E0	2.071223831E1	-6.275202751E0
2.636344152E0	-3.119644880E0	2.076012230E1	-5.906495571E0
2.638725461E0	-2.454056740E0	2.076251793E1	-5.382165432E0
2.639895190E0	-1.771709204E0	2.071942139E1	-4.541800499E0
2.642782923E0	-7.948749661E-1	2.058773994E1	-3.347094059E0
2.644172152E0	2.466027737E-1	2.039381027E1	-2.011129379E0
2.646636113E0	9.816226959E-1	2.011368942E1	-8.140285611E-1
2.648156536E0	1.798045516E0	1.967555046E1	1.771709323E-1
2.651001115E0	2.964021683E0	1.908657646E1	9.720458984E-1
2.652851652E0	3.830722809E0	1.841141129E1	1.747767210E0
2.655052038E0	4.642356873E0	1.768836212E1	2.564189911E0
2.656244190E0	5.463568211E0	1.693658257E1	3.141192675E0
2.659109808E0	5.817910194E0	1.618240929E1	3.675099611E0
2.660683075E0	6.311115742E0	1.546175480E1	4.156333923E0
2.663145923E0	6.799532890E0	1.476504230E1	4.534617901E0
2.664326267E0	7.800309181E0	1.413297272E1	5.099649429E0
2.667204038E0	9.193734169E0	1.357751751E1	5.341464043E0
2.668797536E0	9.976638794E0	1.303882217E1	5.252878666E0
2.671266384E0	1.017056847E1	1.252167511E1	5.147533417E0
2.672659536E0	1.056561184E1	1.204044056E1	5.106832027E0
2.675323731E0	1.115458584E1	1.157117653E1	4.975151062E0
2.677057536E0	1.165736771E1	1.074517727E1	4.671087742E0
2.679403000E0	1.162384892E1	1.045787334E1	4.558559895E0
2.680590229E0	1.133415127E1	9.900024414E0	4.290409565E0
2.683460769E0	1.099417400E1	9.349357605E0	3.940855980E0
2.684739998E0	1.091037750E1	8.822632790E0	3.620033026E0
2.687424652E0	1.102529907E1	8.334216118E0	3.258508444E0
2.688812921E0	1.070926380E1	7.862558365E0	2.841917515E0
2.691678384E0	9.957485199E0	7.412448406E0	2.322375536E0
2.693225806E0	8.578424454E0	6.888118267E0	1.568202138E0
2.695712000E0	7.910442352E0	6.605602264E0	1.326387763E0
2.696884267E0	7.481880188E0	6.323086739E0	1.077390790E0
2.699770538E0	7.149086475E0	6.066906929E0	7.517793179E-1
2.701337536E0	6.825869083E0	5.868188381E0	4.261679053E-1
2.703822077E0	6.519411087E0	5.736507416E0	1.340752989E-1
2.705013729E0	6.234501362E0	5.643133640E0	-1.364694983E-1
2.707880038E0	5.966350555E0	5.614402771E0	-3.303998411E-1
2.709447959E0	5.767632008E0	5.628767967E0	-5.363011956E-1
2.711932152E0	5.626373768E0	5.640739441E0	-7.637503147E-1
2.713087306E0	5.477933407E0	5.681440830E0	-9.744400978E-1
2.715995461E0	5.288791656E0	5.765237808E0	-1.163581967E0
2.717707844E0	5.027823448E0	5.889736176E0	-1.340752959E0
2.720073882E0	4.687847137E0	6.050147533E0	-1.508347034E0
2.721238267E0	4.331110954E0	6.224924564E0	-1.663970232E0
2.724131846E0	4.012681961E0	6.411672115E0	-1.788468719E0
2.725444806E0	3.701435804E0	6.612784863E0	-1.865083098E0
2.727992690E0	3.445256233E0	6.811503887E0	-1.915361404E0
2.729489844E0	3.294421434E0	6.971915245E0	-2.001552582E0
2.732367000E0	3.215412855E0	7.120356083E0	-2.082955360E0
2.733911921E0	3.155557871E0	7.240066051E0	-2.128445387E0
2.736402192E0	2.923320293E0	7.098807812E0	-2.054224968E0
2.737626152E0	3.076549292E0	6.426037312E0	-9.457096457E-1
2.740460307E0	4.472368717E0	4.955997467E0	2.121262789E0
2.741988459E0	7.941566944E0	1.833958507E0	9.210494041E0
2.744494729E0	8.916007042E0	8.834604025E-1	1.138921738E1
2.745664229E0	9.823410034E0	-3.758896589E-1	1.409227085E1
2.748555884E0	9.272743225E0	-6.440402865E-1	1.417127991E1
2.750123382E0	7.601590633E0	2.106897533E-1	1.162145519E1
2.752593615E0	7.165845871E0	6.871358752E-1	1.054406452E1
2.753744998E0	6.361393929E0	1.917755604E0	8.202534676E0
2.756651576E0	5.418078423E0	3.545812607E0	5.511452198E0
2.758335075E0	3.888183594E0	6.430825710E0	8.355764151E-1
2.760693461E0	2.978386879E0	8.286332130E0	-2.097320795E0
2.761892575E0	2.231395960E0	9.816226959E0	-4.434061527E0
2.764751423E0	1.666364431E0	1.093910789E1	-6.105214119E0
2.766028190E0	1.345541358E0	1.167412758E1	-7.146692276E0
2.768691498E0	1.249773264E0	1.205719948E1	-7.618350029E0
2.770068998E0	1.395819545E0	1.211226654E1	-7.709329605E0
2.772968923E0	1.831564307E0	1.187284660E1	-7.474697590E0
2.774505536E0	2.530671120E0	1.135569859E1	-6.897695065E0
2.777018999E0	3.445256233E0	1.063264942E1	-6.019022942E0
2.778177190E0	4.469974518E0	9.765948296E0	-4.924872875E0
2.781076384E0	5.544970989E0	8.880094528E0	-3.821146011E0
2.782599113E0	6.545747280E0	8.125920296E0	-2.896984100E0
2.785112692E0	7.393294811E0	7.608773232E0	-2.284068346E0
2.786310459E0	7.896077156E0	7.369352818E0	-2.092532396E0
2.789169692E0	7.963114738E0	7.395689011E0	-2.312798738E0
2.790738729E0	7.651868820E0	7.627926826E0	-2.834734917E0
2.793224230E0	7.096413612E0	8.006210327E0	-3.514688015E0
2.794518382E0	6.409277916E0	8.480262756E0	-4.192247391E0
2.797281922E0	5.683835030E0	8.937555313E0	-4.718971729E0
2.798963267E0	4.716577530E0	9.416395187E0	-5.023035049E0
2.801310807E0	4.448426723E0	9.507374763E0	-4.960785866E0
2.802657267E0	4.012681961E0	9.603142738E0	-4.618414879E0
2.805367615E0	3.684676409E0	9.593565941E0	-4.055777550E0
2.806659305E0	3.426102638E0	9.507374763E0	-3.373430252E0
2.809232536E0	3.229778051E0	9.411606789E0	-2.671929121E0
2.810722767E0	3.138798475E0	9.351752281E0	-2.039859772E0
2.813584499E0	3.078943491E0	9.346963882E0	-1.477222443E0
2.815133305E0	3.301604033E0	9.464279175E0	-5.554547906E-1
2.817619692E0	3.526659012E0	9.521739960E0	-3.160346150E-1
2.818877305E0	3.991134167E0	9.691728592E0	-7.900865376E-2
2.821676845E0	4.335899353E0	1.009634876E1	-2.633621916E-2
2.823251305E0	4.244919777E0	1.034534550E1	9.097966552E-2
2.825730615E0	3.936067581E0	1.052730465E1	3.519476354E-1
2.826984075E0	3.502717018E0	1.060152531E1	6.991068721E-1
2.829788422E0	3.081337690E0	1.057040024E1	1.031900883E0
2.831386459E0	2.772485495E0	1.046984386E1	1.288080573E0
2.833822307E0	2.588132143E0	1.031661510E1	1.467645645E0
2.835008498E0	2.434903145E0	1.012268448E1	1.640028119E0
2.837879538E0	2.382230759E0	9.933543205E0	1.747767210E0
2.839651536E0	2.430114746E0	9.775525093E0	1.781286120E0
2.841945807E0	2.540247917E0	9.643844604E0	1.754949808E0
2.843132882E0	2.655169725E0	9.528923035E0	1.711854219E0
2.846003038E0	2.741360903E0	9.433155060E0	1.663970232E0
2.847505805E0	2.815581083E0	9.346963882E0	1.589749932E0
2.849983113E0	2.918531895E0	9.260771751E0	1.484405041E0
2.851339921E0	3.083731890E0	9.205705643E0	1.340752959E0
2.854234961E0	3.315969467E0	9.169792175E0	1.161187768E0
2.855948382E0	3.529053211E0	9.141061783E0	9.911994934E-1
2.858270730E0	3.615244627E0	9.100360870E0	8.499416113E-1
2.859441882E0	3.701435804E0	9.047688484E0	7.158663273E-1
2.862328422E0	3.885789394E0	9.014169693E0	5.482721925E-1
2.863880805E0	4.115632534E0	8.999804497E0	4.213795066E-1
2.866343959E0	4.311957359E0	8.990227699E0	3.711012602E-1
2.867579267E0	4.438849926E0	8.968679428E0	4.070142806E-1
2.870422499E0	4.556165695E0	8.932766914E0	4.788403511E-1
2.871991652E0	4.683058739E0	8.860940933E0	7.302315235E-1
2.874448690E0	4.671087742E0	8.841787338E0	8.619126081E-1
2.875626344E0	4.467580318E0	8.832210541E0	1.194706678E0
2.878523730E0	4.321534157E0	8.822632790E0	1.508347034E0
2.880199613E0	4.513070107E0	8.765172005E0	1.625662923E0
2.882565307E0	4.627991676E0	8.724471092E0	1.647210717E0
2.883777152E0	4.893748283E0	8.611943245E0	1.695094824E0
2.886622384E0	5.102043629E0	8.508993149E0	1.750161409E0
2.887926767E0	5.216965675E0	8.427590370E0	1.898601890E0
2.890431267E0	5.322310448E0	8.319850922E0	1.946485996E0
2.891987113E0	5.482721806E0	8.152256966E0	1.812410712E0
2.894841614E0	5.669469833E0	7.967903137E0	1.587355733E0
2.896400613E0	5.971138954E0	7.788338184E0	1.335964561E0
2.898892268E0	6.227318764E0	7.671022415E0	1.110909581E0
2.900077459E0	6.301538944E0	7.630321026E0	8.834604025E-1
2.902950807E0	6.423643112E0	7.642292023E0	6.081272364E-1
2.904484152E0	6.598419666E0	7.678205013E0	3.423708379E-1
2.906986921E0	6.708553314E0	7.675810814E0	1.651999205E-1
2.908140075E0	6.725312710E0	7.599195957E0	8.858546615E-2
2.911045307E0	6.651092529E0	7.489062786E0	7.182604820E-2
2.912609498E0	6.584054470E0	7.359776020E0	7.661445439E-2
2.915055267E0	6.572083473E0	7.237671852E0	3.112462163E-2
2.916230228E0	6.615179062E0	7.070077419E0	-5.506663769E-2
2.919130153E0	6.684611320E0	6.854599476E0	-1.963245422E-1
2.920803382E0	6.593631268E0	6.655880928E0	-3.926490843E-1
2.923210960E0	6.449979305E0	6.414066315E0	-5.913678408E-1
2.924423959E0	6.454767704E0	6.110002518E0	-7.829039693E-1
2.927267922E0	6.627150536E0	5.815515995E0	-9.959878922E-1
2.928624190E0	6.835445881E0	5.643133640E0	-1.307234168E0
2.931346498E0	6.919242859E0	5.556941986E0	-1.644816518E0
2.932625536E0	6.995857239E0	5.489904404E0	-1.889025092E0
2.935484768E0	7.220912457E0	5.422866821E0	-2.003946781E0
2.937084075E0	7.527369976E0	5.367800236E0	-2.085349798E0
2.939518537E0	7.572859764E0	5.367800236E0	-2.114080191E0
2.940941575E0	7.601590633E0	5.413290024E0	-2.152387381E0
2.943575499E0	7.558494568E0	5.465962410E0	-2.128445387E0
2.945268459E0	7.486668587E0	5.576095581E0	-2.061407566E0
2.947626999E0	7.491456985E0	5.657498837E0	-2.008735180E0
2.948800382E0	7.479485989E0	5.844246387E0	-1.869871497E0
2.951684076E0	7.388506413E0	6.179434776E0	-1.596932530E0
2.953364882E0	7.326257229E0	6.440402508E0	-1.381454349E0
2.955744614E0	7.242460251E0	6.703764915E0	-1.120486379E0
2.956940075E0	7.079654217E0	6.945579052E0	-7.876923680E-1
2.959801729E0	6.914454460E0	7.110779285E0	-3.902548850E-1
2.961481498E0	6.842628479E0	7.173028469E0	1.029506698E-1
2.963878960E0	6.756437302E0	7.388506413E0	6.320692301E-1
2.965083652E0	6.677428722E0	7.694964409E0	1.142034173E0
2.967936499E0	6.679822922E0	7.922413349E0	1.551442742E0
2.969361844E0	6.749254704E0	8.087613106E0	1.886630893E0
2.971781344E0	6.833051682E0	8.224082947E0	2.195482969E0
2.973309767E0	6.854599476E0	8.367734909E0	2.458845139E0
2.976169268E0	6.833051682E0	8.523358345E0	2.650381327E0
2.977778113E0	6.806715488E0	8.686163902E0	2.760514498E0
2.980204191E0	6.773196697E0	8.884882927E0	2.817975283E0
2.981390498E0	6.725312710E0	9.097966194E0	2.829946518E0
2.984262037E0	6.696582317E0	9.258378029E0	2.770091295E0
2.985998228E0	6.701370716E0	9.294290543E0	2.691082716E0
2.988299499E0	6.641515732E0	9.279925346E0	2.638410330E0
2.989469728E0	6.500257492E0	9.277531624E0	2.573766708E0
2.992357306E0	6.387730122E0	9.263166428E0	2.432508945E0
2.994134459E0	6.426037312E0	8.949525833E0	2.121262789E0
2.996406652E0	6.481103897E0	8.791508675E0	1.991975784E0
2.997607113E0	6.378153324E0	8.736441612E0	1.764526606E0
3.000464960E0	6.045359135E0	8.865729332E0	1.580173135E0
3.002191421E0	5.765237808E0	8.856152534E0	1.326387763E0
3.004505999E0	5.760449409E0	8.798690796E0	1.256955862E0
3.005830113E0	5.817910194E0	8.686163902E0	1.137245774E0
3.008563845E0	5.767632008E0	8.609549522E0	1.007958889E0
3.009875190E0	5.657498837E0	8.492233276E0	8.643068075E-1
3.012581613E0	5.477933407E0	8.303091049E0	6.153098345E-1
3.013895151E0	5.458779812E0	8.185775757E0	4.620809257E-1
3.016781652E0	5.504269600E0	8.106766701E0	2.968810201E-1
3.018374998E0	5.657498837E0	8.051700592E0	7.900865376E-2
3.020830422E0	5.731719017E0	8.039729118E0	-1.580173075E-1
3.021998151E0	5.784391403E0	8.034940720E0	-3.782838583E-1
3.024887537E0	5.815515995E0	8.003816605E0	-5.937620401E-1
3.026594805E0	5.968744755E0	7.711723804E0	-7.733271718E-1
3.028923306E0	6.189011574E0	7.307103634E0	-8.810662031E-1
3.030150651E0	6.030993938E0	7.486668587E0	-9.504981041E-1
3.032980498E0	5.655104637E0	8.018181801E0	-8.738836050E-1
3.034643305E0	5.513846397E0	8.353369713E0	-8.020575643E-1
3.037006845E0	5.465962410E0	8.403648376E0	-8.906430602E-1
3.038195959E0	5.279214859E0	8.374917984E0	-9.457096457E-1
3.041064652E0	5.066130638E0	8.377311707E0	-8.714894056E-1
3.042796805E0	4.963180065E0	8.410830498E0	-7.182605267E-1
3.045146191E0	4.944026470E0	8.473079681E0	-5.793967843E-1
3.046321267E0	5.003881454E0	8.494627953E0	-4.381389022E-1
3.049203960E0	5.176264286E0	8.403648376E0	-2.992752194E-1
3.050497536E0	5.384559631E0	8.343792915E0	-1.532289088E-1
3.053028267E0	5.374982834E0	8.437167168E0	-3.351882473E-2
3.054557998E0	5.214571476E0	8.631096840E0	5.985504389E-2
3.057420652E0	5.255272865E0	8.647856712E0	2.873042040E-2
3.058997690E0	5.781997204E0	8.346187592E0	-2.873042040E-2
3.061455460E0	5.786785603E0	8.465897560E0	-2.394201607E-2
3.062642998E0	5.442020416E0	9.059659004E0	1.915361360E-2
3.065513114E0	4.932055473E0	9.603142738E0	1.077390760E-1
3.067093536E0	4.273650169E0	9.914389610E0	1.604115069E-1
3.069564614E0	4.144362926E0	9.911994934E0	1.604115069E-1
3.070733805E0	4.070142746E0	9.832986832E0	2.011129409E-1
3.073621691E0	4.139574528E0	9.758766174E0	3.040636182E-1
3.075240382E0	4.261679173E0	9.842563629E0	4.309563041E-1
3.077652768E0	4.228160381E0	9.923966408E0	3.950432837E-1
3.078830190E0	4.065354347E0	9.957485199E0	4.548983276E-1
3.081709844E0	3.950432777E0	1.007958889E1	6.009446383E-1
3.083427998E0	3.809175014E0	1.026873112E1	6.727706790E-1
3.085776229E0	3.722983599E0	1.041717148E1	6.967126727E-1
3.087263036E0	3.749319792E0	1.052491093E1	6.607996821E-1
3.089833998E0	3.835511208E0	1.063983250E1	5.865794420E-1
3.091204459E0	3.754108191E0	1.071644688E1	6.009446383E-1
3.093784959E0	3.591302633E0	1.080982113E1	5.961562395E-1
3.095175805E0	3.447650433E0	1.097980881E1	5.722141862E-1
3.098066037E0	3.371036053E0	1.114740276E1	5.267243981E-1
3.099721690E0	3.368641853E0	1.123120022E1	4.620809257E-1
3.102099229E0	3.315969467E0	1.125035381E1	3.591302633E-1
3.103378228E0	3.129221678E0	1.120246983E1	1.675941199E-1
3.106156537E0	3.227383852E0	1.080503273E1	-8.619125932E-2
3.107707575E0	3.720589399E0	1.010113716E1	-3.208230138E-1
3.110193960E0	3.660734415E0	1.019690514E1	-4.572925270E-1
3.111483844E0	2.964021683E0	1.095586681E1	-5.099649429E-1
3.114250960E0	2.233790159E0	1.159272480E1	-4.979939461E-1
3.115809228E0	1.795651317E0	1.185369301E1	-4.477157295E-1
3.118279151E0	1.513135433E0	1.182735634E1	-3.878606856E-1
3.119449421E0	1.206677675E0	1.166455078E1	-3.423708379E-1
3.122343998E0	9.696516991E-1	1.143949604E1	-2.250549644E-1
3.124023190E0	5.147533417E-1	1.113064384E1	-8.140286058E-2
3.126387267E0	3.351882398E-1	1.105402946E1	-7.182604820E-2
3.127637305E0	-8.140286058E-2	1.097980881E1	-1.197100878E-1
3.130444767E0	-5.147533417E-1	1.096783829E1	-2.370259613E-1
3.131739613E0	-8.475474119E-1	1.094868469E1	-3.303998411E-1
3.134391382E0	-1.060631394E0	1.088882923E1	-3.399766386E-1
3.135800574E0	-1.142034173E0	1.080263805E1	-2.466027737E-1
3.138662421E0	-7.445967197E-1	1.065898609E1	7.661445439E-2
3.140245998E0	-1.316810995E-1	1.059434223E1	3.112462163E-1
3.142711690E0	5.530605912E-1	1.057279491E1	5.075707436E-1
3.143861228E0	1.142034173E0	1.059434223E1	6.464344859E-1
3.146769613E0	1.580173135E0	1.064701462E1	7.134721279E-1
3.148330305E0	1.881842494E0	1.068532181E1	7.134721279E-1
3.150805998E0	2.099714994E0	1.075954247E1	5.937620401E-1
3.151965998E0	2.267308950E0	1.086728191E1	3.782838583E-1
3.154863498E0	2.408566952E0	1.101332760E1	2.489969730E-1
3.156420459E0	2.485181332E0	1.105881786E1	2.466027737E-1
3.158930998E0	2.468421936E0	1.097741508E1	1.963245422E-1
3.160195074E0	2.379836559E0	1.088643551E1	9.576806426E-2
3.162988959E0	2.272097349E0	1.082897472E1	-2.394201700E-3
3.164724344E0	2.157175779E0	1.077869606E1	-8.619125932E-2
3.167071036E0	2.051830769E0	1.073799419E1	-1.651999205E-1
3.168305036E0	1.948880196E0	1.069968700E1	-2.202665508E-1
3.171129690E0	1.865083098E0	1.065419769E1	-2.513911724E-1
3.172495574E0	1.805228114E0	1.055842972E1	-2.274491638E-1
3.175027382E0	1.747767210E0	1.043393135E1	-1.867477298E-1
3.176460536E0	1.695094824E0	1.030703831E1	-1.125274822E-1
3.179349306E0	1.625662923E0	1.018972206E1	3.830722719E-2
3.180906767E0	1.544260144E0	1.003170490E1	3.375824392E-1
3.183383921E0	1.537077546E0	9.979032516E0	4.429273009E-1
3.184533498E0	1.546654344E0	9.873687744E0	6.775590777E-1
3.187441729E0	1.558625340E0	9.777919769E0	9.026140571E-1
3.189062998E0	1.546654344E0	9.658209801E0	1.144428372E0
3.191482613E0	1.539471745E0	9.624691010E0	1.197100878E0
3.192737190E0	1.508347034E0	9.579200745E0	1.259350061E0
3.195552382E0	1.465251446E0	9.552865028E0	1.280897856E0
3.197108267E0	1.448492050E0	9.528923035E0	1.242590666E0
3.199579921E0	1.467645645E0	9.531316757E0	1.209071875E0
3.200868459E0	1.537077546E0	9.538499832E0	1.137245774E0
3.203637998E0	1.608903527E0	9.569623947E0	1.046266198E0
3.205312498E0	1.690306425E0	9.605537415E0	9.313444495E-1
3.207695652E0	1.757344007E0	9.574412346E0	8.714894056E-1
3.208879344E0	1.857900500E0	9.473855972E0	7.948749661E-1
3.211752805E0	2.008735180E0	9.311050415E0	7.086837292E-1
3.213113882E0	2.195482969E0	9.097966194E0	6.177040339E-1
3.215697998E0	2.384624958E0	8.860940933E0	4.908113480E-1
3.217091574E0	2.566584110E0	8.638279915E0	3.854664862E-1
3.219984767E0	2.760514498E0	8.449137688E0	3.423708379E-1
3.221530421E0	2.952050686E0	8.267178535E0	3.303998411E-1
3.224020421E0	3.122039080E0	8.061277390E0	2.753331959E-1
3.225188536E0	3.347094059E0	7.850587368E0	1.915361285E-1
3.228078036E0	3.677493811E0	7.666234016E0	1.436520964E-1
3.229635728E0	4.065354347E0	7.524975777E0	1.125274822E-1
3.232113498E0	4.498704910E0	7.438784599E0	9.816227108E-2
3.233281113E0	4.920084476E0	7.400477409E0	1.268926859E-1
3.236171267E0	5.288791656E0	7.393294811E0	1.723825186E-1
3.237768728E0	5.669469833E0	7.369352818E0	2.082955539E-1
3.240214344E0	6.090848923E0	7.295132637E0	2.513911724E-1
3.241383536E0	6.581660271E0	7.184999466E0	2.873041928E-1
3.244271921E0	7.101202011E0	7.046135426E0	2.537853718E-1
3.245956036E0	8.329427719E0	6.677428722E0	4.261679053E-1
3.248314728E0	9.385271072E0	6.351817131E0	8.331822157E-1
3.249508497E0	1.133654499E1	5.453991413E0	1.685518026E0
3.252372344E0	1.176271248E1	4.788403511E0	1.845929503E0
3.253657959E0	1.136767006E1	4.553771496E0	1.606509328E0
3.256272805E0	1.080503273E1	4.560954094E0	1.343147159E0
3.257730382E0	1.020169353E1	4.730942726E0	1.065419793E0
3.260590113E0	9.600749016E0	5.027823448E0	7.637503147E-1
3.262168459E0	8.635885239E0	5.554547787E0	4.477157295E-1
3.264639074E0	8.315062523E0	5.710171223E0	3.399766386E-1
3.265846767E0	7.764396191E0	5.959167957E0	1.651999205E-1
3.268696844E0	7.065289021E0	6.279991150E0	8.379705995E-2
3.270256921E0	6.675034523E0	6.538564682E0	1.149216816E-1
3.272733998E0	6.335057735E0	6.782773495E0	2.202665508E-1
3.273951267E0	6.145915985E0	6.940790653E0	3.878606856E-1
3.276791228E0	6.107608318E0	7.070077419E0	5.626373887E-1
3.278374074E0	6.141127586E0	7.192182064E0	7.062895298E-1
3.280843805E0	6.270414352E0	7.280767441E0	8.355764151E-1
3.282010844E0	6.423643112E0	7.309497833E0	9.528923035E-1
3.284903382E0	6.569689274E0	7.292738438E0	1.015141487E0
3.286548382E0	6.730101109E0	7.242460251E0	1.031900883E0
3.288984228E0	6.947973251E0	7.201758862E0	9.696516991E-1
3.290136305E0	7.137115479E0	7.153874874E0	8.307880163E-1
3.293040805E0	7.275979042E0	7.082048416E0	6.943184733E-1
3.294500921E0	7.405265808E0	7.029376030E0	6.081272364E-1
3.297009997E0	7.436390400E0	7.017405033E0	4.955997467E-1
3.298399036E0	7.407660007E0	7.007828236E0	3.758896589E-1
3.301256805E0	7.398083210E0	7.012616634E0	2.896983922E-1
3.302820228E0	7.455543995E0	7.062894821E0	2.609679997E-1
3.305289267E0	7.565677166E0	7.137115479E0	2.753331959E-1
3.306513305E0	7.687781811E0	7.216124058E0	3.375824392E-1
3.309346305E0	7.809885979E0	7.280767441E0	4.381389022E-1
3.311031421E0	8.183381081E0	7.369352818E0	6.200982332E-1
3.313397574E0	8.341399193E0	7.400477409E0	7.062895298E-1
3.314568767E0	8.604761124E0	7.460332394E0	9.050082564E-1
3.317454420E0	8.774748802E0	7.529764175E0	1.106121182E0
3.319034459E0	8.743624687E0	7.639897823E0	1.266532660E0
3.321486959E0	8.604761124E0	7.675810814E0	1.288080573E0
3.322719959E0	8.106766701E0	7.773972988E0	1.280897856E0
3.325543959E0	7.465120792E0	7.900865555E0	1.228225470E0
3.327273690E0	6.452373505E0	8.075642586E0	1.110909581E0
3.329612382E0	6.131550789E0	8.128314972E0	1.063025594E0
3.330991459E0	5.544970989E0	8.224082947E0	9.457096457E-1
3.333669959E0	5.006275654E0	8.291120529E0	5.961562395E-1
3.334980267E0	4.680664539E0	8.341399193E0	3.112462163E-2
3.337551305E0	4.228160381E0	8.389283180E0	-3.351882398E-1
3.339204151E0	4.012681961E0	8.353369713E0	5.985504389E-2
3.341900651E0	4.225766182E0	8.264783859E0	6.679822803E-1
3.343456267E0	4.723760128E0	8.166622162E0	9.624691010E-1
3.345934920E0	5.207388878E0	8.087613106E0	9.193734527E-1
3.347301228E0	5.453991413E0	8.056488991E0	6.991068721E-1
3.349991766E0	5.420472622E0	8.061277390E0	4.285621047E-1
3.351696920E0	5.245696068E0	8.101978302E0	1.580173075E-1
3.354027843E0	5.030217648E0	8.171410561E0	-5.985504389E-2
3.355226805E0	4.903325081E0	8.279149055E0	-1.795651317E-1
3.358084497E0	4.893748283E0	8.410830498E0	-1.628057212E-1
3.359707190E0	4.932055473E0	8.532935143E0	0.000000000E0
3.362126036E0	4.975151062E0	8.650250435E0	2.274491638E-1
3.363363305E0	4.984727859E0	8.765172005E0	4.141969085E-1
3.366182613E0	4.979939461E0	8.884882927E0	5.267243981E-1
3.367857344E0	4.984727859E0	9.030928612E0	6.129156351E-1
3.370226497E0	5.001487255E0	9.176975250E0	6.512228847E-1
3.371417997E0	4.999093056E0	9.299078941E0	6.703764796E-1
3.374283305E0	4.948814869E0	9.397241592E0	6.727706790E-1
3.375706536E0	4.843470097E0	9.457097054E0	6.727706790E-1
3.378140074E0	4.721365929E0	9.478644371E0	6.919242740E-1
3.379733574E0	4.635174274E0	9.478644371E0	7.302315235E-1
3.382499766E0	4.544194698E0	9.461885452E0	7.757213712E-1
3.384161574E0	4.333505154E0	9.392453194E0	8.762778044E-1
3.386546843E0	4.240131378E0	9.375694275E0	9.121908545E-1
3.387734036E0	4.053383350E0	9.349357605E0	9.816226959E-1
3.390604228E0	3.914519787E0	9.330204010E0	1.060631394E0
3.392190997E0	3.761290789E0	9.313444138E0	1.168370485E0
3.394640036E0	3.658340216E0	9.318233490E0	1.230619669E0
3.395812305E0	3.603273630E0	9.323021889E0	1.304839969E0
3.398697882E0	3.600879431E0	9.330204010E0	1.321599364E0
3.400318459E0	3.684676409E0	9.320627213E0	1.312022567E0
3.402737035E0	3.811569214E0	9.311050415E0	1.288080573E0
3.403923228E0	3.902548790E0	9.320627213E0	1.244984865E0
3.406795074E0	3.928884983E0	9.325415611E0	1.216254473E0
3.408520267E0	3.897760391E0	9.291896820E0	1.209071875E0
3.410876728E0	3.811569214E0	9.232041359E0	1.209071875E0
3.412101959E0	3.691859007E0	9.150638580E0	1.213860273E0
3.414933843E0	3.564966440E0	9.069235802E0	1.209071875E0
3.416262228E0	3.543418407E0	8.971074104E0	1.216254473E0
3.418810613E0	3.567360640E0	8.901641846E0	1.218648672E0
3.420291920E0	3.677493811E0	8.858546257E0	1.209071875E0
3.423152458E0	3.881000996E0	8.829815865E0	1.189918280E0
3.424733036E0	4.122815132E0	8.817844391E0	1.134851575E0
3.427186651E0	4.359841347E0	8.784325600E0	1.065419793E0
3.428396113E0	4.515464306E0	8.743624687E0	1.000776291E0
3.431244074E0	4.611232281E0	8.700529099E0	9.504981041E-1
3.433007420E0	4.687847137E0	8.664615631E0	9.050082564E-1
3.435295805E0	4.752490520E0	8.619126320E0	8.523358107E-1
3.436481267E0	4.781220913E0	8.573636055E0	7.829039693E-1
3.439353112E0	4.771644115E0	8.544905663E0	7.158663273E-1
3.441144997E0	4.707000732E0	8.523358345E0	6.009446383E-1
3.443391535E0	4.683058739E0	8.511386871E0	5.626373887E-1
3.444852882E0	4.649539471E0	8.485051155E0	5.027823448E-1
3.447448689E0	4.647145271E0	8.451532364E0	4.405331016E-1
3.449128343E0	4.695029736E0	8.415618896E0	3.711012602E-1
3.451527151E0	4.730942726E0	8.415618896E0	3.519476354E-1
3.452729805E0	4.831499100E0	8.422801971E0	3.256114423E-1
3.455585112E0	4.924872875E0	8.441955566E0	3.160346150E-1
3.457054305E0	5.066130638E0	8.504204750E0	3.280056417E-1
3.459497305E0	5.166687489E0	8.542511940E0	3.327940404E-1
3.460983497E0	5.269638062E0	8.561665535E0	3.447650373E-1
3.463818228E0	5.363011837E0	8.571242332E0	3.423708379E-1
3.465409959E0	5.403713226E0	8.580819130E0	3.184288144E-1
3.467853151E0	5.377377033E0	8.580819130E0	2.944868207E-1
3.469064613E0	5.307945251E0	8.566453934E0	2.849099934E-1
3.471910497E0	5.219359875E0	8.552088737E0	2.537853718E-1
3.473481536E0	5.104437828E0	8.544905663E0	2.418143749E-1
3.475945997E0	4.987122059E0	8.528146744E0	2.657563984E-1
3.477116882E0	4.860229492E0	8.513781548E0	2.896983922E-1
3.480003151E0	4.745307922E0	8.477868080E0	2.681505978E-1
3.481630036E0	4.656722069E0	8.420407295E0	2.274491638E-1
3.484028881E0	4.599261284E0	8.367734909E0	1.699883193E-1
3.485193536E0	4.568136692E0	8.355764389E0	7.900865376E-2
3.488086689E0	4.525041103E0	8.367734909E0	-9.576806799E-3
3.489786805E0	4.455609322E0	8.396465302E0	-2.633621916E-2
3.492126651E0	4.345476151E0	8.470685959E0	9.337386489E-2
3.493338113E0	4.168305397E0	8.549694061E0	3.806780577E-1
3.496184266E0	4.000710964E0	8.602366447E0	7.757213712E-1
3.497594613E0	3.960009575E0	8.588001251E0	1.086967587E0
3.500209190E0	4.067748547E0	8.513781548E0	1.185129881E0
3.501708920E0	4.276044369E0	8.384494781E0	1.098938584E0
3.504400920E0	4.548983097E0	8.236053467E0	9.121908545E-1
3.506009536E0	4.965574265E0	8.049305916E0	6.081272364E-1
3.508450766E0	5.075707436E0	8.003816605E0	5.147533417E-1
3.509814420E0	5.233725071E0	7.929595947E0	3.878606856E-1
3.512508227E0	5.372588634E0	7.862558365E0	3.280056417E-1
3.514030420E0	5.552153587E0	7.812280178E0	3.112462163E-1
3.516543650E0	5.578489780E0	7.802703381E0	3.160346150E-1
3.517716651E0	5.612008572E0	7.793126583E0	3.375824392E-1
3.520600881E0	5.583278179E0	7.819462776E0	3.447650373E-1
3.522190036E0	5.456385612E0	7.908048153E0	2.801215947E-1
3.524638227E0	5.382165432E0	7.979874134E0	2.489969730E-1
3.525824959E0	5.329493046E0	8.034940720E0	2.226607651E-1
3.528695458E0	5.295974255E0	8.080430984E0	1.532289088E-1
3.530443074E0	5.260061264E0	8.125920296E0	2.154781483E-2
3.532776497E0	5.190629482E0	8.157045364E0	-1.891419291E-1
3.533947920E0	5.087678432E0	8.169015884E0	-2.944868207E-1
3.536833766E0	5.137956619E0	8.113949776E0	-1.508347094E-1
3.538113382E0	5.291185856E0	8.085219383E0	5.506663769E-2
3.540692920E0	5.408501625E0	8.157045364E0	1.987187415E-1
3.542160190E0	5.465962410E0	8.312667847E0	2.537853718E-1
3.545051804E0	5.487510204E0	8.485051155E0	2.657563984E-1
3.546630305E0	5.485116005E0	8.592789650E0	2.873041928E-1
3.549086112E0	5.458779812E0	8.611943245E0	3.327940404E-1
3.550281151E0	5.418078423E0	8.578424454E0	3.854664862E-1
3.553143573E0	5.365406036E0	8.528146744E0	4.429273009E-1
3.554716459E0	5.317522049E0	8.458714485E0	5.865794420E-1
3.557180190E0	5.262455463E0	8.396465302E0	8.283938169E-1
3.558366805E0	5.181052685E0	8.432378769E0	1.022324085E0
3.561253766E0	5.102043629E0	8.525752068E0	1.103726983E0
3.562853343E0	5.058948040E0	8.566453934E0	1.065419793E0
3.565293381E0	5.042188644E0	8.523358345E0	9.648633003E-1
3.566488805E0	5.130774021E0	8.379706383E0	7.613561153E-1
3.569349650E0	5.511452198E0	8.310274124E0	1.915361285E-1
3.571014882E0	5.863399982E0	8.537723541E0	-2.035071403E-1
3.573416727E0	5.746084213E0	8.475474358E0	1.292868853E-1
3.574632459E0	5.422866821E0	8.240841866E0	6.560112834E-1
3.577473304E0	5.080495834E0	8.116343498E0	7.398083210E-1
3.578815074E0	5.145139217E0	8.159439087E0	4.932055473E-1
3.581452074E0	5.600037575E0	8.279149055E0	3.998316824E-1
3.583271036E0	6.169857979E0	8.468291283E0	4.429273009E-1
3.585704766E0	6.402095318E0	8.556877136E0	5.291185975E-1
3.587269113E0	6.658275127E0	8.638279915E0	6.033388376E-1
3.589737458E0	6.962338448E0	8.678980827E0	6.392518282E-1
3.590905805E0	7.156269073E0	8.674192429E0	6.177040339E-1
3.593793958E0	7.254431248E0	8.669404030E0	5.530605912E-1
3.595334305E0	7.237671852E0	8.714894295E0	4.285621047E-1
3.597829458E0	7.220912457E0	8.784325600E0	4.165911078E-1
3.599030997E0	6.940790653E0	8.872911453E0	4.357447028E-1
3.601885689E0	6.411672115E0	9.054870605E0	3.256114423E-1
3.603494690E0	5.947196960E0	9.337387085E0	2.322375625E-1
3.605937073E0	5.623979568E0	9.677363396E0	1.316810995E-1
3.607111728E0	5.262455463E0	1.001733971E1	9.576806426E-2
3.609994189E0	4.874594688E0	1.024000072E1	7.182604820E-2
3.611818766E0	4.632780075E0	1.023521233E1	9.097966552E-2
3.614050881E0	4.563348293E0	9.916783333E0	1.556231081E-1
3.615244805E0	4.592078686E0	9.433155060E0	2.298433632E-1
3.618108573E0	4.553771496E0	8.975862503E0	2.968810201E-1
3.619784190E0	4.496310711E0	8.592789650E0	3.088520169E-1
3.621902497E0	4.596867085E0	8.221688271E0	3.040636182E-1
3.623443074E0	4.733336926E0	7.891288757E0	2.873041928E-1
3.626325765E0	4.809951305E0	7.627926826E0	2.657563984E-1
3.627866959E0	4.946420670E0	7.271190643E0	3.016694188E-1
3.630375958E0	5.039794445E0	7.163451672E0	3.303998411E-1
3.631660997E0	5.248090267E0	6.947973251E0	4.094084799E-1
3.634433035E0	5.406107426E0	6.751648903E0	4.405331016E-1
3.635978036E0	5.655104637E0	6.493074894E0	4.285621047E-1
3.638465997E0	5.784391403E0	6.428431511E0	4.309563041E-1
3.639656536E0	6.062118530E0	6.335057735E0	4.357447028E-1
3.642525688E0	6.342240334E0	6.291962147E0	4.357447028E-1
3.644113959E0	6.696582317E0	6.287173748E0	4.165911078E-1
3.646559535E0	6.782773495E0	6.296750546E0	3.902548850E-1
3.647735766E0	6.945579052E0	6.387730122E0	3.208230138E-1
3.650616881E0	6.981492043E0	6.588842869E0	2.513911724E-1
3.652327382E0	6.708553314E0	6.703764915E0	2.059013397E-1
3.654697765E0	6.325480938E0	6.861782074E0	1.292868853E-1
3.655877113E0	5.940014362E0	7.041347027E0	5.267243832E-2
3.658754842E0	5.621585369E0	7.211335659E0	-4.788403399E-3
3.660220497E0	5.427655220E0	7.354987621E0	-4.788403213E-2
3.662687997E0	5.353435040E0	7.508216381E0	-8.379705995E-2
3.664184997E0	5.341464043E0	7.678205013E0	-1.173158810E-1
3.666972650E0	5.305551052E0	7.855375767E0	-1.556231081E-1
3.668517305E0	5.248090267E0	8.027758598E0	-1.963245422E-1
3.671006804E0	5.197812080E0	8.195352554E0	-2.322375625E-1
3.672187113E0	5.171475887E0	8.353369713E0	-2.537853718E-1
3.675064842E0	5.157110691E0	8.492233276E0	-2.561795712E-1
3.676635382E0	5.130774021E0	8.585607529E0	-2.370259613E-1
3.679116919E0	5.102043629E0	8.633491516E0	-1.939303428E-1
3.680317766E0	5.116408825E0	8.655038834E0	-1.556231081E-1
3.683174265E0	5.161899090E0	8.676587105E0	-1.364694983E-1
3.684837920E0	5.200206280E0	8.705317497E0	-1.149216816E-1
3.687213111E0	5.202600479E0	8.693346024E0	2.394201700E-3
3.688449151E0	5.257667065E0	8.690952301E0	7.182604820E-2
3.691270650E0	5.331887245E0	8.712499619E0	8.858546615E-2
3.693089574E0	5.458779812E0	8.700529099E0	1.125274822E-1
3.695348457E0	5.516240597E0	8.678980827E0	1.316810995E-1
3.696641266E0	5.571307182E0	8.671798706E0	1.987187415E-1
3.699405457E0	5.645527840E0	8.702922821E0	2.705447972E-1
3.700718843E0	5.875370979E0	8.767566681E0	3.351882398E-1
3.703258036E0	6.155492783E0	8.779537201E0	3.878606856E-1
3.704750728E0	6.279991150E0	8.702922821E0	4.070142806E-1
3.707635496E0	6.205770969E0	8.537723541E0	3.375824392E-1
3.709185728E0	6.138733387E0	8.408436775E0	2.753331959E-1
3.711669573E0	6.019022942E0	8.295908928E0	2.059013397E-1
3.712923805E0	5.746084213E0	8.207323074E0	1.197100878E-1
3.715725880E0	5.475539207E0	8.128314972E0	4.788403399E-3
3.717303882E0	5.353435040E0	8.022970200E0	-1.292868853E-1
3.719755613E0	5.358223438E0	7.920019150E0	-2.466027737E-1
3.720938074E0	5.463568211E0	7.860164165E0	-3.280056417E-1
3.723815880E0	5.602431774E0	7.838616371E0	-3.854664862E-1
3.725426382E0	5.700594425E0	7.838616371E0	-4.261679053E-1
3.727871380E0	5.781997204E0	7.836222172E0	-4.668693244E-1
3.729064189E0	5.839457989E0	7.845798969E0	-4.764461517E-1
3.731927957E0	5.813121796E0	7.876923561E0	-4.716577232E-1
3.733607843E0	5.702988625E0	7.943961143E0	-4.620809257E-1
3.735968996E0	5.547365189E0	8.034940720E0	-4.453215301E-1
3.737156920E0	5.401319027E0	8.123526573E0	-4.333505034E-1
3.740025611E0	5.269638062E0	8.214506149E0	-4.022258818E-1
3.741314613E0	5.188235283E0	8.279149055E0	-3.567360640E-1
3.743972882E0	5.128379822E0	8.334216118E0	-3.040636182E-1
3.745435651E0	5.013458252E0	8.418013573E0	-2.825157940E-1
3.748241111E0	4.867412090E0	8.504204750E0	-2.489969730E-1
3.749903497E0	4.752490520E0	8.576030731E0	-2.011129409E-1
3.752290150E0	4.668693542E0	8.609549522E0	-1.340752989E-1
3.753493228E0	4.599261284E0	8.614337921E0	-5.506663769E-2
3.756347650E0	4.508281708E0	8.614337921E0	1.197100803E-2
3.757915882E0	4.374206543E0	8.597578049E0	1.149216816E-1
3.760383457E0	4.338293552E0	8.585607529E0	1.532289088E-1
3.761631959E0	4.311957359E0	8.556877136E0	2.250549644E-1
3.764440611E0	4.311957359E0	8.525752068E0	2.968810201E-1
3.766074228E0	4.288015366E0	8.475474358E0	3.830722570E-1
3.768477226E0	4.273650169E0	8.451532364E0	4.046200812E-1
3.769670651E0	4.252102375E0	8.401253700E0	4.453215301E-1
3.772535073E0	4.230554581E0	8.350975990E0	4.716577232E-1
3.774224074E0	4.199429989E0	8.259995461E0	4.955997467E-1
3.776617803E0	4.197035789E0	8.202534676E0	5.147533417E-1
3.777811497E0	4.218583584E0	8.135497093E0	5.363011956E-1
3.780675265E0	4.256890774E0	8.051700592E0	5.386953950E-1
3.782100266E0	4.288015366E0	7.965508938E0	5.339069963E-1
3.784544612E0	4.314351559E0	7.891288757E0	5.386953950E-1
3.786064074E0	4.311957359E0	7.848193169E0	5.530605912E-1
3.788894149E0	4.314351559E0	7.826645374E0	5.650315881E-1
3.790541766E0	4.383783340E0	7.833827972E0	5.770025849E-1
3.792928957E0	4.486733913E0	7.852981567E0	5.817909837E-1
3.794120805E0	4.582501888E0	7.888894558E0	6.057330370E-1
3.796985919E0	4.647145271E0	7.934384346E0	6.320692301E-1
3.798579459E0	4.695029736E0	8.006210327E0	6.607996821E-1
3.801037034E0	4.766855717E0	8.090007782E0	6.943184733E-1
3.802258228E0	4.759673119E0	8.125920296E0	7.038952708E-1
3.805095419E0	4.687847137E0	8.164227486E0	6.943184733E-1
3.806698497E0	4.642356873E0	8.226476669E0	6.631938815E-1
3.809139457E0	4.673481941E0	8.293514252E0	6.224924326E-1
3.810376959E0	4.721365929E0	8.353369713E0	5.961562395E-1
3.813197495E0	4.747702122E0	8.401253700E0	5.458779931E-1
3.814923420E0	4.886565685E0	8.441955566E0	3.782838583E-1
3.817265188E0	4.996698856E0	8.427590370E0	2.992752194E-1
3.818438920E0	5.195417881E0	8.350975990E0	1.771709323E-1
3.821323149E0	5.339069843E0	8.274360657E0	1.101332754E-1
3.822712959E0	5.398924828E0	8.240841866E0	2.394201607E-2
3.825288843E0	5.370194435E0	8.245630264E0	-1.053448766E-1
3.826726343E0	5.274426460E0	8.269572258E0	-2.681505978E-1
3.829558226E0	5.157110691E0	8.307879448E0	-4.237737060E-1
3.831166805E0	4.987122059E0	8.339004517E0	-5.913678408E-1
3.833593149E0	4.941632271E0	8.350975990E0	-6.009446383E-1
3.834777997E0	4.884171486E0	8.382100105E0	-5.363011956E-1
3.837651534E0	4.874594688E0	8.439560890E0	-2.753331959E-1
3.839199459E0	4.979939461E0	8.477868080E0	-5.746084079E-2
3.841692611E0	5.348646641E0	8.439560890E0	1.125274822E-1
3.842968036E0	5.621585369E0	8.389283180E0	1.580173075E-1
3.845751688E0	5.626373768E0	8.374917984E0	1.053448766E-1
3.847359343E0	5.499481201E0	8.386888504E0	-4.788403399E-3
3.849806341E0	5.348646641E0	8.406042099E0	-1.244984865E-1
3.850988612E0	5.169081688E0	8.434772491E0	-2.226607651E-1
3.853865072E0	4.944026470E0	8.487444878E0	-2.968810201E-1
3.855903728E0	4.716577530E0	8.599972725E0	-3.327940404E-1
3.857907457E0	4.697423935E0	8.690952301E0	-3.615244627E-1
3.859269305E0	4.809951305E0	8.705317497E0	-3.088520169E-1
3.861965803E0	4.879383087E0	8.738836288E0	-2.370259613E-1
3.863316728E0	4.934449673E0	8.748413086E0	-1.915361285E-1
3.865839574E0	5.042188644E0	8.736441612E0	-1.675941199E-1
3.867399151E0	5.197812080E0	8.736441612E0	-1.987187415E-1
3.870185303E0	5.353435040E0	8.726864815E0	-2.418143749E-1
3.871750574E0	5.489904404E0	8.714894295E0	-2.681505978E-1
3.874235072E0	5.645527840E0	8.719682693E0	-2.729389966E-1
3.875401574E0	5.827486992E0	8.738836288E0	-2.513911724E-1
3.878292303E0	6.014234543E0	8.760383606E0	-2.130839527E-1
3.879898189E0	6.354211330E0	8.813055992E0	-1.221042871E-1
3.882329649E0	6.438008308E0	8.832210541E0	-9.097966552E-2
3.883516920E0	6.447585106E0	8.841787338E0	-4.070143029E-2
3.886387380E0	6.306327343E0	8.834604263E0	2.154781483E-2
3.887976535E0	5.990292549E0	8.839392662E0	8.619125932E-2
3.890426034E0	5.863399982E0	8.836998940E0	9.576806426E-2
3.891661728E0	5.671864033E0	8.829815865E0	1.412578970E-1
3.894483072E0	5.544970989E0	8.808267593E0	2.106897533E-1
3.896165420E0	5.310339451E0	8.729259491E0	3.184288144E-1
3.898564726E0	5.219359875E0	8.698134422E0	3.327940404E-1
3.899896728E0	5.020640850E0	8.623914719E0	3.567360640E-1
3.902621995E0	4.762067318E0	8.477868080E0	3.782838583E-1
3.903918074E0	4.529829502E0	8.386888504E0	4.022258818E-1
3.906602843E0	4.244919777E0	8.331821442E0	4.333505034E-1
3.907961420E0	4.003105164E0	8.281543732E0	4.333505034E-1
3.910839841E0	3.818751812E0	8.243236542E0	4.357447028E-1
3.912393420E0	3.739742994E0	8.212111473E0	4.501099288E-1
3.914876995E0	3.761290789E0	8.154650688E0	4.429273009E-1
3.916051497E0	3.801992416E0	8.082824707E0	4.118026793E-1
3.918934918E0	3.825934410E0	8.030152321E0	3.902548850E-1
3.920674382E0	3.986345768E0	8.010998726E0	3.782838583E-1
3.922987380E0	4.266467571E0	7.994239330E0	3.782838583E-1
3.924173535E0	4.594472885E0	7.955932140E0	3.950432837E-1
3.927045149E0	4.891354084E0	7.912836552E0	3.974374831E-1
3.928685151E0	5.152322292E0	7.876923561E0	3.782838583E-1
3.931083995E0	5.442020416E0	7.852981567E0	3.327940404E-1
3.932260959E0	5.710171223E0	7.833827972E0	2.801215947E-1
3.935141764E0	5.940014362E0	7.817068577E0	2.154781520E-1
3.936821497E0	6.131550789E0	7.833827972E0	1.412578970E-1
3.939185610E0	6.294356346E0	7.852981567E0	1.125274822E-1
3.940359805E0	6.428431511E0	7.881711960E0	1.005564705E-1
3.943242687E0	6.478709698E0	7.927201748E0	1.005564705E-1
3.944565497E0	6.464344501E0	8.008605003E0	1.244984865E-1
3.947135535E0	6.327875137E0	8.192957878E0	1.604115069E-1
3.948663612E0	6.153098583E0	8.590395927E0	2.585737705E-1
3.951475149E0	5.861005783E0	9.186552048E0	5.267243981E-1
3.953107766E0	4.685452938E0	9.847352028E0	1.053448796E0
3.955508072E0	4.237737179E0	9.943120003E0	1.199495077E0
3.956863151E0	3.560178041E0	9.991003990E0	1.400607944E0
3.959564956E0	3.268085241E0	9.921571732E0	1.472434044E0
3.961131382E0	3.703830004E0	9.706093788E0	1.271321058E0
3.963601495E0	4.426878929E0	9.471462250E0	9.672574997E-1
3.964818805E0	5.252878666E0	9.186552048E0	6.392518282E-1
3.967658226E0	6.028599739E0	8.889671326E0	3.184288144E-1
3.969276112E0	6.624756336E0	8.590395927E0	4.309562966E-2
3.971676882E0	7.089231014E0	8.334216118E0	-1.436520964E-1
3.972873189E0	7.422025204E0	8.125920296E0	-3.016694188E-1
3.975741726E0	7.587224960E0	7.984662533E0	-4.381389022E-1
3.977502805E0	7.601590633E0	7.936778545E0	-5.267243981E-1
3.979783264E0	7.515398979E0	7.982268333E0	-5.817909837E-1
3.981071766E0	7.297526836E0	8.080430984E0	-6.081272364E-1
3.983839226E0	6.878541470E0	8.207323074E0	-6.057330370E-1
3.985111189E0	6.342240334E0	8.336610794E0	-5.937620401E-1
3.987729112E0	5.805939198E0	8.434772491E0	-5.793967843E-1
3.989171843E0	5.279214859E0	8.516175270E0	-5.674257874E-1
3.992053802E0	4.817133904E0	8.561665535E0	-5.410895944E-1
3.993614728E0	4.479551315E0	8.571242332E0	-5.243301988E-1
3.996101379E0	4.254496574E0	8.561665535E0	-5.147533417E-1
3.997271651E0	4.067748547E0	8.520963669E0	-5.027823448E-1
4.000157341E0	3.952826977E0	8.461109161E0	-4.740519226E-1
4.001722151E0	3.945644379E0	8.403648376E0	-4.333505034E-1
4.004192149E0	3.993528366E0	8.339004517E0	-3.998316824E-1
4.005358228E0	4.019864559E0	8.250418663E0	-3.758896589E-1
4.008247572E0	3.979163170E0	8.152256966E0	-3.471592367E-1
4.009866997E0	3.881000996E0	8.018181801E0	-3.064578176E-1
4.012282341E0	3.861847401E0	7.979874134E0	-2.873041928E-1
4.013486035E0	3.758896589E0	7.920019150E0	-2.657563984E-1
4.016338572E0	3.596091032E0	7.896077156E0	-2.585737705E-1
4.018023728E0	3.253720045E0	7.850587368E0	-2.130839527E-1
4.020398841E0	3.193865061E0	7.831433773E0	-1.987187415E-1
4.021584074E0	3.251325846E0	7.788338184E0	-1.388636976E-1
4.024455764E0	3.421314240E0	7.752425194E0	-5.267243832E-2
4.025750343E0	3.505111217E0	7.730877399E0	3.591302410E-2
4.028269305E0	3.466804028E0	7.728483200E0	9.576806426E-2
4.029811305E0	3.653551817E0	7.702147007E0	1.388636976E-1
4.032671572E0	3.892971992E0	7.692570210E0	1.963245422E-1
4.034404112E0	4.058171749E0	7.694964409E0	2.226607651E-1
4.036706648E0	4.211400986E0	7.671022415E0	1.987187415E-1
4.037894305E0	4.355052948E0	7.615955830E0	1.747767180E-1
4.040763456E0	4.618414879E0	7.548917770E0	1.747767180E-1
4.042319728E0	4.855441093E0	7.551311970E0	2.202665508E-1
4.044816456E0	4.920084476E0	7.649474621E0	2.466027737E-1
4.045984728E0	5.097255230E0	7.764396191E0	2.106897533E-1
4.048874187E0	5.382165432E0	7.852981567E0	1.867477298E-1
4.050464189E0	5.451597214E0	7.896077156E0	2.011129409E-1
4.052913879E0	5.252878666E0	7.960720539E0	2.035071403E-1
4.054077728E0	5.183446884E0	8.094796181E0	2.202665508E-1
4.056971610E0	5.216965675E0	8.188169479E0	2.753331959E-1
4.058647689E0	5.166687489E0	8.269572258E0	2.920926213E-1
4.061038918E0	5.130774021E0	8.358158112E0	2.370259613E-1
4.062237535E0	5.135562420E0	8.434772491E0	1.628057212E-1
4.065096379E0	5.015852451E0	8.487444878E0	8.379705995E-2
4.066432458E0	4.936843872E0	8.530540466E0	3.351882473E-2
4.069054997E0	4.924872875E0	8.585607529E0	5.267243832E-2
4.070461535E0	4.879383087E0	8.652645111E0	8.140286058E-2
4.073328456E0	4.845864296E0	8.738836288E0	1.077390760E-1
4.074927651E0	4.764461517E0	8.829815865E0	1.197100878E-1
4.077363994E0	4.750096321E0	8.844181061E0	1.053448766E-1
4.078584843E0	4.809951305E0	8.853757858E0	8.379705995E-2
4.081422418E0	4.953603268E0	8.844181061E0	7.182604820E-2
4.082968151E0	5.137956619E0	8.801085472E0	2.873042040E-2
4.085460494E0	5.164293289E0	8.777143478E0	7.182605099E-3
4.086610074E0	5.178658485E0	8.736441612E0	-2.873042040E-2
4.089518071E0	5.142745018E0	8.688557625E0	-5.267243832E-2
4.091107151E0	4.996698856E0	8.647856712E0	-1.101332754E-1
4.093562228E0	4.939238071E0	8.626308441E0	-1.292868853E-1
4.094722228E0	4.831499100E0	8.554482460E0	-1.244984865E-1
4.097627379E0	4.728548527E0	8.453926086E0	-5.985504389E-2
4.099289843E0	4.678270340E0	8.358158112E0	-1.915361360E-2
4.101668533E0	4.630385876E0	8.255207062E0	2.394201607E-2
4.102843958E0	4.568136692E0	8.192957878E0	6.224924326E-2
4.105724610E0	4.484339714E0	8.178592682E0	1.029506698E-1
4.107013689E0	4.422090530E0	8.185775757E0	1.460463107E-1
4.109601305E0	4.422090530E0	8.180987358E0	1.628057212E-1
4.111172035E0	4.441244125E0	8.173804283E0	1.628057212E-1
4.113939225E0	4.467580318E0	8.178592682E0	1.484405100E-1
4.115504112E0	4.508281708E0	8.195352554E0	1.340752989E-1
4.117986610E0	4.563348293E0	8.204929352E0	1.221042871E-1
4.119178458E0	4.604049683E0	8.200140953E0	1.268926859E-1
4.122042071E0	4.599261284E0	8.190564156E0	1.628057212E-1
4.123605651E0	4.570530891E0	8.195352554E0	2.011129409E-1
4.126076840E0	4.532223701E0	8.214506149E0	2.322375625E-1
4.127244881E0	4.489128113E0	8.231265068E0	2.657563984E-1
4.130132533E0	4.472368717E0	8.233659744E0	3.040636182E-1
4.131800920E0	4.486733913E0	8.231265068E0	3.160346150E-1
4.134175994E0	4.580107689E0	8.236053467E0	3.064578176E-1
4.135361458E0	4.747702122E0	8.243236542E0	2.896983922E-1
4.138232533E0	4.886565685E0	8.236053467E0	2.633621991E-1
4.139951651E0	4.984727859E0	8.250418663E0	2.106897533E-1
4.142311456E0	5.001487255E0	8.255207062E0	1.987187415E-1
4.143616920E0	5.025429249E0	8.267178535E0	1.723825186E-1
4.146367802E0	5.046977043E0	8.293514252E0	1.484405100E-1
4.147932305E0	5.054159641E0	8.310274124E0	1.268926859E-1
4.150304343E0	5.044582844E0	8.324639320E0	1.053448766E-1
4.151723305E0	5.035006046E0	8.319850922E0	9.576806426E-2
4.154582110E0	5.058948040E0	8.312667847E0	1.101332754E-1
4.156201035E0	5.092466831E0	8.353369713E0	1.149216816E-1
4.158614725E0	5.123591423E0	8.382100105E0	1.053448766E-1
4.159806881E0	5.135562420E0	8.343792915E0	8.140286058E-2
4.162670186E0	5.123591423E0	8.233659744E0	5.267243832E-2
4.164356458E0	5.102043629E0	8.173804283E0	1.149216816E-1
4.166718763E0	5.039794445E0	8.305485725E0	2.801215947E-1
4.167919612E0	4.932055473E0	8.485051155E0	3.687070608E-1
4.170773956E0	4.886565685E0	8.607154846E0	3.639186621E-1
4.172541958E0	4.872200489E0	8.573636055E0	2.849099934E-1
4.174808686E0	4.809951305E0	8.283937454E0	1.197100878E-1
4.176047420E0	4.718971729E0	7.982268333E0	5.985504389E-2
4.178864456E0	4.515464306E0	7.869740963E0	1.795651317E-1
4.180542035E0	4.402936935E0	7.977479935E0	3.974374831E-1
4.182939571E0	4.374206543E0	8.049305916E0	4.094084799E-1
4.184171651E0	4.489128113E0	8.128314972E0	4.261679053E-1
4.186995994E0	4.474762917E0	8.159439087E0	3.974374831E-1
4.188324535E0	4.527435303E0	8.221688271E0	4.261679053E-1
4.190886074E0	4.618414879E0	8.334216118E0	3.782838583E-1
4.192415497E0	4.730942726E0	8.530540466E0	3.782838583E-1
4.195224840E0	4.659116745E0	8.528146744E0	2.466027737E-1
4.196887920E0	4.709394932E0	8.403648376E0	1.149216816E-1
4.199257686E0	4.843470097E0	8.561665535E0	1.891419291E-1
4.200434766E0	4.606443882E0	8.688557625E0	1.867477298E-1
4.203312917E0	4.395754337E0	8.609549522E0	1.675941199E-1
4.204870728E0	4.371812344E0	8.908824921E0	3.351882398E-1
4.207347802E0	4.242525578E0	8.973467827E0	3.088520169E-1
4.208519074E0	4.086902142E0	8.875306129E0	2.106897533E-1
4.211404686E0	4.283226967E0	9.021351814E0	3.112462163E-1
4.213024343E0	4.067748547E0	9.054870605E0	1.819593310E-1
4.215459802E0	4.067748547E0	8.939949036E0	1.364694983E-1
4.216640420E0	4.311957359E0	9.040505409E0	2.513911724E-1
4.219515763E0	4.237737179E0	9.165003777E0	2.394201756E-1
4.221174574E0	4.367023945E0	8.841787338E0	1.244984865E-1
4.223555148E0	4.458003521E0	8.856152534E0	1.436520964E-1
4.224733651E0	4.331110954E0	8.695740700E0	1.436521020E-2
4.227611571E0	4.589684486E0	8.549694061E0	2.154781483E-2
4.228925843E0	4.467580318E0	8.508993149E0	-6.464344263E-2
4.231641189E0	4.625597477E0	8.516175270E0	-5.985504389E-2
4.232965612E0	4.568136692E0	8.556877136E0	-8.379705995E-2
4.235826263E0	4.505887508E0	8.506598473E0	-1.484405100E-1
4.237411381E0	4.577713490E0	8.528146744E0	-1.292868853E-1
4.239874148E0	4.532223701E0	8.516175270E0	-1.987187415E-1
4.241054843E0	4.685452938E0	8.516175270E0	-1.723825186E-1
4.243930186E0	4.625597477E0	8.513781548E0	-1.963245422E-1
4.245585228E0	4.738125324E0	8.535328865E0	-1.939303428E-1
4.247967955E0	4.707000732E0	8.535328865E0	-1.867477298E-1
4.249179497E0	4.845864296E0	8.523358345E0	-2.082955539E-1
4.252024532E0	4.944026470E0	8.518569946E0	-2.106897533E-1
4.253635574E0	5.023035049E0	8.480262756E0	-2.825157940E-1
4.256060378E0	5.051765442E0	8.420407295E0	-3.256114423E-1
4.257466112E0	5.058948040E0	8.336610794E0	-3.663128614E-1
4.260116994E0	5.035006046E0	8.262390137E0	-3.519476354E-1
4.261785343E0	5.061342239E0	8.207323074E0	-2.992752194E-1
4.264199340E0	5.154716492E0	8.159439087E0	-2.226607651E-1
4.265481112E0	5.264849663E0	8.116343498E0	-1.412578970E-1
