"Time (s)"	"Gyroscope x (rad/s)"	"Gyroscope y (rad/s)"	"Gyroscope z (rad/s)"
9.708933000E-3	3.834952042E-2	-4.175836742E-1	-1.747033745E-1
1.091019200E-2	3.834952042E-2	-4.175836742E-1	-1.747033745E-1
1.374743300E-2	3.834952042E-2	-4.175836742E-1	-1.747033745E-1
1.495565400E-2	3.834952042E-2	-4.175836742E-1	-1.747033745E-1
1.780512500E-2	3.834952042E-2	-4.175836742E-1	-1.747033745E-1
1.939800000E-2	3.834952042E-2	-4.175836742E-1	-1.747033745E-1
2.186431800E-2	3.834952042E-2	-4.175836742E-1	-1.747033745E-1
2.307150000E-2	3.834952042E-2	-4.175836742E-1	-1.747033745E-1
2.592274100E-2	3.834952042E-2	-4.175836742E-1	-1.747033745E-1
2.777834600E-2	3.834952042E-2	-4.175836742E-1	-1.747033745E-1
2.996112500E-2	3.834952042E-2	-4.175836742E-1	-1.747033745E-1
3.111476900E-2	3.834952042E-2	-4.175836742E-1	-1.747033745E-1
3.401947100E-2	3.834952042E-2	-4.175836742E-1	-1.747033745E-1
3.567057700E-2	3.834952042E-2	-4.175836742E-1	-1.747033745E-1
3.809674100E-2	3.834952042E-2	-4.175836742E-1	-1.747033745E-1
3.925884600E-2	3.834952042E-2	-4.175836742E-1	-1.747033745E-1
4.215474100E-2	1.320927888E-1	-3.552657068E-1	-3.685815036E-1
4.344342300E-2	1.294296384E-1	-3.627225459E-1	-3.771036267E-1
4.604553800E-2	1.241033077E-1	-3.712446690E-1	-3.861583769E-1
4.748750000E-2	1.155811921E-1	-3.749730885E-1	-3.925499618E-1
5.038835600E-2	1.070590764E-1	-3.824299276E-1	-3.994741738E-1
5.193419200E-2	1.006674916E-1	-3.904194236E-1	-4.026699662E-1
5.442239400E-2	9.267801046E-2	-3.973436356E-1	-4.085289240E-1
5.564342300E-2	8.788431436E-2	-4.127899706E-1	-4.095941782E-1
5.847970200E-2	8.681905270E-2	-4.277036786E-1	-4.122573435E-1
6.004011500E-2	8.202536404E-2	-4.484763443E-1	-4.127899706E-1
6.251574100E-2	8.468852192E-2	-4.676510990E-1	-4.154531360E-1
6.367284600E-2	8.468852192E-2	-4.926848114E-1	-4.170510471E-1
6.657377900E-2	8.788431436E-2	-5.182511806E-1	-4.181163013E-1
6.818776900E-2	9.480853379E-2	-5.581985712E-1	-4.229099751E-1
7.062870200E-2	9.640643001E-2	-5.704491138E-1	-4.245078862E-1
7.179530700E-2	1.006674916E-1	-5.965480804E-1	-4.266384244E-1
7.468627900E-2	1.059938148E-1	-6.226470470E-1	-4.287689328E-1
7.636846100E-2	1.171790883E-1	-6.620618701E-1	-4.298342168E-1
7.872724000E-2	1.203748807E-1	-6.748450398E-1	-4.340952635E-1
7.992873100E-2	1.299622655E-1	-6.988134980E-1	-4.378236830E-1
8.278416400E-2	1.379517466E-1	-7.217166424E-1	-4.404868484E-1
8.408046100E-2	1.507349163E-1	-7.568703890E-1	-4.495415986E-1
8.683411500E-2	1.565938741E-1	-7.792409658E-1	-4.575310946E-1
8.821892300E-2	1.640507281E-1	-8.021441102E-1	-4.644553065E-1
9.100197100E-2	1.699096859E-1	-8.181231022E-1	-4.740426838E-1
9.258203800E-2	1.778991669E-1	-8.394283652E-1	-4.857605994E-1
9.505166300E-2	1.848233789E-1	-8.522115946E-1	-4.948153496E-1
9.633303800E-2	1.880191714E-1	-8.591358066E-1	-5.086637735E-1
9.910927900E-2	1.906823367E-1	-8.580704927E-1	-5.161206126E-1
1.007564230E-1	1.933455020E-1	-8.532768488E-1	-5.310343504E-1
1.031459710E-1	1.928128600E-1	-8.426241875E-1	-5.406216979E-1
1.043408070E-1	1.912149638E-1	-8.261125684E-1	-5.528722405E-1
1.072040480E-1	1.901497096E-1	-8.064051867E-1	-5.629922748E-1
1.088392300E-1	1.896170676E-1	-7.893609405E-1	-5.725796223E-1
1.112365480E-1	1.874865443E-1	-7.723167539E-1	-5.842975378E-1
1.125021150E-1	1.832254827E-1	-7.574030161E-1	-5.933523178E-1
1.152944330E-1	1.789644361E-1	-7.462177277E-1	-6.045376062E-1
1.170664610E-1	1.757686287E-1	-7.366303802E-1	-6.178534031E-1
1.193761250E-1	1.720402092E-1	-7.286409140E-1	-6.327670813E-1
1.205648840E-1	1.683117896E-1	-7.190535069E-1	-6.407565475E-1
1.234332400E-1	1.656486243E-1	-7.089334726E-1	-6.556702852E-1
1.247685770E-1	1.619201899E-1	-6.977482438E-1	-6.689860821E-1
1.273183460E-1	1.539307088E-1	-6.817692518E-1	-6.823018789E-1
1.288185380E-1	1.480717659E-1	-6.673882008E-1	-6.956176758E-1
1.316512790E-1	1.416801661E-1	-6.428871155E-1	-7.126619220E-1
1.332920380E-1	1.257012039E-1	-6.093312502E-1	-7.318366766E-1
1.356868560E-1	1.193096191E-1	-5.949501991E-1	-7.440872192E-1
1.369044230E-1	1.102548689E-1	-5.709817410E-1	-7.590008974E-1
1.397442020E-1	1.012001261E-1	-5.470132828E-1	-7.755125165E-1
1.416953840E-1	8.468852192E-2	-5.134574771E-1	-8.026767969E-1
1.437951250E-1	7.669904083E-2	-4.948153496E-1	-8.207862377E-1
1.449839610E-1	6.498113275E-2	-4.809668958E-1	-8.394283652E-1
1.478523560E-1	5.645901710E-2	-4.687163532E-1	-8.591358066E-1
1.495113840E-1	4.527373984E-2	-4.591289759E-1	-8.804410696E-1
1.518882020E-1	3.781688958E-2	-4.468784332E-1	-9.028116465E-1
1.531221920E-1	3.036003746E-2	-4.383563101E-1	-9.225190282E-1
1.559452020E-1	1.970739290E-2	-4.314320982E-1	-9.427590370E-1
1.576722300E-1	8.522115648E-3	-4.170510471E-1	-9.640643597E-1
1.600103940E-1	-2.130528912E-3	-4.021373391E-1	-9.880327582E-1
1.613638840E-1	-1.544633508E-2	-3.845604658E-1	-1.008272767E0
1.640678170E-1	-3.089267015E-2	-3.621899188E-1	-1.031175971E0
1.654201540E-1	-4.580637068E-2	-3.382214606E-1	-1.051948667E0
1.681893460E-1	-6.231797114E-2	-3.094593287E-1	-1.071123362E0
1.695368460E-1	-7.936219871E-2	-2.785666585E-1	-1.090830803E0
1.722996630E-1	-9.640643001E-2	-2.412824035E-1	-1.109472990E0
1.739695000E-1	-1.129180342E-1	-2.018676102E-1	-1.129180312E0
1.763335860E-1	-1.267664731E-1	-1.661812514E-1	-1.145159245E0
1.775694610E-1	-1.443433315E-1	-1.241033077E-1	-1.157942414E0
1.803918940E-1	-1.565938741E-1	-8.575379103E-2	-1.174454093E0
1.819726920E-1	-1.661812514E-1	-5.379585549E-2	-1.186172009E0
1.844288170E-1	-1.773665249E-1	-2.609897964E-2	-1.201085687E0
1.856926540E-1	-1.864212751E-1	-6.391586736E-3	-1.209607840E0
1.884854710E-1	-1.938781291E-1	3.195793368E-3	-1.220260382E0
1.901247300E-1	-1.976065636E-1	2.130528912E-3	-1.234108925E0
1.925322400E-1	-1.949433982E-1	-5.326322280E-3	-1.237837315E0
1.937490380E-1	-1.917476058E-1	-2.396845073E-2	-1.242630959E0
1.965888940E-1	-1.816275865E-1	-5.539375171E-2	-1.249022603E0
1.983306920E-1	-1.613875628E-1	-1.161138266E-1	-1.256479383E0
2.006292780E-1	-1.528654546E-1	-1.400822699E-1	-1.257012010E0
2.020256540E-1	-1.304948926E-1	-1.896170676E-1	-1.261273146E0
2.046868170E-1	-1.065264493E-1	-2.471413612E-1	-1.266599417E0
2.060028840E-1	-7.776430249E-2	-3.073287904E-1	-1.269795179E0
2.086231150E-1	-3.195793182E-2	-3.989415467E-1	-1.278317332E0
2.100859610E-1	-5.326322280E-4	-4.575310946E-1	-1.283643723E0
2.129057780E-1	3.249056637E-2	-5.161206126E-1	-1.293763638E0
2.146838070E-1	6.444849819E-2	-5.683186054E-1	-1.301753163E0
2.169562780E-1	9.427590668E-2	-6.135923266E-1	-1.312938452E0
2.181928070E-1	1.304948926E-1	-6.519418359E-1	-1.326254249E0
2.210134710E-1	1.624528319E-1	-6.844323874E-1	-1.336906910E0
2.226647690E-1	1.965412945E-1	-7.110640407E-1	-1.349157453E0
2.250486630E-1	2.263686955E-1	-7.291735411E-1	-1.365669012E0
2.263991920E-1	2.561961114E-1	-7.499461770E-1	-1.378984809E0
2.291055860E-1	2.833603323E-1	-7.627293468E-1	-1.393898487E0
2.308144230E-1	3.041329980E-1	-7.723167539E-1	-1.412540674E0
2.331658550E-1	3.243730366E-1	-7.787083387E-1	-1.430650115E0
2.344324230E-1	3.430151641E-1	-7.787083387E-1	-1.450357556E0
2.372231240E-1	3.557983339E-1	-7.803062201E-1	-1.465803862E0
2.390069230E-1	3.669835925E-1	-7.771103978E-1	-1.483913422E0
2.413025090E-1	3.760383427E-1	-7.771103978E-1	-1.500424981E0
2.425403840E-1	3.834952116E-1	-7.781757116E-1	-1.521730304E0
2.453596630E-1	3.882888854E-1	-7.850999236E-1	-1.540904999E0
2.468725770E-1	3.909520507E-1	-7.920241356E-1	-1.560079813E0
2.494852400E-1	3.936152160E-1	-8.069378138E-1	-1.579787135E0
2.507850000E-1	3.936152160E-1	-8.261125684E-1	-1.603755593E0
2.535774320E-1	3.893541694E-1	-8.516789079E-1	-1.622397780E0
2.551675770E-1	3.802994192E-1	-8.996158242E-1	-1.661279917E0
2.576109320E-1	3.755057156E-1	-9.177253246E-1	-1.670334697E0
2.589302690E-1	3.680488765E-1	-9.603359103E-1	-1.685781002E0
2.616680860E-1	3.595267534E-1	-9.981527925E-1	-1.695901036E0
2.634213840E-1	3.392867148E-1	-1.057807565E0	-1.713477850E0
2.657188940E-1	3.344930410E-1	-1.080178142E0	-1.723597884E0
2.669477690E-1	3.158509135E-1	-1.133973956E0	-1.748631597E0
2.697759320E-1	2.860234976E-1	-1.208009839E0	-1.786981106E0
2.714242690E-1	2.663161159E-1	-1.255414128E0	-1.807221174E0
2.738027400E-1	2.471413612E-1	-1.296426892E0	-1.832787514E0
2.750323460E-1	2.231729031E-1	-1.338504791E0	-1.860484362E0
2.778596630E-1	2.013349831E-1	-1.386441708E0	-1.888713837E0
2.797204610E-1	1.778991669E-1	-1.434378624E0	-1.914280176E0
2.819021240E-1	1.512675583E-1	-1.486043930E0	-1.945705533E0
2.831446150E-1	1.272991002E-1	-1.540904999E0	-1.973935008E0
2.859585090E-1	9.480853379E-2	-1.593635678E0	-2.003229856E0
2.873644230E-1	6.817692518E-2	-1.638909340E0	-2.029861450E0
2.900203840E-1	3.781688958E-2	-1.684183121E0	-2.063417196E0
2.913364230E-1	-5.326322280E-4	-1.722532630E0	-2.094842434E0
2.941882780E-1	-3.462109342E-2	-1.751827359E0	-2.123072147E0
2.958193840E-1	-7.669904083E-2	-1.767806411E0	-2.157160521E0
2.982213170E-1	-1.166464612E-1	-1.771534801E0	-2.186987877E0
2.994982300E-1	-1.587243974E-1	-1.769936919E0	-2.224804878E0
3.022776240E-1	-2.061286718E-1	-1.750762105E0	-2.268480778E0
3.039420380E-1	-2.460760921E-1	-1.716140985E0	-2.315884829E0
3.063121630E-1	-2.908172011E-1	-1.671399951E0	-2.360625982E0
3.076252300E-1	-3.371562064E-1	-1.619202018E0	-2.402704000E0
3.103682780E-1	-3.792341352E-1	-1.563808203E0	-2.442118883E0
3.120194230E-1	-4.229099751E-1	-1.505218625E0	-2.479403019E0
3.144115860E-1	-4.644553065E-1	-1.453020692E0	-2.517220020E0
3.156637300E-1	-5.028048158E-1	-1.400290132E0	-2.550775766E0
3.184684320E-1	-5.443501472E-1	-1.356081605E0	-2.582201004E0
3.201903840E-1	-5.986786485E-1	-1.296959519E0	-2.627474785E0
3.225088160E-1	-6.146575809E-1	-1.277252078E0	-2.638127327E0
3.237965380E-1	-6.439523697E-1	-1.246359468E0	-2.663693666E0
3.265658550E-1	-6.695187092E-1	-1.220260382E0	-2.684466362E0
3.279493070E-1	-6.950850487E-1	-1.198955178E0	-2.699912786E0
3.306905860E-1	-7.142598033E-1	-1.182443500E0	-2.715891838E0
3.320572690E-1	-7.302387953E-1	-1.176584601E0	-2.727077007E0
3.347817010E-1	-7.478156686E-1	-1.176584601E0	-2.747317076E0
3.366123840E-1	-7.574030161E-1	-1.184041500E0	-2.757969618E0
3.388298930E-1	-7.616640925E-1	-1.200553060E0	-2.765426636E0
3.401039610E-1	-7.605988383E-1	-1.207477212E0	-2.765959263E0
3.428874320E-1	-7.563377619E-1	-1.215999365E0	-2.760632753E0
3.445343840E-1	-7.536746264E-1	-1.235174179E0	-2.755839109E0
3.469233160E-1	-7.430219650E-1	-1.251685739E0	-2.748382330E0
3.481630760E-1	-7.371630073E-1	-1.277252078E0	-2.743588686E0
3.509812780E-1	-7.254450917E-1	-1.303351045E0	-2.737196922E0
3.526037690E-1	-7.147924304E-1	-1.332113147E0	-2.729740143E0
3.550137390E-1	-7.014766335E-1	-1.361940622E0	-2.721750736E0
3.563481150E-1	-6.876282096E-1	-1.397094369E0	-2.707902193E0
3.590715090E-1	-6.732471585E-1	-1.426921725E0	-2.699912786E0
3.608681530E-1	-6.572681665E-1	-1.460477591E0	-2.690325499E0
3.631338930E-1	-6.444849968E-1	-1.491902828E0	-2.675944328E0
3.644226920E-1	-6.279733777E-1	-1.525991321E0	-2.666889668E0
3.671912010E-1	-6.146575809E-1	-1.555818796E0	-2.659965277E0
3.685561920E-1	-5.997439027E-1	-1.584048271E0	-2.645584345E0
3.712265380E-1	-5.858954787E-1	-1.610147238E0	-2.635996819E0
3.726090000E-1	-5.731122494E-1	-1.629321933E0	-2.624811649E0
3.754091240E-1	-5.592638254E-1	-1.646898866E0	-2.613626242E0
3.770732300E-1	-5.486112237E-1	-1.659149408E0	-2.599245310E0
3.794425090E-1	-5.395564437E-1	-1.671932578E0	-2.587527275E0
3.809188460E-1	-5.326322317E-1	-1.680454731E0	-2.573146343E0
3.834998930E-1	-5.289037824E-1	-1.689509392E0	-2.555569410E0
3.852315380E-1	-5.251753926E-1	-1.698031545E0	-2.528937817E0
3.875498930E-1	-5.262406468E-1	-1.701759934E0	-2.518817902E0
3.888687300E-1	-5.352953672E-1	-1.700694680E0	-2.501773596E0
3.916071620E-1	-5.395564437E-1	-1.693770528E0	-2.484729290E0
3.932823840E-1	-5.550028086E-1	-1.674063087E0	-2.460228205E0
3.956455470E-1	-5.597964525E-1	-1.663943052E0	-2.453836679E0
3.968556150E-1	-5.709817410E-1	-1.639974594E0	-2.439988136E0
3.997018930E-1	-5.869607329E-1	-1.610147238E0	-2.429335594E0
4.014575760E-1	-6.098638773E-1	-1.560079813E0	-2.416552305E0
4.037674700E-1	-6.269081235E-1	-1.523328185E0	-2.411226034E0
4.051246150E-1	-6.439523697E-1	-1.484978676E0	-2.404834509E0
4.078246240E-1	-6.620618701E-1	-1.445563912E0	-2.402171373E0
4.092170000E-1	-6.812366247E-1	-1.405616403E0	-2.401106119E0
4.119644700E-1	-6.993461251E-1	-1.368332148E0	-2.403236628E0
4.134441150E-1	-7.185208797E-1	-1.331580520E0	-2.408030272E0
4.160571620E-1	-7.350324988E-1	-1.291633129E0	-2.418683052E0
4.178441530E-1	-7.531419992E-1	-1.254881501E0	-2.427737713E0
4.200895850E-1	-7.675230503E-1	-1.214934111E0	-2.442651510E0
4.213948840E-1	-7.797735929E-1	-1.173388839E0	-2.458630323E0
4.241464310E-1	-7.898935676E-1	-1.123321414E0	-2.476207256E0
4.258293460E-1	-8.016114831E-1	-1.068460226E0	-2.493784189E0
4.281811620E-1	-8.032094240E-1	-1.005609632E0	-2.512958765E0
4.294503460E-1	-8.122641444E-1	-9.454222322E-1	-2.536927223E0
4.322381240E-1	-8.133293986E-1	-8.857674003E-1	-2.559830427E0
4.339620760E-1	-8.170578480E-1	-8.245146871E-1	-2.588592529E0
4.362845850E-1	-8.197209835E-1	-7.637946010E-1	-2.618420124E0
4.375322690E-1	-8.229168057E-1	-7.089334726E-1	-2.650910616E0
4.403411240E-1	-8.202536106E-1	-6.540724039E-1	-2.686596870E0
4.421136920E-1	-8.202536106E-1	-5.784385800E-1	-2.741458178E0
4.443822010E-1	-8.197209835E-1	-5.544701219E-1	-2.757969618E0
4.459008460E-1	-8.133293986E-1	-5.044026971E-1	-2.796851873E0
4.484389310E-1	-8.069378138E-1	-4.538026452E-1	-2.833070755E0
4.499036530E-1	-8.010788560E-1	-4.095941782E-1	-2.866626740E0
4.524367300E-1	-7.930893898E-1	-3.659183383E-1	-2.901780367E0
4.540282690E-1	-7.898935676E-1	-3.312972486E-1	-2.931075096E0
4.566550080E-1	-7.803062201E-1	-2.918824553E-1	-2.963033199E0
4.583217690E-1	-7.675230503E-1	-2.359560728E-1	-3.006176233E0
4.607033540E-1	-7.621967196E-1	-2.205097377E-1	-3.018959522E0
4.619313840E-1	-7.499461770E-1	-1.837581247E-1	-3.046123743E0
4.647598160E-1	-7.302387953E-1	-1.379517466E-1	-3.079679489E0
4.663673070E-1	-7.179882526E-1	-1.145159304E-1	-3.100984812E0
4.687953160E-1	-7.030745149E-1	-1.017327532E-1	-3.121757507E0
4.700212300E-1	-6.897587180E-1	-9.960222989E-2	-3.140932322E0
4.728522390E-1	-6.796387434E-1	-1.086569726E-1	-3.162237644E0
4.745050760E-1	-6.673882008E-1	-1.230380461E-1	-3.173955441E0
4.768861620E-1	-6.567355394E-1	-1.459412277E-1	-3.186738729E0
4.783327300E-1	-6.444849968E-1	-1.704423130E-1	-3.197391272E0
4.809432770E-1	-6.306365728E-1	-1.981391907E-1	-3.201119661E0
4.827367690E-1	-6.157228351E-1	-2.205097377E-1	-3.202717543E0
4.850230470E-1	-5.986786485E-1	-2.375539690E-1	-3.200587034E0
4.866994610E-1	-5.805691481E-1	-2.524676621E-1	-3.192597628E0
4.890800850E-1	-5.645901561E-1	-2.647182047E-1	-3.185140610E0
4.904951530E-1	-5.432848930E-1	-2.727077007E-1	-3.175020695E0
4.932052000E-1	-5.289037824E-1	-2.764361203E-1	-3.161172390E0
4.945944990E-1	-5.075985193E-1	-2.785666585E-1	-3.148921728E0
4.972967770E-1	-4.878911078E-1	-2.801645398E-1	-3.137203932E0
4.989281530E-1	-4.692489803E-1	-2.775014043E-1	-3.122290134E0
5.013292000E-1	-4.516721368E-1	-2.759034932E-1	-3.112170219E0
5.026025760E-1	-4.314320982E-1	-2.705771625E-1	-3.098321676E0
5.053860080E-1	-4.095941782E-1	-2.631203234E-1	-3.087669134E0
5.070743840E-1	-3.888215125E-1	-2.551308274E-1	-3.075951099E0
5.094363160E-1	-3.648530841E-1	-2.450108230E-1	-3.059972048E0
5.106738460E-1	-3.430151641E-1	-2.322276533E-1	-3.047188997E0
5.134932770E-1	-3.195793331E-1	-2.199771106E-1	-3.033873081E0
5.151439230E-1	-2.844256163E-1	-1.965412945E-1	-3.014698505E0
5.175250460E-1	-2.716424465E-1	-1.869539171E-1	-3.008306742E0
5.187694610E-1	-2.476739883E-1	-1.699096859E-1	-2.993393183E0
5.215821230E-1	-2.263686955E-1	-1.502022892E-1	-2.979012012E0
5.233652300E-1	-1.928128600E-1	-1.155811921E-1	-2.958771944E0
5.256590080E-1	-1.837581247E-1	-1.027980223E-1	-2.950782537E0
5.269419610E-1	-1.624528319E-1	-7.243798673E-2	-2.935336113E0
5.297163160E-1	-1.422128081E-1	-4.154531285E-2	-2.918824673E0
5.313749990E-1	-1.118527651E-1	1.491370238E-2	-2.895921469E0
5.336727690E-1	-9.321063757E-2	5.752427876E-2	-2.873018265E0
5.352306150E-1	-7.190535218E-2	1.075917110E-1	-2.853310823E0
5.379470850E-1	-5.219795927E-2	1.597896665E-1	-2.833603382E0
5.399386150E-1	-3.142530099E-2	2.103897333E-1	-2.816559315E0
5.419816620E-1	-1.065264456E-2	2.636529505E-1	-2.797917128E0
5.432677300E-1	7.456851192E-3	3.131877482E-1	-2.780872822E0
5.460387000E-1	2.716424316E-2	3.584614992E-1	-2.762230635E0
5.476595380E-1	4.793690145E-2	3.962783813E-1	-2.745719194E0
5.500752000E-1	6.711166352E-2	4.298342168E-1	-2.725479126E0
5.513021920E-1	8.628641814E-2	4.559331834E-1	-2.710565329E0
5.541323540E-1	1.054611802E-1	4.745753109E-1	-2.688727379E0
5.557922300E-1	1.262338310E-1	4.889563918E-1	-2.668487549E0
5.581861230E-1	1.480717659E-1	4.942827225E-1	-2.643453836E0
5.594125760E-1	1.688444167E-1	4.996090233E-1	-2.616289616E0
5.622432390E-1	1.890844405E-1	4.969458580E-1	-2.587527275E0
5.640086150E-1	2.109223604E-1	4.894890189E-1	-2.559297800E0
5.662830460E-1	2.311623842E-1	4.788363874E-1	-2.530003071E0
5.677379220E-1	2.530003190E-1	4.655205607E-1	-2.498045206E0
5.703407390E-1	2.695119083E-1	4.516721368E-1	-2.466087103E0
5.717123840E-1	2.913498282E-1	4.356931746E-1	-2.434129238E0
5.744654690E-1	3.089267015E-1	4.181163013E-1	-2.402704000E0
5.759209990E-1	3.265035450E-1	3.994741738E-1	-2.372344017E0
5.785571230E-1	3.419498801E-1	3.813646734E-1	-2.342516422E0
5.802421530E-1	3.664509654E-1	3.584614992E-1	-2.295112371E0
5.826070080E-1	3.717772961E-1	3.504720032E-1	-2.277002811E0
5.838772300E-1	3.845604658E-1	3.424825370E-1	-2.250371218E0
5.866638540E-1	3.984089196E-1	3.334277868E-1	-2.218413115E0
5.883363460E-1	4.170510471E-1	3.275688291E-1	-2.173139572E0
5.906988150E-1	4.207794666E-1	3.275688291E-1	-2.159291029E0
5.919480380E-1	4.346278906E-1	3.296993375E-1	-2.129463673E0
5.947559690E-1	4.506068528E-1	3.419498801E-1	-2.081526756E0
5.964194220E-1	4.612595141E-1	3.536677957E-1	-2.049036264E0
5.987877770E-1	4.719121456E-1	3.680488765E-1	-2.015480280E0
6.000503070E-1	4.814995229E-1	3.813646734E-1	-1.980326653E0
6.028457000E-1	4.894890189E-1	3.957457542E-1	-1.945172906E0
6.045988070E-1	4.985437691E-1	4.101268053E-1	-1.907888651E0
6.069281230E-1	5.086637735E-1	4.266384244E-1	-1.867408633E0
6.081999990E-1	5.182511806E-1	4.442152679E-1	-1.826395869E0
6.109858920E-1	5.289037824E-1	4.623247683E-1	-1.784317970E0
6.124033070E-1	5.390238166E-1	4.804342687E-1	-1.739044189E0
6.150460380E-1	5.486112237E-1	4.969458580E-1	-1.690042019E0
6.164261150E-1	5.581985712E-1	5.134574771E-1	-1.639974594E0
6.192043540E-1	5.688512325E-1	5.262406468E-1	-1.585113525E0
6.209389990E-1	5.773733258E-1	5.406216979E-1	-1.516403913E0
6.232383920E-1	5.826996565E-1	5.523396134E-1	-1.445031285E0
6.244848070E-1	5.885586143E-1	5.550028086E-1	-1.366734266E0
6.272963150E-1	5.890912414E-1	5.448827744E-1	-1.282045722E0
6.291167300E-1	5.901564956E-1	5.257080197E-1	-1.196292043E0
6.313469690E-1	5.901564956E-1	4.969458580E-1	-1.107874990E0
6.325654990E-1	5.928196907E-1	4.644553065E-1	-1.017860174E0
6.354050850E-1	5.938849449E-1	4.293015897E-1	-9.315737486E-1
6.370689220E-1	5.922870636E-1	3.739078343E-1	-8.048073053E-1
6.394351610E-1	5.922870636E-1	3.563309610E-1	-7.659251690E-1
6.409054610E-1	5.880259871E-1	3.153182864E-1	-6.881608367E-1
6.434932770E-1	5.795038939E-1	2.652508616E-1	-6.205165386E-1
6.453312300E-1	5.470132828E-1	1.555286050E-1	-5.219795704E-1
6.475608540E-1	5.326322317E-1	1.097222418E-1	-4.932174385E-1
6.491216530E-1	4.958806038E-1	6.391586736E-3	-4.335626364E-1
6.516190460E-1	4.463458061E-1	-1.102548689E-1	-3.781688809E-1
6.539244990E-1	3.557983339E-1	-2.753708661E-1	-3.030677438E-1
6.556714310E-1	3.217098713E-1	-3.233077526E-1	-2.806971967E-1
6.570898070E-1	2.524676621E-1	-4.032025933E-1	-2.514024079E-1
6.597290460E-1	1.800296903E-1	-4.490089715E-1	-2.359560728E-1
6.614289220E-1	8.948221803E-2	-4.426173866E-1	-2.396845073E-1
6.637636610E-1	5.379585549E-2	-3.968110085E-1	-2.503371537E-1
6.650351530E-1	2.876213938E-2	-3.526025414E-1	-2.588592768E-1
6.678216230E-1	7.456851192E-3	-3.211772442E-1	-2.668487430E-1
6.695723450E-1	-1.864212751E-2	-3.046656251E-1	-2.849582434E-1
6.718582770E-1	-4.740426689E-2	-2.966761589E-1	-3.089267015E-1
6.731594990E-1	-8.096009493E-2	-2.806971967E-1	-3.430151641E-1
6.759162000E-1	-1.145159304E-1	-2.519350350E-1	-3.941478431E-1
6.775577690E-1	-1.480717659E-1	-2.077265680E-1	-4.458131790E-1
6.799576610E-1	-1.800296903E-1	-1.475391239E-1	-5.006743073E-1
6.812999610E-1	-2.077265680E-1	-7.510114461E-2	-5.624596477E-1
6.840153920E-1	-2.359560728E-1	7.456851192E-3	-6.237123609E-1
6.857608070E-1	-2.641855776E-1	9.267801046E-2	-6.780408025E-1
6.880566230E-1	-2.849582434E-1	1.699096859E-1	-7.259777188E-1
6.897317300E-1	-3.105245829E-1	2.311623842E-1	-7.659251690E-1
6.921149690E-1	-3.307646215E-1	2.806971967E-1	-8.069378138E-1
6.936291530E-1	-3.504720032E-1	3.174487948E-1	-8.372978568E-1
6.960607690E-1	-3.621899188E-1	3.382214606E-1	-8.633968234E-1
6.976590380E-1	-3.728425503E-1	3.531351686E-1	-8.900284767E-1
7.003343150E-1	-3.744404614E-1	3.605920076E-1	-9.150621891E-1
7.020772300E-1	-3.755057156E-1	3.605920076E-1	-9.251821637E-1
7.043846230E-1	-3.717772961E-1	3.510046303E-1	-9.315737486E-1
7.057370380E-1	-3.621899188E-1	3.398193717E-1	-9.358348250E-1
7.084428150E-1	-3.430151641E-1	3.360909224E-1	-9.257147908E-1
7.103251150E-1	-3.126551211E-1	3.046656251E-1	-9.129316211E-1
7.124795460E-1	-3.025351167E-1	2.849582434E-1	-9.108011127E-1
7.136755760E-1	-2.838929892E-1	2.386192381E-1	-9.001484513E-1
7.165380070E-1	-2.652508616E-1	1.976065636E-1	-8.900284767E-1
7.182107300E-1	-2.359560728E-1	1.581917703E-1	-8.681905270E-1
7.205742380E-1	-2.221076339E-1	1.549959779E-1	-8.602010608E-1
7.218069990E-1	-1.992044598E-1	1.581917703E-1	-8.527442217E-1
7.246318920E-1	-1.757686287E-1	1.736381054E-1	-8.490157723E-1
7.264342690E-1	-1.395496428E-1	2.098570913E-1	-8.490157723E-1
7.287142380E-1	-1.288969964E-1	2.221076339E-1	-8.516789079E-1
7.300610380E-1	-1.097222418E-1	2.460760921E-1	-8.527442217E-1
7.327723150E-1	-8.202536404E-2	2.886866629E-1	-8.602010608E-1
7.341700380E-1	-6.498113275E-2	3.147856593E-1	-8.596684337E-1
7.368981610E-1	-4.687163606E-2	3.456783295E-1	-8.591358066E-1
7.382355380E-1	-3.036003746E-2	3.728425503E-1	-8.591358066E-1
7.409910070E-1	-1.651159860E-2	4.010720551E-1	-8.500810266E-1
7.426100760E-1	-2.663161140E-3	4.293015897E-1	-8.415589333E-1
7.450264690E-1	1.065264456E-2	4.532700181E-1	-8.303736448E-1
7.462226530E-1	2.503371425E-2	4.756405652E-1	-8.165252209E-1
7.490848150E-1	3.621899337E-2	4.910869002E-1	-7.957525253E-1
7.506893070E-1	4.793690145E-2	5.075985193E-1	-7.717841268E-1
7.531365840E-1	6.444849819E-2	5.198490620E-1	-7.371630073E-1
7.543730760E-1	8.042746782E-2	5.336974859E-1	-7.084008455E-1
7.571950460E-1	9.693906456E-2	5.416869521E-1	-6.727145314E-1
7.589318070E-1	1.198422536E-1	5.443501472E-1	-6.412891746E-1
7.612240070E-1	1.454086006E-1	5.443501472E-1	-6.034722924E-1
7.624553450E-1	1.747033745E-1	5.379585624E-1	-5.725796223E-1
7.652816990E-1	2.061286718E-1	5.320996046E-1	-5.395564437E-1
7.670559220E-1	2.380866110E-1	5.187838078E-1	-5.086637735E-1
7.693388920E-1	2.652508616E-1	4.974785149E-1	-4.884237647E-1
7.705898840E-1	2.918824553E-1	4.777711034E-1	-4.788363874E-1
7.733968150E-1	3.163835406E-1	4.644553065E-1	-4.820321798E-1
7.747192680E-1	3.435477912E-1	4.692489803E-1	-4.910869002E-1
7.775336150E-1	3.733751774E-1	4.884237647E-1	-5.070658922E-1
7.788221530E-1	4.058657587E-1	5.171858668E-1	-5.225121975E-1
7.816293530E-1	4.415521026E-1	5.432848930E-1	-5.459480286E-1
7.833175760E-1	4.884237647E-1	5.747101903E-1	-5.842975378E-1
7.856637380E-1	5.049353242E-1	5.805691481E-1	-5.965480804E-1
7.868721150E-1	5.390238166E-1	5.901564956E-1	-6.242449880E-1
7.897220070E-1	5.933523178E-1	5.858954787E-1	-6.604639888E-1
7.913504610E-1	6.338323355E-1	5.720469952E-1	-6.833671331E-1
7.937621990E-1	6.785734296E-1	5.528722405E-1	-7.014766335E-1
7.949940760E-1	7.222493291E-1	5.214469433E-1	-7.142598033E-1
7.978202760E-1	7.733820081E-1	4.862932265E-1	-7.275756001E-1
7.996935760E-1	8.250473142E-1	4.420847595E-1	-7.430219650E-1
8.018698530E-1	8.777779341E-1	3.909520507E-1	-7.542072535E-1
8.030623070E-1	9.342369437E-1	3.344930410E-1	-7.733820081E-1
8.059271990E-1	9.928264618E-1	2.695119083E-1	-7.882956862E-1
8.078541920E-1	1.050350785E0	2.034655064E-1	-8.117315173E-1
8.099680840E-1	1.115331888E0	1.395496428E-1	-8.314388990E-1
8.111762680E-1	1.182976127E0	7.829693705E-2	-8.570052385E-1
8.140260840E-1	1.251153111E0	1.384843793E-2	-8.841695189E-1
8.153260760E-1	1.320395350E0	-5.326322466E-2	-9.033442736E-1
8.181505840E-1	1.394431114E0	-1.166464612E-1	-9.326390028E-1
8.194337680E-1	1.467934370E0	-1.725728363E-1	-9.640643597E-1
8.222433530E-1	1.544100881E0	-2.269013226E-1	-9.928264618E-1
8.238759610E-1	1.620267272E0	-2.790992856E-1	-1.022121191E0
8.262947760E-1	1.695901036E0	-3.360909224E-1	-1.050350785E0
8.276560380E-1	1.771002173E0	-3.877562582E-1	-1.078580260E0
8.303527380E-1	1.835983276E0	-4.383563101E-1	-1.107874990E0
8.319538070E-1	1.894040227E0	-4.820321798E-1	-1.138235092E0
8.343904680E-1	1.940911889E0	-5.235774517E-1	-1.168062449E0
8.356961150E-1	1.976598144E0	-5.608617067E-1	-1.188302517E0
8.384488910E-1	1.999501348E0	-5.912217498E-1	-1.205346704E0
8.400529990E-1	2.016545534E0	-6.332997084E-1	-1.218662500E0
8.425056220E-1	2.016012907E0	-6.487460732E-1	-1.220793009E0
8.437004610E-1	2.012284517E0	-6.775081754E-1	-1.222923636E0
8.465635450E-1	2.003229856E0	-7.137271762E-1	-1.215466738E0
8.482441530E-1	1.986718178E0	-7.707188129E-1	-1.218129873E0
8.506443530E-1	1.979794025E0	-7.920241356E-1	-1.215999365E0
8.518768840E-1	1.965412974E0	-8.362326026E-1	-1.219195127E0
8.547021220E-1	1.952629805E0	-8.836368918E-1	-1.228782535E0
8.561049610E-1	1.931324482E0	-9.566074610E-1	-1.246359468E0
8.585353450E-1	1.922269702E0	-1.004011750E0	-1.257544637E0
8.600661910E-1	1.914280176E0	-1.055144429E0	-1.266066790E0
8.629208140E-1	1.899899125E0	-1.114266634E0	-1.277784705E0
8.645613840E-1	1.883387566E0	-1.176051974E0	-1.290035248E0
8.669559300E-1	1.863680124E0	-1.228782535E0	-1.304416299E0
8.681537680E-1	1.842907548E0	-1.271393180E0	-1.312938452E0
8.710135450E-1	1.822134852E0	-1.306546807E0	-1.319862604E0
8.726065760E-1	1.798166394E0	-1.331580520E0	-1.324656367E0
8.750640840E-1	1.773132682E0	-1.349690080E0	-1.326254249E0
8.762576910E-1	1.745435834E0	-1.360342741E0	-1.326254249E0
8.791214300E-1	1.717738986E0	-1.368864775E0	-1.321460605E0
8.808448450E-1	1.690574646E0	-1.372593284E0	-1.313471079E0
8.831539300E-1	1.655953646E0	-1.378452182E0	-1.299622655E0
8.843724610E-1	1.619734645E0	-1.380050063E0	-1.281513095E0
8.872104300E-1	1.584048271E0	-1.381115317E0	-1.258077264E0
8.889946150E-1	1.549427152E0	-1.372060657E0	-1.236772060E0
8.912756990E-1	1.513740778E0	-1.360342741E0	-1.213336229E0
8.924901910E-1	1.478054404E0	-1.338504791E0	-1.191498280E0
8.953331600E-1	1.448227048E0	-1.311873198E0	-1.174986720E0
8.970001910E-1	1.419464946E0	-1.285774231E0	-1.157942414E0
8.994641150E-1	1.395496488E0	-1.257544637E0	-1.149420381E0
9.008070760E-1	1.376321673E0	-1.226119399E0	-1.145159245E0
9.035656990E-1	1.360342741E0	-1.195759296E0	-1.146757245E0
9.052373450E-1	1.344363689E0	-1.151550889E0	-1.163801432E0
9.075997760E-1	1.343298435E0	-1.138767719E0	-1.170192957E0
9.088759220E-1	1.341700554E0	-1.118527651E0	-1.188302517E0
9.116570450E-1	1.345429063E0	-1.098287702E0	-1.209607840E0
9.132721530E-1	1.360875368E0	-1.088167667E0	-1.237304688E0
9.156928140E-1	1.366201639E0	-1.087102413E0	-1.246359468E0
9.169272680E-1	1.385376453E0	-1.094026566E0	-1.261805773E0
9.197499680E-1	1.414671183E0	-1.130245566E0	-1.275654197E0
9.213861910E-1	1.430117488E0	-1.162736177E0	-1.288437366E0
9.237929680E-1	1.449292302E0	-1.200553060E0	-1.301220536E0
9.249915380E-1	1.462608099E0	-1.235706806E0	-1.313471079E0
9.278503910E-1	1.479119658E0	-1.264468908E0	-1.316666842E0
9.295437680E-1	1.483913422E0	-1.285774231E0	-1.317199469E0
9.318926600E-1	1.485511303E0	-1.301220536E0	-1.313471079E0
9.330918840E-1	1.485511303E0	-1.307079434E0	-1.311873198E0
9.359508140E-1	1.482315540E0	-1.312938452E0	-1.304416299E0
9.374366150E-1	1.482848167E0	-1.329982638E0	-1.295361519E0
9.399840760E-1	1.486043930E0	-1.348624825E0	-1.285774231E0
9.414818070E-1	1.489772320E0	-1.365136385E0	-1.270860553E0
9.441684680E-1	1.495098710E0	-1.389637470E0	-1.253816247E0
9.458579990E-1	1.511610270E0	-1.417866945E0	-1.233576298E0
9.482177760E-1	1.531850338E0	-1.453020692E0	-1.213336229E0
9.494434610E-1	1.556351423E0	-1.486576557E0	-1.194694042E0
9.522750450E-1	1.589907169E0	-1.527056575E0	-1.175519347E0
9.538745380E-1	1.627191424E0	-1.573395610E0	-1.161670923E0
9.563106990E-1	1.668204188E0	-1.624528289E0	-1.147289872E0
9.575262680E-1	1.711879969E0	-1.679922104E0	-1.135571957E0
9.603680830E-1	1.758751631E0	-1.737446308E0	-1.126517177E0
9.620553070E-1	1.806155920E0	-1.796035886E0	-1.115331888E0
9.644231600E-1	1.851962209E0	-1.854625463E0	-1.113201380E0
9.656343070E-1	1.902029634E0	-1.915878177E0	-1.112668753E0
9.684801600E-1	1.948901296E0	-1.975000262E0	-1.110538244E0
9.701916530E-1	2.014947653E0	-2.060221434E0	-1.113201380E0
9.725615060E-1	2.035187721E0	-2.086853027E0	-1.113201380E0
9.737616910E-1	2.073004723E0	-2.136920452E0	-1.116397142E0
9.766183140E-1	2.109756231E0	-2.186987877E0	-1.120125532E0
9.784085760E-1	2.144377232E0	-2.234392166E0	-1.123854041E0
9.807431990E-1	2.190183640E0	-2.298308134E0	-1.132908702E0
9.820051530E-1	2.221076488E0	-2.338255405E0	-1.138767719E0
9.848356990E-1	2.249305964E0	-2.370213509E0	-1.149420381E0
9.867108070E-1	2.277535439E0	-2.396845102E0	-1.157942414E0
9.888713140E-1	2.307895422E0	-2.421346188E0	-1.161138296E0
9.900816530E-1	2.333994389E0	-2.448510408E0	-1.164866686E0
9.929296990E-1	2.356364965E0	-2.484196663E0	-1.163801432E0
9.945189220E-1	2.377670288E0	-2.524144173E0	-1.154214025E0
9.969833910E-1	2.396845102E0	-2.589657784E0	-1.151550889E0
9.981589220E-1	2.408562899E0	-2.674879074E0	-1.164866686E0
1.001040775E0	2.422944069E0	-2.747849703E0	-1.165931940E0
1.002669345E0	2.435194492E0	-2.818157196E0	-1.168595076E0
1.005096045E0	2.443716764E0	-2.882605553E0	-1.171258211E0
1.006336461E0	2.447977781E0	-2.939064741E0	-1.170192957E0
1.009153698E0	2.456499815E0	-2.984870911E0	-1.166997194E0
1.010841345E0	2.451706171E0	-3.022155285E0	-1.170192957E0
1.013230506E0	2.442118883E0	-3.045591116E0	-1.172856212E0
1.014455999E0	2.425607204E0	-3.063168049E0	-1.173921466E0
1.017287545E0	2.398442984E0	-3.065831184E0	-1.170725584E0
1.019253999E0	2.349440813E0	-3.055178404E0	-1.163268805E0
1.021101576E0	2.325472355E0	-3.043460608E0	-1.161670923E0
1.022561884E0	2.271143913E0	-3.007241488E0	-1.152083516E0
1.025395121E0	2.199771166E0	-2.950249910E0	-1.144093990E0
1.027065499E0	2.119343519E0	-2.885268688E0	-1.135571957E0
1.029429275E0	2.031991959E0	-2.799515009E0	-1.130245566E0
1.030645807E0	1.941444516E0	-2.691923380E0	-1.117462397E0
1.033485929E0	1.845038056E0	-2.564624071E0	-1.101483464E0
1.035094384E0	1.693237901E0	-2.362756491E0	-1.081776023E0
1.037523083E0	1.642637849E0	-2.292448997E0	-1.072188616E0
1.038865999E0	1.546231389E0	-2.149703741E0	-1.059405446E0
1.041579852E0	1.455151200E0	-2.023469925E0	-1.050350785E0
1.043233230E0	1.335309029E0	-1.867408633E0	-1.039165497E0
1.045623775E0	1.299622655E0	-1.821602225E0	-1.035969734E0
1.046857114E0	1.236772060E0	-1.737978935E0	-1.032241225E0
1.049680968E0	1.196824670E0	-1.690574646E0	-1.026382327E0
1.051473191E0	1.151018262E0	-1.657018900E0	-1.031175971E0
1.053721737E0	1.133441329E0	-1.649562001E0	-1.035437107E0
1.054927614E0	1.108940244E0	-1.647964120E0	-1.036502361E0
1.057778929E0	1.090830803E0	-1.654888391E0	-1.037034988E0
1.059095538E0	1.073253989E0	-1.669269443E0	-1.037034988E0
1.061904083E0	1.061536074E0	-1.687378883E0	-1.043959141E0
1.063172230E0	1.060470819E0	-1.723597884E0	-1.054079175E0
1.065996121E0	1.069525480E0	-1.785915852E0	-1.064199209E0
1.067663961E0	1.082841277E0	-1.860484362E0	-1.063666582E0
1.070045121E0	1.097755075E0	-1.933454990E0	-1.058340192E0
1.071242191E0	1.107874990E0	-2.011219263E0	-1.046089649E0
1.074102929E0	1.113201380E0	-2.083124638E0	-1.033306479E0
1.075704884E0	1.117462397E0	-2.162486792E0	-1.030643344E0
1.078140391E0	1.128115058E0	-2.250903845E0	-1.020523310E0
1.079330230E0	1.138767719E0	-2.339320660E0	-1.008805394E0
1.082199237E0	1.156344533E0	-2.426672459E0	-9.949570298E-1
1.083853730E0	1.166997194E0	-2.504436731E0	-9.800432920E-1
1.086227737E0	1.180845618E0	-2.567820072E0	-9.688580036E-1
1.087421191E0	1.191498280E0	-2.614158869E0	-9.486179948E-1
1.090286198E0	1.205346704E0	-2.640257835E0	-9.193232059E-1
1.091992807E0	1.227184653E0	-2.650910616E0	-8.591358066E-1
1.094369660E0	1.228782535E0	-2.657834768E0	-8.367652297E-1
1.095665422E0	1.230380416E0	-2.672215939E0	-7.914915085E-1
1.098427929E0	1.228782535E0	-2.691390753E0	-7.483482957E-1
1.099737691E0	1.230913043E0	-2.712695837E0	-7.121292949E-1
1.102320961E0	1.230913043E0	-2.738794804E0	-6.823018789E-1
1.103825461E0	1.234641552E0	-2.763295889E0	-6.514092088E-1
1.106646813E0	1.238369942E0	-2.789927721E0	-6.263754964E-1
1.108332614E0	1.242630959E0	-2.829874992E0	-6.008091569E-1
1.110681660E0	1.244761467E0	-2.840527773E0	-5.912217498E-1
1.111890422E0	1.249022603E0	-2.859169722E0	-5.858954787E-1
1.114739775E0	1.253816247E0	-2.884736061E0	-5.779059529E-1
1.116344999E0	1.250620484E0	-2.890595198E0	-5.731122494E-1
1.118793467E0	1.242098331E0	-2.880475044E0	-5.699164867E-1
1.120013230E0	1.225586772E0	-2.854376078E0	-5.736449361E-1
1.122851660E0	1.208009839E0	-2.822418213E0	-5.667206645E-1
1.124442768E0	1.180312991E0	-2.774481297E0	-5.491438508E-1
1.126883236E0	1.149953008E0	-2.706304312E0	-5.214469433E-1
1.128110461E0	1.106809735E0	-2.608299971E0	-4.910869002E-1
1.130940929E0	1.062068701E0	-2.499110460E0	-4.596616030E-1
1.132594537E0	1.016794920E0	-2.391518593E0	-4.298342168E-1
1.135009006E0	9.539443254E-1	-2.294579744E0	-3.904194236E-1
1.136199614E0	8.767126203E-1	-2.193912029E0	-3.531351686E-1
1.139067429E0	7.845672965E-1	-2.094309807E0	-3.147856593E-1
1.140371730E0	6.902913451E-1	-2.013882399E0	-2.785666585E-1
1.143208967E0	5.922870636E-1	-1.949433923E0	-2.444781959E-1
1.144431384E0	4.958806038E-1	-1.897235990E0	-2.125202566E-1
1.147302236E0	4.000068009E-1	-1.864212751E0	-1.938781291E-1
1.148860691E0	3.041329980E-1	-1.867941260E0	-1.949433982E-1
1.151336006E0	2.066612989E-1	-1.903627634E0	-1.997370869E-1
1.152507230E0	1.209075153E-1	-1.933987617E0	-1.965412945E-1
1.155393775E0	4.953479767E-2	-1.948901296E0	-2.002697140E-1
1.156970961E0	-4.527373984E-2	-1.980859280E0	-2.141181529E-1
1.159430929E0	-7.776430249E-2	-2.001099348E0	-2.162486911E-1
1.160600537E0	-1.411475390E-1	-2.060221434E0	-2.167813182E-1
1.163489006E0	-2.130528986E-1	-2.134257317E0	-2.231729031E-1
1.165100884E0	-3.243730366E-1	-2.274339676E0	-2.279665917E-1
1.167523929E0	-3.616572917E-1	-2.326004982E0	-2.274339646E-1
1.168681461E0	-4.319647253E-1	-2.426139832E0	-2.354234457E-1
1.171582236E0	-4.974785149E-1	-2.517752647E0	-2.402171344E-1
1.173258384E0	-5.709817410E-1	-2.629072666E0	-2.641855776E-1
1.175638390E0	-5.880259871E-1	-2.660497904E0	-2.743056118E-1
1.176815384E0	-6.194512844E-1	-2.700978041E0	-2.924150825E-1
1.179696698E0	-6.530070901E-1	-2.696717024E0	-3.158509135E-1
1.181107961E0	-6.721818447E-1	-2.661563158E0	-3.243730366E-1
1.183514345E0	-6.828345060E-1	-2.614158869E0	-3.291667104E-1
1.185161653E0	-6.854977012E-1	-2.568885326E0	-3.344930410E-1
1.187915967E0	-6.801713705E-1	-2.524144173E0	-3.392867148E-1
1.189588037E0	-6.727145314E-1	-2.473544121E0	-3.456783295E-1
1.191966198E0	-6.588660479E-1	-2.424541950E0	-3.595267534E-1
1.193190191E0	-6.466155052E-1	-2.379268169E0	-3.824299276E-1
1.196023467E0	-6.301039457E-1	-2.341451168E0	-4.058657587E-1
1.197728768E0	-6.157228351E-1	-2.314819574E0	-4.420847595E-1
1.200060082E0	-6.013417840E-1	-2.296177626E0	-4.820321798E-1
1.201292807E0	-5.832322836E-1	-2.272209167E0	-5.315669775E-1
1.204118275E0	-5.704491138E-1	-2.239185810E0	-5.869607329E-1
1.205726230E0	-5.555354357E-1	-2.204032183E0	-6.476807594E-1
1.208159428E0	-5.374259353E-1	-2.172074318E0	-7.142598033E-1
1.209354999E0	-5.177185535E-1	-2.145975351E0	-7.829693556E-1
1.212217544E0	-4.964132309E-1	-2.123604774E0	-8.420915604E-1
1.213985845E0	-4.767058492E-1	-2.127865791E0	-9.017463326E-1
1.216300082E0	-4.665858448E-1	-2.148105860E0	-9.608685374E-1
1.217545884E0	-4.522047639E-1	-2.158758402E0	-1.015729666E0
1.220358159E0	-4.335626364E-1	-2.152899504E0	-1.063666582E0
1.221880999E0	-4.149205089E-1	-2.125202656E0	-1.103613973E0
1.224483621E0	-3.973436356E-1	-2.078863621E0	-1.141430855E0
1.225783730E0	-3.733751774E-1	-2.034655094E0	-1.158475041E0
1.228576775E0	-3.499393761E-1	-1.998436093E0	-1.180845618E0
1.230192845E0	-3.126551211E-1	-1.968076110E0	-1.212803602E0
1.232611313E0	-3.004045784E-1	-1.960086584E0	-1.226119399E0
1.233823614E0	-2.817624509E-1	-1.961684465E0	-1.246359468E0
1.236669428E0	-2.577939928E-1	-1.973935008E0	-1.263403654E0
1.238262807E0	-2.199771106E-1	-2.017610788E0	-1.294296265E0
1.240724198E0	-1.960086524E-1	-2.055427790E0	-1.312405825E0
1.241939999E0	-1.725728363E-1	-2.087385654E0	-1.332645893E0
1.244781851E0	-1.486043930E-1	-2.116147757E0	-1.347559571E0
1.246403537E0	-1.209075153E-1	-2.146507978E0	-1.363538504E0
1.248810313E0	-8.468852192E-2	-2.184857368E0	-1.390170097E0
1.250019730E0	-4.740426689E-2	-2.218945980E0	-1.419997573E0
1.252868121E0	-2.450108156E-2	-2.209891081E0	-1.434911251E0
1.254683537E0	-1.118527725E-2	-2.166215181E0	-1.433845997E0
1.256912736E0	-8.522115648E-3	-2.114017248E0	-1.421595454E0
1.258163153E0	-3.195793368E-3	-2.077265739E0	-1.396561742E0
1.260970813E0	1.065264456E-3	-2.061286688E0	-1.377919555E0
1.262327614E0	3.195793368E-3	-2.063949823E0	-1.360342741E0
1.265111236E0	5.858954508E-3	-2.091646671E0	-1.349157453E0
1.266558076E0	1.225054078E-2	-2.134789944E0	-1.346494317E0
1.269203774E0	1.864212751E-2	-2.192846775E0	-1.350755334E0
1.270943730E0	2.769687586E-2	-2.258360624E0	-1.362473249E0
1.273237967E0	3.834952042E-2	-2.335059643E0	-1.369397402E0
1.274456884E0	4.687163606E-2	-2.412291288E0	-1.366201639E0
1.277296697E0	5.539375171E-2	-2.484729290E0	-1.356614232E0
1.278867922E0	5.592638254E-2	-2.549710512E0	-1.335309029E0
1.281335044E0	5.486112088E-2	-2.606169462E0	-1.309210062E0
1.282592730E0	4.740426689E-2	-2.646649599E0	-1.284176350E0
1.285393120E0	3.568635881E-2	-2.676476955E0	-1.258077264E0
1.286997960E0	9.587380104E-3	-2.694053888E0	-1.215999365E0
1.289431428E0	-2.663161140E-3	-2.691923380E0	-1.200553060E0
1.290645153E0	-3.355583176E-2	-2.679672718E0	-1.173921466E0
1.293490351E0	-6.178534031E-2	-2.667954922E0	-1.140365601E0
1.295266845E0	-9.640643001E-2	-2.651975870E0	-1.100950837E0
1.297533659E0	-1.033306494E-1	-2.649312735E0	-1.091363430E0
1.298809883E0	-1.129180342E-1	-2.643986464E0	-1.078580260E0
1.301591774E0	-1.065264493E-1	-2.624279022E0	-1.067394972E0
1.302937230E0	-9.267801046E-2	-2.571015835E0	-1.056209683E0
1.305719774E0	-6.444849819E-2	-2.462358713E0	-1.022121191E0
1.307024537E0	-4.527373984E-2	-2.408562899E0	-9.949570298E-1
1.309812890E0	-3.675162420E-2	-2.383529186E0	-9.645969868E-1
1.311631576E0	-3.089267015E-2	-2.381931305E0	-9.438242912E-1
1.313862620E0	-3.036003746E-2	-2.400573492E0	-9.283779860E-1
1.315165960E0	-3.142530099E-2	-2.442118883E0	-9.060074091E-1
1.317920928E0	-2.716424316E-2	-2.478337765E0	-8.873652816E-1
1.319667730E0	-3.089267015E-2	-2.493784189E0	-8.649947643E-1
1.321959236E0	-3.089267015E-2	-2.495914698E0	-8.431568146E-1
1.323186768E0	-2.663161233E-2	-2.491653681E0	-8.175904751E-1
1.326017851E0	-1.864212751E-2	-2.489522934E0	-7.936220169E-1
1.327739537E0	-1.012001187E-2	-2.496979952E0	-7.685883045E-1
1.330080274E0	-4.261057824E-3	-2.513491392E0	-7.472830415E-1
1.331314691E0	4.793690052E-3	-2.533198833E0	-7.265103459E-1
1.334138928E0	1.225054078E-2	-2.546514750E0	-7.094660997E-1
1.335891076E0	1.864212751E-2	-2.555569410E0	-6.913566589E-1
1.338220274E0	2.024002373E-2	-2.560895681E0	-6.721818447E-1
1.339648037E0	1.970739290E-2	-2.572613716E0	-6.524744630E-1
1.342278313E0	1.704423130E-2	-2.587527275E0	-6.327670813E-1
1.343730768E0	1.012001187E-2	-2.612560987E0	-6.098638773E-1
1.346179691E0	2.130528912E-3	-2.640257835E0	-5.848301649E-1
1.348103691E0	-4.793690052E-3	-2.673281193E0	-5.576659441E-1
1.350496351E0	-7.989482954E-3	-2.707369566E0	-5.336974859E-1
1.352163960E0	-1.864212751E-2	-2.768622398E0	-4.841626883E-1
1.354531620E0	-2.183792181E-2	-2.793656111E0	-4.697816372E-1
1.355750537E0	-3.888215125E-2	-2.852778196E0	-4.410194755E-1
1.358589889E0	-5.219795927E-2	-2.917226791E0	-4.154531360E-1
1.360224114E0	-8.096009493E-2	-3.019492149E0	-3.792341352E-1
1.362642659E0	-9.161274135E-2	-3.054645777E0	-3.659183383E-1
1.363874883E0	-1.139832959E-1	-3.113235474E0	-3.344930410E-1
1.366700543E0	-1.523328125E-1	-3.173955441E0	-2.727077007E-1
1.368402922E0	-1.731054783E-1	-3.201119661E0	-2.226402760E-1
1.370762543E0	-1.949433982E-1	-3.221892357E0	-1.715075821E-1
1.371968191E0	-2.093244642E-1	-3.237871408E0	-1.161138266E-1
1.374820312E0	-2.205097377E-1	-3.252252340E0	-6.125270575E-2
1.376811076E0	-2.343581766E-1	-3.269829273E0	-7.456851192E-3
1.378887043E0	-2.423476577E-1	-3.283144951E0	4.740426689E-2
1.380128383E0	-2.540655732E-1	-3.296993494E0	1.006674916E-1
1.382945274E0	-2.652508616E-1	-3.308711290E0	1.544633508E-1
1.384290576E0	-2.743056118E-1	-3.325755596E0	2.098570913E-1
1.387087082E0	-2.838929892E-1	-3.343865156E0	2.615224123E-1
1.388498153E0	-2.966761589E-1	-3.355050325E0	3.094593287E-1
1.391180620E0	-3.073287904E-1	-3.367300987E0	3.573962152E-1
1.392878807E0	-3.185140789E-1	-3.375290394E0	4.042678475E-1
1.395216235E0	-3.286340833E-1	-3.372627258E0	4.436826408E-1
1.396429845E0	-3.392867148E-1	-3.366235733E0	4.846953154E-1
1.399274582E0	-3.446130455E-1	-3.350789309E0	5.182511806E-1
1.400940922E0	-3.472762108E-1	-3.328951359E0	5.480785370E-1
1.403312620E0	-3.483414650E-1	-3.297526121E0	5.731122494E-1
1.404549730E0	-3.451456726E-1	-3.262905121E0	5.954828262E-1
1.407370428E0	-3.382214606E-1	-3.234142780E0	6.157228351E-1
1.409013037E0	-3.233077526E-1	-3.182477474E0	6.364955306E-1
1.411419966E0	-3.201119602E-1	-3.165433407E0	6.423544884E-1
1.412650191E0	-3.078614175E-1	-3.134007931E0	6.556702852E-1
1.415478428E0	-2.934803665E-1	-3.097789049E0	6.673882008E-1
1.417235691E0	-2.870887816E-1	-3.011502504E0	6.876282096E-1
1.419519735E0	-2.918824553E-1	-2.972087860E0	6.966829300E-1
1.420945037E0	-3.030677438E-1	-2.898584604E0	7.179882526E-1
1.423577312E0	-3.110572100E-1	-2.832005501E0	7.392935157E-1
1.425004114E0	-3.190467060E-1	-2.787796974E0	7.627293468E-1
1.427455268E0	-3.334277868E-1	-2.744653940E0	7.904262543E-1
1.428944191E0	-3.414172530E-1	-2.724946499E0	8.042746782E-1
1.431796389E0	-3.515372574E-1	-2.715359211E0	8.165252209E-1
1.433421537E0	-3.616572917E-1	-2.707369566E0	8.255799413E-1
1.435847774E0	-3.771036267E-1	-2.696717024E0	8.404936790E-1
1.437142037E0	-3.962783813E-1	-2.681270599E0	8.511462808E-1
1.439906043E0	-4.122573435E-1	-2.670085430E0	8.671252728E-1
1.441501960E0	-4.308994710E-1	-2.657302141E0	8.841695189E-1
1.443943043E0	-4.490089715E-1	-2.652508497E0	8.990831971E-1
1.445612422E0	-4.633900523E-1	-2.643453836E0	9.198558331E-1
1.448001004E0	-4.719121456E-1	-2.637062073E0	9.422264099E-1
1.449656499E0	-4.820321798E-1	-2.631203175E0	9.635316730E-1
1.452042543E0	-4.836300611E-1	-2.626409531E0	9.901633263E-1
1.453347306E0	-4.884237647E-1	-2.629605293E0	1.015729666E0
1.456099851E0	-4.889563918E-1	-2.637062073E0	1.043959141E0
1.457840191E0	-4.910869002E-1	-2.649845362E0	1.072188616E0
1.460181504E0	-4.948153496E-1	-2.665824413E0	1.100418210E0
1.461451922E0	-4.964132309E-1	-2.678074837E0	1.132376075E0
1.464238812E0	-5.022721887E-1	-2.686064243E0	1.166464567E0
1.465535537E0	-5.091964006E-1	-2.687662125E0	1.205346704E0
1.468364197E0	-5.182511806E-1	-2.682868481E0	1.239435196E0
1.469763614E0	-5.246427655E-1	-2.674346447E0	1.277784705E0
1.472456543E0	-5.336974859E-1	-2.665291786E0	1.313471079E0
1.474248191E0	-5.518069863E-1	-2.666357040E0	1.366201639E0
1.476490927E0	-5.608617067E-1	-2.668487549E0	1.381115317E0
1.477833037E0	-5.747101903E-1	-2.678074837E0	1.407214403E0
1.480548889E0	-5.917543769E-1	-2.684998989E0	1.434378624E0
1.482205422E0	-6.167881489E-1	-2.688727379E0	1.460477591E0
1.484600120E0	-6.263754964E-1	-2.688194752E0	1.468999743E0
1.485776653E0	-6.487460732E-1	-2.684466362E0	1.482315540E0
1.488657504E0	-6.812366247E-1	-2.672215939E0	1.494033456E0
1.490345076E0	-7.030745149E-1	-2.659965277E0	1.498294473E0
1.492694697E0	-7.222493291E-1	-2.639725208E0	1.500424981E0
1.493897153E0	-7.403587699E-1	-2.618420124E0	1.495098710E0
1.496753043E0	-7.563377619E-1	-2.591255903E0	1.489772320E0
1.498457768E0	-7.723167539E-1	-2.563026190E0	1.484446049E0
1.500830004E0	-7.808388472E-1	-2.532133579E0	1.472195506E0
1.502068422E0	-7.877630591E-1	-2.499643087E0	1.466336489E0
1.504888081E0	-7.904262543E-1	-2.468217850E0	1.454618573E0
1.506704883E0	-7.925567627E-1	-2.436259747E0	1.443433285E0
1.508993345E0	-7.898935676E-1	-2.407497644E0	1.429052234E0
1.510360229E0	-7.824367285E-1	-2.379800797E0	1.413073301E0
1.513120850E0	-7.733820081E-1	-2.352636576E0	1.396561742E0
1.514707460E0	-7.611314654E-1	-2.331863880E0	1.382713318E0
1.517154927E0	-7.499461770E-1	-2.306830168E0	1.364071131E0
1.518393729E0	-7.360977530E-1	-2.282861710E0	1.352353215E0
1.521213427E0	-7.233145833E-1	-2.253566980E0	1.339037418E0
1.522872306E0	-7.078682184E-1	-2.221609116E0	1.322525859E0
1.525250081E0	-6.956176758E-1	-2.186987877E0	1.308677435E0
1.526478114E0	-6.780408025E-1	-2.147040606E0	1.292698383E0
1.529308389E0	-6.609966159E-1	-2.107093096E0	1.273523688E0
1.531060037E0	-6.322344542E-1	-2.047438383E0	1.246359468E0
1.533356543E0	-6.205165386E-1	-2.028263569E0	1.239435196E0
1.534711460E0	-5.933523178E-1	-1.995772958E0	1.217064619E0
1.537415389E0	-5.683186054E-1	-1.966478229E0	1.196824670E0
1.539154576E0	-5.225121975E-1	-1.918541312E0	1.162736177E0
1.541457158E0	-5.033374429E-1	-1.900964379E0	1.153681397E0
1.542652076E0	-4.713795185E-1	-1.868473887E0	1.131843448E0
1.545516427E0	-4.420847595E-1	-1.837581158E0	1.111603498E0
1.546960229E0	-4.021373391E-1	-1.807221174E0	1.093493938E0
1.549643196E0	-3.568635881E-1	-1.759284258E0	1.062601328E0
1.551201037E0	-3.270362020E-1	-1.728924155E0	1.046089649E0
1.553736312E0	-2.988066673E-1	-1.698564172E0	1.026914954E0
1.555358422E0	-2.689792812E-1	-1.666606188E0	1.006142259E0
1.557786081E0	-2.428802997E-1	-1.640507221E0	9.864348769E-1
1.559105999E0	-2.157160491E-1	-1.611745119E0	9.709885716E-1
1.561844504E0	-1.917476058E-1	-1.584580898E0	9.523464441E-1
1.563534345E0	-1.677791476E-1	-1.556884050E0	9.358348250E-1
1.565880389E0	-1.464738697E-1	-1.527056575E0	9.235842824E-1
1.567141537E0	-1.257012039E-1	-1.503620744E0	9.113337398E-1
1.569938350E0	-1.081243455E-1	-1.476989150E0	8.990831971E-1
1.571688114E0	-8.894958347E-2	-1.447161794E0	8.878979087E-1
1.573993619E0	-7.297061384E-2	-1.409877539E0	8.777779341E-1
1.575289653E0	-5.858954415E-2	-1.371528029E0	8.681905270E-1
1.578051619E0	-4.420847446E-2	-1.336374283E0	8.570052385E-1
1.579884768E0	-2.876213938E-2	-1.301753163E0	8.442220688E-1
1.582115004E0	-1.704423130E-2	-1.274588943E0	8.309062719E-1
1.583328806E0	-4.261057824E-3	-1.244761467E0	8.175904751E-1
1.586173235E0	5.326322280E-3	-1.215466738E0	8.042746782E-1
1.587499614E0	1.864212751E-2	-1.186704636E0	7.957525253E-1
1.590090268E0	2.716424316E-2	-1.156877160E0	7.840346098E-1
1.591775268E0	3.621899337E-2	-1.125984550E0	7.829693556E-1
1.594391850E0	4.900216311E-2	-1.100418210E0	7.792409658E-1
1.596071076E0	6.338323653E-2	-1.060470819E0	7.845672965E-1
1.598427889E0	6.870955974E-2	-1.048220277E0	7.850999236E-1
1.599801691E0	8.202536404E-2	-1.024784446E0	7.898935676E-1
1.602486504E0	9.480853379E-2	-1.004544377E0	7.973504663E-1
1.604263345E0	1.155811921E-1	-9.752495885E-1	8.106662631E-1
1.606538812E0	1.219727769E-1	-9.656622410E-1	8.154599667E-1
1.607770999E0	1.400822699E-1	-9.491506219E-1	8.223841786E-1
1.610598081E0	1.608549356E-1	-9.337043166E-1	8.314388990E-1
1.612277191E0	1.933455020E-1	-9.129316211E-1	8.463526368E-1
1.614656004E0	2.205097377E-1	-8.980179429E-1	8.575378656E-1
1.615915345E0	2.439455539E-1	-8.783105612E-1	8.671252728E-1
1.618714658E0	2.764361203E-1	-8.554073572E-1	8.724516034E-1
1.620623152E0	3.083940744E-1	-8.213189244E-1	8.767126203E-1
1.622783004E0	3.403519988E-1	-7.840346098E-1	8.809736967E-1
1.623957306E0	3.755057156E-1	-7.456851006E-1	8.836368918E-1
1.626842004E0	4.149205089E-1	-7.068029642E-1	8.884305358E-1
1.628198460E0	4.554005563E-1	-6.705839634E-1	8.926916122E-1
1.630983888E0	4.969458580E-1	-6.370281577E-1	9.001484513E-1
1.632301883E0	5.368933082E-1	-6.008091569E-1	9.086706042E-1
1.635077042E0	5.773733258E-1	-5.731122494E-1	9.203884602E-1
1.636635422E0	6.125270724E-1	-5.358279943E-1	9.310411215E-1
1.639113311E0	6.460828781E-1	-5.038700700E-1	9.459548593E-1
1.640277076E0	6.748450398E-1	-4.751079381E-1	9.619337916E-1
1.643171311E0	7.030745149E-1	-4.452805519E-1	9.789780378E-1
1.644918460E0	7.329019308E-1	-4.175836742E-1	9.954896569E-1
1.647208465E0	7.616640925E-1	-3.936152160E-1	1.016794920E0
1.648412922E0	7.920241356E-1	-3.755057156E-1	1.041296005E0
1.651266273E0	8.149272799E-1	-3.515372574E-1	1.068992853E0
1.652878691E0	8.383631110E-1	-3.376888335E-1	1.098820329E0
1.655318888E0	8.607336879E-1	-3.195793331E-1	1.131310821E0
1.656590383E0	8.761799932E-1	-3.073287904E-1	1.165399313E0
1.659376465E0	8.878979087E-1	-2.897519469E-1	1.198955178E0
1.661039614E0	8.990831971E-1	-2.684466541E-1	1.257012010E0
1.663418004E0	8.980179429E-1	-2.615224123E-1	1.274588943E0
1.664612729E0	8.980179429E-1	-2.439455539E-1	1.310275316E0
1.667475965E0	8.910937309E-1	-2.284992188E-1	1.349690080E0
1.668982191E0	8.836368918E-1	-2.162486911E-1	1.390170097E0
1.671436037E0	8.729842305E-1	-2.066612989E-1	1.428519607E0
1.673023806E0	8.575378656E-1	-2.013349831E-1	1.467401743E0
1.675695696E0	8.346347213E-1	-2.024002522E-1	1.527589202E0
1.677309806E0	8.191883564E-1	-2.055960447E-1	1.568069220E0
1.679745696E0	8.000136018E-1	-2.135855258E-1	1.614940882E0
1.681148422E0	7.776430249E-1	-2.205097377E-1	1.659682035E0
1.683803696E0	7.515440583E-1	-2.231729031E-1	1.706553698E0
1.685358806E0	7.270429730E-1	-2.205097377E-1	1.755023241E0
1.687840850E0	6.945524216E-1	-2.167813182E-1	1.806155920E0
1.689047806E0	6.711165905E-1	-2.114549875E-1	1.855690718E0
1.691898811E0	6.407565475E-1	-2.135855258E-1	1.904692888E0
1.693625614E0	6.125270724E-1	-2.162486911E-1	1.960619211E0
1.695943427E0	5.848301649E-1	-2.210423797E-1	2.018143415E0
1.697183537E0	5.571333170E-1	-2.300971150E-1	2.070874214E0
1.700001427E0	5.283711553E-1	-2.455434501E-1	2.123604774E0
1.701723576E0	5.054680109E-1	-2.604571581E-1	2.178465843E0
1.704083119E0	4.846953154E-1	-2.700445354E-1	2.228533268E0
1.705296576E0	4.703142643E-1	-2.727077007E-1	2.279133320E0
1.708141503E0	4.554005563E-1	-2.732403278E-1	2.328668118E0
1.709528614E0	4.458131790E-1	-2.711097896E-1	2.378202915E0
1.712258960E0	4.367584288E-1	-2.588592768E-1	2.427737713E0
1.713539422E0	4.250405133E-1	-2.460760921E-1	2.477805138E0
1.716362234E0	4.181163013E-1	-2.300971150E-1	2.523611546E0
1.718094422E0	4.095941782E-1	-2.135855258E-1	2.588059902E0
1.720396657E0	4.069310129E-1	-2.103897333E-1	2.608299971E0
1.721619460E0	4.053331316E-1	-2.055960447E-1	2.651975870E0
1.724454503E0	4.010720551E-1	-2.055960447E-1	2.689792633E0
1.726766999E0	4.058657587E-1	-2.162486911E-1	2.756371737E0
1.728490388E0	4.074636400E-1	-2.221076339E-1	2.777677059E0
1.729704191E0	4.095941782E-1	-2.332929224E-1	2.822418213E0
1.732548234E0	4.127899706E-1	-2.439455539E-1	2.865028858E0
1.734174229E0	4.250405133E-1	-2.556634545E-1	2.935868740E0
1.736586119E0	4.266384244E-1	-2.577939928E-1	2.959304571E0
1.737788537E0	4.378236830E-1	-2.668487430E-1	3.003513098E0
1.740643888E0	4.484763443E-1	-2.796319127E-1	3.070092201E0
1.742354537E0	4.591289759E-1	-2.929477394E-1	3.114300728E0
1.744689080E0	4.660531878E-1	-3.083940744E-1	3.157443762E0
1.745879075E0	4.697816372E-1	-3.249056637E-1	3.196858644E0
1.748746965E0	4.772384763E-1	-3.350256681E-1	3.231479645E0
1.750086075E0	4.809668958E-1	-3.440804183E-1	3.263970375E0
1.752642499E0	4.825648069E-1	-3.446130455E-1	3.291134596E0
1.754127768E0	4.841626883E-1	-3.403519988E-1	3.312972546E0
1.756981619E0	4.846953154E-1	-3.174487948E-1	3.293797731E0
1.758645883E0	5.320996046E-1	-2.284992188E-1	3.194728136E0
1.761019196E0	5.438175201E-1	-1.890844405E-1	3.146258593E0
1.762226691E0	5.262406468E-1	-1.203748807E-1	3.098321676E0
1.765077926E0	5.065332651E-1	-5.805691332E-2	3.056776285E0
1.766641768E0	4.916195571E-1	-1.810949668E-2	3.021090031E0
1.769115119E0	4.799016416E-1	-3.195793368E-3	2.989132166E0
1.770284191E0	4.676510990E-1	-3.195793368E-3	2.969957352E0
1.773174196E0	4.511395097E-1	-1.384843793E-2	2.964631081E0
1.774769383E0	4.314320982E-1	-3.249056637E-2	2.966228962E0
1.777230003E0	4.053331316E-1	-5.006742850E-2	2.969424725E0
1.778482806E0	3.643204570E-1	-6.764429063E-2	2.974750996E0
1.781288311E0	3.147856593E-1	-7.936219871E-2	2.982740402E0
1.783056229E0	2.322276533E-1	-8.096009493E-2	2.984338284E0
1.785330003E0	2.034655064E-1	-7.989483327E-2	2.979012012E0
1.786647268E0	1.459412277E-1	-7.723167539E-2	2.972087860E0
1.789388349E0	8.841694891E-2	-7.137271762E-2	2.960369825E0
1.790720037E0	1.597896591E-2	-6.178534031E-2	2.937466621E0
1.793514388E0	-6.924218684E-2	-5.965480953E-2	2.903910875E0
1.794781345E0	-1.651159972E-1	-6.444849819E-2	2.862898111E0
1.797607388E0	-2.673813701E-1	-8.096009493E-2	2.812830687E0
1.799329075E0	-4.314320982E-1	-1.171790883E-1	2.712695837E0
1.801657580E0	-5.406216979E-1	-1.411475390E-1	2.640790701E0
1.802893845E0	-6.412891746E-1	-1.619201899E-1	2.557167292E0
1.805715657E0	-7.339671850E-1	-1.731054783E-1	2.461826086E0
1.807409960E0	-8.058725595E-1	-1.576591432E-1	2.366484880E0
1.809755080E0	-8.761799932E-1	-1.475391239E-1	2.279665947E0
1.810993422E0	-9.358348250E-1	-1.320927888E-1	2.193379402E0
1.813814234E0	-9.853696227E-1	-1.251685768E-1	2.116147757E0
1.815432960E0	-1.027980208E0	-1.235706806E-1	2.045840502E0
1.817853080E0	-1.058872819E0	-1.267664731E-1	1.982989788E0
1.819225768E0	-1.083906531E0	-1.347559541E-1	1.925465465E0
1.821912542E0	-1.102548718E0	-1.470064968E-1	1.872202277E0
1.823690691E0	-1.117995024E0	-1.688444167E-1	1.833852768E0
1.825994888E0	-1.130778193E0	-1.917476058E-1	1.799231648E0
1.827236306E0	-1.138767719E0	-2.226402760E-1	1.772600055E0
1.830053926E0	-1.148887753E0	-2.519350350E-1	1.747033715E0
1.831461537E0	-1.162203550E0	-2.753708661E-1	1.721467376E0
1.834006422E0	-1.176584601E0	-2.945456207E-1	1.696433663E0
1.835436845E0	-1.189900398E0	-3.025351167E-1	1.668736815E0
1.838272849E0	-1.203216195E0	-3.041329980E-1	1.637844086E0
1.840004960E0	-1.219195127E0	-2.993393242E-1	1.604820848E0
1.842308234E0	-1.229847789E0	-2.865561247E-1	1.565938711E0
1.843518037E0	-1.242098331E0	-2.684466541E-1	1.532382965E0
1.846366888E0	-1.249022603E0	-2.471413612E-1	1.494033456E0
1.848016806E0	-1.241033077E0	-2.215750068E-1	1.437574387E0
1.850419657E0	-1.234108925E0	-2.151834220E-1	1.423725963E0
1.851763652E0	-1.214401484E0	-1.954760253E-1	1.391235352E0
1.854478349E0	-1.189367771E0	-1.784317940E-1	1.357679605E0
1.856212460E0	-1.140365601E0	-1.523328125E-1	1.318797350E0
1.858522618E0	-1.131843448E0	-1.336906850E-1	1.305481553E0
1.859722268E0	-1.103613973E0	-9.747169912E-2	1.284176350E0
1.862580849E0	-1.086569786E0	-5.379585549E-2	1.263936281E0
1.864480537E0	-1.047687650E0	-1.012001187E-2	1.237304688E0
1.866649388E0	-1.027980208E0	2.663161233E-2	1.222391009E0
1.867912306E0	-1.010936022E0	4.900216311E-2	1.208009839E0
1.870708080E0	-9.805759192E-1	4.846953228E-2	1.199487805E0
1.872087729E0	-9.731190801E-1	6.338323653E-2	1.191498280E0
1.874848272E0	-9.560748339E-1	5.379585549E-2	1.193628788E0
1.876161768E0	-9.464874864E-1	4.474110901E-2	1.195759296E0
1.878941734E0	-9.427590370E-1	2.609897964E-2	1.203216195E0
1.880510152E0	-9.347695708E-1	5.326322280E-4	1.211738348E0
1.882976964E0	-9.400959015E-1	-2.929477207E-2	1.219195127E0
1.884214229E0	-9.283779860E-1	-5.912217870E-2	1.231445670E0
1.887035387E0	-9.198558331E-1	-8.628641814E-2	1.247424722E0
1.888655383E0	-9.145295620E-1	-1.038632840E-1	1.263403654E0
1.891072849E0	-8.990831971E-1	-1.235706806E-1	1.287372112E0
1.892340575E0	-8.788431883E-1	-1.299622655E-1	1.307612062E0
1.895130580E0	-8.538094759E-1	-1.315601617E-1	1.329450011E0
1.896964306E0	-8.330367804E-1	-1.299622655E-1	1.347559571E0
1.899174310E0	-8.096010089E-1	-1.315601617E-1	1.362473249E0
1.900400960E0	-7.824367285E-1	-1.315601617E-1	1.377919555E0
1.903232272E0	-7.590008974E-1	-1.320927888E-1	1.389104843E0
1.904938960E0	-7.313040495E-1	-1.257012039E-1	1.398159623E0
1.907274580E0	-7.243798375E-1	-1.225054115E-1	1.399757504E0
1.908521922E0	-7.153250575E-1	-1.166464612E-1	1.398159623E0
1.911331695E0	-7.041398287E-1	-1.272991002E-1	1.396029115E0
1.913008422E0	-6.865629554E-1	-1.571265012E-1	1.392833233E0
1.915405998E0	-6.652576327E-1	-1.874865443E-1	1.384843826E0
1.917027883E0	-6.444849968E-1	-2.162486911E-1	1.377386928E0
1.919549233E0	-6.317018270E-1	-2.279665917E-1	1.370462775E0
1.921197998E0	-6.322344542E-1	-2.146507949E-1	1.367799520E0
1.923598310E0	-6.380934119E-1	-2.045307755E-1	1.367799520E0
1.925060614E0	-6.641923785E-1	-1.800296903E-1	1.366734266E0
1.927655387E0	-7.163903713E-1	-1.592570394E-1	1.366734266E0
1.929281498E0	-7.494135499E-1	-1.731054783E-1	1.364071131E0
1.931692926E0	-7.803062201E-1	-2.071939409E-1	1.367266893E0
1.932948652E0	-8.127967715E-1	-2.476739883E-1	1.366201639E0
1.935751156E0	-8.399610519E-1	-3.041329980E-1	1.364603758E0
1.937428383E0	-8.633968234E-1	-3.669835925E-1	1.363538504E0
1.939815656E0	-8.910937309E-1	-4.170510471E-1	1.363005877E0
1.941217806E0	-9.150621891E-1	-4.591289759E-1	1.360875368E0
1.943874580E0	-9.390306473E-1	-4.921521842E-1	1.358744860E0
1.945638537E0	-9.512811303E-1	-5.177185535E-1	1.345961690E0
1.947959195E0	-9.395632744E-1	-5.544701219E-1	1.326254249E0
1.949167229E0	-9.193232059E-1	-5.651227832E-1	1.294296265E0
1.952018349E0	-8.964200616E-1	-5.454154015E-1	1.265534163E0
1.953385383E0	-8.708537221E-1	-5.086637735E-1	1.224521518E0
1.956145579E0	-8.378304839E-1	-4.623247683E-1	1.180312991E0
1.957470921E0	-8.058725595E-1	-4.063983858E-1	1.131310821E0
1.960239156E0	-7.707188129E-1	-3.536677957E-1	1.082841277E0
1.961824575E0	-7.344998717E-1	-3.057309091E-1	1.029045463E0
1.964274349E0	-7.009440064E-1	-2.615224123E-1	9.741843343E-1
1.965576114E0	-6.668555737E-1	-2.237055302E-1	9.198558331E-1
1.968332810E0	-6.386260390E-1	-1.874865443E-1	8.649947643E-1
1.969991498E0	-6.029396653E-1	-1.390170157E-1	7.866978049E-1
1.972385233E0	-5.944175720E-1	-1.262338310E-1	7.595335841E-1
1.973626229E0	-5.784385800E-1	-1.001348570E-1	7.078682184E-1
1.976443426E0	-5.677859783E-1	-7.563377917E-2	6.572681665E-1
1.978077729E0	-5.560680628E-1	-4.420847446E-2	5.901564956E-1
1.980499272E0	-5.528722405E-1	-3.515372798E-2	5.683186054E-1
1.981727729E0	-5.464806557E-1	-2.503371425E-2	5.374259353E-1
1.984557349E0	-5.438175201E-1	-2.663161233E-2	5.113269091E-1
1.986266306E0	-5.475459099E-1	-3.621899337E-2	4.942827225E-1
1.988615618E0	-5.635249019E-1	-4.314320907E-2	4.894890189E-1
1.989813268E0	-5.842975378E-1	-5.379585549E-2	4.980111420E-1
1.992673656E0	-6.066681147E-1	-7.723167539E-2	5.060006380E-1
1.994063998E0	-6.221144199E-1	-1.257012039E-1	5.257080197E-1
1.996537421E0	-6.189186573E-1	-1.912149638E-1	5.427522659E-1
1.998067345E0	-6.135923266E-1	-2.482066154E-1	5.645901561E-1
2.000907349E0	-6.040049195E-1	-2.886866629E-1	5.885586143E-1
2.002550383E0	-5.965480804E-1	-3.041329980E-1	6.151902080E-1
2.004942310E0	-5.848301649E-1	-3.041329980E-1	6.471481323E-1
2.006331498E0	-5.763080716E-1	-2.860234976E-1	6.769755483E-1
2.009000733E0	-5.688512325E-1	-2.609897852E-1	7.137271762E-1
2.010626345E0	-5.587311983E-1	-2.492718846E-1	7.403587699E-1
2.013038156E0	-5.464806557E-1	-2.439455539E-1	7.739146352E-1
2.014328498E0	-5.310343504E-1	-2.450108230E-1	8.074704409E-1
2.017096464E0	-5.150553584E-1	-2.604571581E-1	8.458199501E-1
2.019263229E0	-4.777711034E-1	-2.977414131E-1	9.022790194E-1
2.021138925E0	-4.601942301E-1	-3.105245829E-1	9.187905788E-1
2.022359729E0	-4.308994710E-1	-3.243730366E-1	9.608685374E-1
2.025197118E0	-4.079962969E-1	-3.249056637E-1	9.986854196E-1
2.026975614E0	-3.659183383E-1	-3.190467060E-1	1.050883412E0
2.029238656E0	-3.499393761E-1	-3.126551211E-1	1.066329718E0
2.030700652E0	-3.137203753E-1	-3.041329980E-1	1.091896057E0
2.033296695E0	-2.759034932E-1	-2.934803665E-1	1.114799261E0
2.034630114E0	-2.279665917E-1	-2.934803665E-1	1.132908702E0
2.037423771E0	-1.874865443E-1	-2.929477394E-1	1.143561363E0
2.038793075E0	-1.411475390E-1	-2.966761589E-1	1.150485635E0
2.041517156E0	-9.640643001E-2	-2.998719513E-1	1.152616143E0
2.043196114E0	-3.036003746E-2	-2.833603323E-1	1.144626617E0
2.045567233E0	-7.989482954E-3	-2.785666585E-1	1.138235092E0
2.046809729E0	4.261057824E-2	-2.695119083E-1	1.120658159E0
2.049625348E0	1.177117229E-1	-2.466087192E-1	1.081243396E0
2.051257114E0	1.688444167E-1	-2.306297570E-1	1.046622276E0
2.053662002E0	2.210423797E-1	-2.151834220E-1	1.006142259E0
2.054868037E0	2.663161159E-1	-1.890844405E-1	9.603359103E-1
2.057719079E0	3.041329980E-1	-1.518001854E-1	9.129316211E-1
2.059441268E0	3.382214606E-1	-1.150485575E-1	8.564726114E-1
2.061756348E0	3.712446690E-1	-7.669904083E-2	7.962851524E-1
2.062952268E0	3.994741738E-1	-4.154531285E-2	7.302387953E-1
2.065814118E0	4.159857631E-1	-7.989482954E-3	6.615292430E-1
2.067528960E0	4.277036786E-1	2.024002373E-2	5.922870636E-1
2.069895617E0	4.266384244E-1	5.592638254E-2	5.155879855E-1
2.071184306E0	4.149205089E-1	8.255799860E-2	4.415521026E-1
2.073953656E0	4.010720551E-1	9.747169912E-2	3.717772961E-1
2.075294114E0	3.787015080E-1	1.086569726E-1	3.014698327E-1
2.078080041E0	3.504720032E-1	1.118527651E-1	2.396845073E-1
2.079320768E0	3.137203753E-1	1.113201380E-1	1.763012707E-1
2.082173310E0	2.705771625E-1	1.107875034E-1	1.177117229E-1
2.083734498E0	2.284992188E-1	1.102548689E-1	6.072007492E-2
2.086207579E0	1.810949594E-1	1.123853996E-1	9.054748341E-3
2.087400421E0	1.310275346E-1	1.187769845E-1	-2.982740477E-2
2.090265348E0	8.149272949E-2	1.262338310E-1	-4.527373984E-2
2.091952306E0	3.941478580E-2	1.486043930E-1	-4.846953228E-2
2.094316617E0	1.065264456E-2	1.752360016E-1	-5.113269389E-2
2.095756691E0	-9.587380104E-3	2.050634027E-1	-5.858954415E-2
2.098374194E0	-2.609897964E-2	2.263686955E-1	-6.764429063E-2
2.100018306E0	-4.633900523E-2	2.460760921E-1	-8.788431436E-2
2.102437771E0	-5.326322466E-2	2.482066154E-1	-9.267801046E-2
2.103784844E0	-7.137271762E-2	2.471413612E-1	-9.640643001E-2
2.106495694E0	-9.374327213E-2	2.354234457E-1	-9.001484513E-2
2.108208883E0	-1.310275346E-1	1.954760253E-1	-6.924218684E-2
2.110563156E0	-1.432780623E-1	1.768338978E-1	-6.072007492E-2
2.112078768E0	-1.693770438E-1	1.406149119E-1	-3.408846259E-2
2.114621156E0	-2.034655064E-1	8.522115648E-2	4.261057824E-3
2.116040844E0	-2.221076339E-1	5.219795927E-2	2.663161233E-2
2.118762733E0	-2.434129268E-1	2.130528912E-2	4.420847446E-2
2.120210152E0	-2.615224123E-1	5.326322280E-4	5.113269389E-2
2.122856194E0	-2.705771625E-1	-2.077265643E-2	2.609897964E-2
2.124436383E0	-2.801645398E-1	-3.036003746E-2	-1.171790902E-2
2.126889963E0	-2.844256163E-1	-3.675162420E-2	-5.805691332E-2
2.128214421E0	-2.924150825E-1	-4.420847446E-2	-1.097222418E-1
2.130947579E0	-3.030677438E-1	-5.006742850E-2	-1.800296903E-1
2.132546344E0	-3.158509135E-1	-6.391586363E-2	-2.535329461E-1
2.134984156E0	-3.318298757E-1	-8.042746782E-2	-3.462109566E-1
2.136454344E0	-3.510046303E-1	-9.747169912E-2	-4.410194755E-1
2.139041925E0	-3.685815036E-1	-1.145159304E-1	-5.528722405E-1
2.140798844E0	-3.882888854E-1	-1.363538504E-1	-6.705839634E-1
2.143084656E0	-4.095941782E-1	-1.571265012E-1	-8.021441102E-1
2.144325344E0	-4.261057973E-1	-1.720402092E-1	-9.347695708E-1
2.147142463E0	-4.367584288E-1	-1.864212751E-1	-1.078047633E0
2.148972037E0	-4.420847595E-1	-1.986718178E-1	-1.223988891E0
2.151184233E0	-4.388889670E-1	-2.082591951E-1	-1.375789046E0
2.152463998E0	-4.367584288E-1	-2.125202566E-1	-1.524926066E0
2.155242502E0	-4.287689328E-1	-2.093244642E-1	-1.682052612E0
2.156539306E0	-4.186489284E-1	-1.970739216E-1	-1.839179039E0
2.159136114E0	-4.010720551E-1	-1.720402092E-1	-1.997903466E0
2.160894114E0	-3.787015080E-1	-1.438107044E-1	-2.167280436E0
2.163462617E0	-3.499393761E-1	-1.065264493E-1	-2.337190151E0
2.165021844E0	-2.924150825E-1	-4.474110901E-2	-2.596049547E0
2.167512271E0	-2.711097896E-1	-1.917476021E-2	-2.676476955E0
2.168820152E0	-2.284992188E-1	4.527373984E-2	-2.850115061E0
2.171570886E0	-1.890844405E-1	1.406149119E-1	-3.024818420E0
2.173129921E0	-1.336906850E-1	2.668487430E-1	-3.291667223E0
2.175608386E0	-1.001348570E-1	3.472762108E-1	-3.475957870E0
2.176792421E0	-6.764429063E-2	4.500742257E-1	-3.644802332E0
2.179666502E0	-2.822950855E-2	5.470132828E-1	-3.805657387E0
2.181259075E0	-1.065264456E-3	6.412891746E-1	-3.963849068E0
2.183701502E0	2.929477207E-2	7.179882526E-1	-4.098605156E0
2.184914152E0	5.539375171E-2	8.096010089E-1	-4.210457802E0
2.187759809E0	7.776430249E-2	9.054747820E-1	-4.290352821E0
2.189485537E0	1.027980223E-1	9.528790712E-1	-4.362257957E0
2.191840694E0	1.235706806E-1	9.885654449E-1	-4.402205467E0
2.193036460E0	1.251685768E-1	1.068992853E0	-4.391552925E0
2.195898540E0	1.209075153E-1	1.108407617E0	-4.247209549E0
2.197187306E0	1.246359423E-1	1.130778193E0	-4.030427933E0
2.199924037E0	1.262338310E-1	1.179247737E0	-3.744937181E0
2.201233575E0	1.139832959E-1	1.135039330E0	-3.425357819E0
2.204117848E0	8.042746782E-2	1.019458055E0	-3.108974218E0
2.205681037E0	3.888215125E-2	8.729842305E-1	-2.803243399E0
2.208153809E0	7.456851192E-3	7.270429730E-1	-2.514024019E0
2.209347460E0	-6.924218964E-3	6.189186573E-1	-2.241316319E0
2.212212155E0	-1.384843793E-2	5.576659441E-1	-1.994707704E0
2.213773229E0	-1.171790902E-2	5.310343504E-1	-1.793372750E0
2.216264194E0	-4.261057824E-3	5.235774517E-1	-1.635180950E0
2.217442344E0	9.054748341E-3	5.246427655E-1	-1.518001795E0
2.220322655E0	2.450108156E-2	5.219795704E-1	-1.433845997E0
2.221898960E0	4.420847446E-2	4.926848114E-1	-1.364071131E0
2.224379386E0	4.900216311E-2	4.756405652E-1	-1.350222707E0
2.225549460E0	6.391586363E-2	4.378236830E-1	-1.333178520E0
2.228438155E0	7.776430249E-2	3.882888854E-1	-1.326254249E0
2.230102960E0	1.070590764E-1	2.998719513E-1	-1.331047893E0
2.232516232E0	1.161138266E-1	2.705771625E-1	-1.333711147E0
2.233738921E0	1.427454352E-1	2.066612989E-1	-1.337439537E0
2.236574425E0	1.683117896E-1	1.177117229E-1	-1.350222707E0
2.237908229E0	2.130528986E-1	-4.048004746E-2	-1.369930148E0
2.240382998E0	2.476739883E-1	-1.640507281E-1	-1.388572216E0
2.241964652E0	2.849582434E-1	-2.945456207E-1	-1.406681657E0
2.244807348E0	3.243730366E-1	-4.324973822E-1	-1.431182742E0
2.246400037E0	3.621899188E-1	-5.912217498E-1	-1.453553319E0
2.248841925E0	4.032025933E-1	-7.467503548E-1	-1.488174438E0
2.249998652E0	4.367584288E-1	-8.948221207E-1	-1.518534541E0
2.252900348E0	4.527373910E-1	-9.960222840E-1	-1.544633508E0
2.254449229E0	4.436826408E-1	-1.017860174E0	-1.565938711E0
2.256936924E0	4.069310129E-1	-9.560748339E-1	-1.584580898E0
2.258102229E0	3.579288721E-1	-8.202536106E-1	-1.600559831E0
2.260994886E0	3.025351167E-1	-6.364955306E-1	-1.627724051E0
2.262590690E0	2.487392575E-1	-4.229099751E-1	-1.659149408E0
2.265038924E0	2.024002522E-1	-1.842907518E-1	-1.702825189E0
2.266196037E0	1.752360016E-1	4.687163606E-2	-1.753957868E0
2.269097348E0	1.784317940E-1	2.300971150E-1	-1.818939090E0
2.270763498E0	2.039981484E-1	3.510046303E-1	-1.905225515E0
2.273138694E0	2.348908186E-1	4.143878818E-1	-2.001631975E0
2.274297460E0	2.620550692E-1	4.554005563E-1	-2.108158350E0
2.277196155E0	2.780340314E-1	4.985437691E-1	-2.214152098E0
2.278520037E0	2.886866629E-1	5.587311983E-1	-2.319613457E0
2.281321424E0	2.950782478E-1	6.380934119E-1	-2.421346188E0
2.282582998E0	2.977414131E-1	7.446198463E-1	-2.520948410E0
2.285413617E0	3.020024598E-1	8.665926456E-1	-2.611495733E0
2.287042037E0	3.169161677E-1	1.035437107E0	-2.748914957E0
2.289461924E0	3.243730366E-1	1.090830803E0	-2.793123484E0
2.290655998E0	3.462109566E-1	1.193096161E0	-2.882072926E0
2.293519078E0	3.707120419E-1	1.280980468E0	-2.965163708E0
2.295225114E0	4.117247164E-1	1.408812284E0	-3.081277370E0
2.297555078E0	4.277036786E-1	1.457281828E0	-3.114833355E0
2.298889383E0	4.543353021E-1	1.531850338E0	-3.172890186E0
2.301612578E0	4.761732221E-1	1.591505051E0	-3.258643866E0
2.303252729E0	4.873584807E-1	1.613875628E0	-3.307113409E0
2.305667809E0	4.932174385E-1	1.622930408E0	-3.352919817E0
2.306892652E0	5.038700700E-1	1.623463035E0	-3.403519869E0
2.309726117E0	5.209143162E-1	1.616538763E0	-3.461044312E0
2.311445267E0	5.342301130E-1	1.601625085E0	-3.519633770E0
2.313811193E0	5.384911895E-1	1.567003965E0	-3.577157974E0
2.315149998E0	5.443501472E-1	1.529187083E0	-3.624029636E0
2.317868963E0	5.502091050E-1	1.492968082E0	-3.661846638E0
2.319203998E0	5.597964525E-1	1.451422811E0	-3.689010859E0
2.321761844E0	5.715143681E-1	1.407747030E0	-3.710848808E0
2.323288575E0	5.779059529E-1	1.348624825E0	-3.727892876E0
2.326086963E0	5.811017752E-1	1.293231010E0	-3.741741419E0
2.327706229E0	5.864281058E-1	1.253283620E0	-3.752393961E0
2.330122270E0	5.880259871E-1	1.221325755E0	-3.752926588E0
2.331340767E0	5.912217498E-1	1.196292043E0	-3.742806673E0
2.334180040E0	6.125270724E-1	1.188835144E0	-3.719370842E0
2.335927344E0	6.380934119E-1	1.163801432E0	-3.693804502E0
2.338232540E0	6.519418359E-1	1.086569786E0	-3.678890705E0
2.339432152E0	6.476807594E-1	9.432916641E-1	-3.675162315E0
2.342290463E0	6.317018270E-1	7.451524734E-1	-3.690608740E0
2.343894614E0	5.933523178E-1	4.079962969E-1	-3.730556011E0
2.346325001E0	5.869607329E-1	2.950782478E-1	-3.745469809E0
2.347685267E0	5.677859783E-1	6.924218684E-2	-3.777427673E0
2.350383040E0	5.496764779E-1	-1.411475390E-1	-3.811516285E0
2.352130344E0	5.278385282E-1	-4.234426320E-1	-3.848267794E0
2.354449001E0	5.209143162E-1	-5.102616549E-1	-3.858387947E0
2.355732037E0	5.081311464E-1	-6.668555737E-1	-3.877562523E0
2.358506116E0	4.942827225E-1	-8.106662631E-1	-3.889813185E0
2.360460652E0	4.809668958E-1	-9.976201653E-1	-3.886084795E0
2.362543116E0	4.772384763E-1	-1.056742311E0	-3.883954287E0
2.363788344E0	4.644553065E-1	-1.164866686E0	-3.879693031E0
2.366600501E0	4.543353021E-1	-1.286839485E0	-3.858920574E0
2.368259575E0	4.591289759E-1	-1.335841656E0	-3.841343641E0
2.370635693E0	4.607268870E-1	-1.358212233E0	-3.813114166E0
2.371849575E0	4.660531878E-1	-1.360342741E0	-3.777427673E0
2.374693578E0	4.719121456E-1	-1.338504791E0	-3.745469809E0
2.376328960E0	4.724447727E-1	-1.314003706E0	-3.711914062E0
2.378731116E0	4.697816372E-1	-1.280980468E0	-3.677292824E0
2.379986460E0	4.735100567E-1	-1.238902569E0	-3.642671824E0
2.382789039E0	4.697816372E-1	-1.187237263E0	-3.616572857E0
2.384450767E0	4.644553065E-1	-1.126517177E0	-3.585680246E0
2.386825001E0	4.554005563E-1	-1.058872819E0	-3.559048653E0
2.388132460E0	4.415521026E-1	-9.784454107E-1	-3.536678076E0
2.390883001E0	4.202468395E-1	-8.873652816E-1	-3.515905380E0
2.392624729E0	3.925499618E-1	-7.882956862E-1	-3.504187346E0
2.394939116E0	3.600593805E-1	-6.769755483E-1	-3.494600058E0
2.396176613E0	3.265035450E-1	-5.592638254E-1	-3.485545397E0
2.398997001E0	2.929477394E-1	-4.367584288E-1	-3.475425243E0
2.400324767E0	2.604571581E-1	-3.211772442E-1	-3.465837955E0
2.402942113E0	2.306297570E-1	-2.008023560E-1	-3.449858904E0
2.404599037E0	1.986718178E-1	-7.616640627E-2	-3.426423073E0
2.407214962E0	1.677791476E-1	4.367584363E-2	-3.401389360E0
2.408841767E0	1.299622655E-1	1.629854590E-1	-3.372094631E0
2.411263885E0	9.054747969E-2	2.721750736E-1	-3.337473631E0
2.412720267E0	5.166532472E-2	3.845604658E-1	-3.302319765E0
2.415321193E0	5.326322280E-4	4.873584807E-1	-3.273557663E0
2.416944460E0	-7.829693705E-2	6.439523697E-1	-3.222424984E0
2.419358270E0	-1.091896072E-1	6.950850487E-1	-3.208576441E0
2.420560998E0	-1.794970632E-1	7.840346098E-1	-3.197391272E0
2.423414808E0	-2.492718846E-1	8.713863492E-1	-3.201119661E0
2.425031460E0	-3.504720032E-1	1.048752904E0	-3.211239815E0
2.427471385E0	-3.866910040E-1	1.110005617E0	-3.213370323E0
2.428684767E0	-4.575310946E-1	1.238902569E0	-3.213902950E0
2.431528655E0	-5.273059011E-1	1.372593284E0	-3.209109068E0
2.433225729E0	-6.332997084E-1	1.568069220E0	-3.186206102E0
2.435608924E0	-7.036072016E-1	1.704423189E0	-3.160106897E0
2.436892806E0	-7.653924823E-1	1.859419107E0	-3.118561745E0
2.439665770E0	-7.909588814E-1	2.057025671E0	-3.058374166E0
2.441010690E0	-8.122641444E-1	2.226935387E0	-3.005110979E0
2.443783344E0	-8.372978568E-1	2.343581915E0	-2.964631081E0
2.445215729E0	-8.511462808E-1	2.403769255E0	-2.931075096E0
2.447882962E0	-8.532768488E-1	2.375539780E0	-2.912965536E0
2.449472267E0	-8.415589333E-1	2.275937557E0	-2.914563656E0
2.451916770E0	-8.223841786E-1	2.111886740E0	-2.920422554E0
2.453260075E0	-7.866978049E-1	1.886583328E0	-2.933738232E0
2.455973270E0	-7.376956344E-1	1.620267272E0	-2.950782537E0
2.457567613E0	-6.721818447E-1	1.321460605E0	-2.976881504E0
2.460024885E0	-6.040049195E-1	1.000815988E0	-3.002980471E0
2.461447152E0	-5.171858668E-1	6.652576327E-1	-3.033340454E0
2.464082078E0	-4.266384244E-1	3.360909224E-1	-3.057308912E0
2.465681690E0	-3.339604139E-1	1.384843793E-2	-3.085005760E0
2.468137962E0	-2.498045117E-1	-2.727077007E-1	-3.097789049E0
2.469529921E0	-2.253034264E-1	-4.324973822E-1	-3.013100624E0
2.472195501E0	-2.572613657E-1	-4.900216460E-1	-2.793123484E0
2.473880036E0	-3.813646734E-1	-4.442152679E-1	-2.382463932E0
2.476271616E0	-4.404868484E-1	-4.069310129E-1	-2.237055302E0
2.477563344E0	-5.688512325E-1	-3.147856593E-1	-1.967010856E0
2.480329039E0	-7.046724558E-1	-2.332929224E-1	-1.741707444E0
2.481706190E0	-8.415589333E-1	-1.800296903E-1	-1.572330356E0
2.484173575E0	-9.566074610E-1	-1.922802329E-1	-1.471130252E0
2.485763960E0	-1.044491768E0	-2.620550692E-1	-1.431182742E0
2.488559962E0	-1.104679227E0	-3.829625845E-1	-1.435443878E0
2.490205421E0	-1.156877160E0	-6.274407506E-1	-1.497761846E0
2.492593424E0	-1.174986720E0	-7.973504663E-1	-1.559014559E0
2.493844767E0	-1.185106754E0	-9.550095797E-1	-1.633583069E0
2.496650731E0	-1.195226669E0	-1.101483464E0	-1.710814714E0
2.498249536E0	-1.200553060E0	-1.236772060E0	-1.801894784E0
2.500687000E0	-1.201085687E0	-1.353418469E0	-1.907888651E0
2.501915421E0	-1.193096161E0	-1.470597625E0	-2.008023500E0
2.504744077E0	-1.156344533E0	-1.615473509E0	-2.146507978E0
2.506491113E0	-1.096157074E0	-1.791774869E0	-2.251436472E0
2.508787385E0	-1.009870648E0	-1.988848686E0	-2.392051220E0
2.510004306E0	-9.086706042E-1	-2.199771166E0	-2.569417953E0
2.512844424E0	-7.984157205E-1	-2.416552305E0	-2.759567499E0
2.514670690E0	-6.918892860E-1	-2.620550632E0	-2.946521521E0
2.516884923E0	-6.013417840E-1	-2.789927721E0	-3.121757507E0
2.518110229E0	-5.102616549E-1	-2.941727877E0	-3.291667223E0
2.520942616E0	-4.383563101E-1	-3.055711031E0	-3.457848310E0
2.522275960E0	-3.845604658E-1	-3.150519609E0	-3.615507603E0
2.525067616E0	-3.376888335E-1	-3.232012272E0	-3.768905640E0
2.526341536E0	-3.067961633E-1	-3.296993494E0	-3.916977406E0
2.529160116E0	-2.881540358E-1	-3.347060919E0	-4.059190273E0
2.530872190E0	-2.721750736E-1	-3.389138937E0	-4.196609497E0
2.533208923E0	-2.625876963E-1	-3.425357819E0	-4.328169346E0
2.534425421E0	-2.572613657E-1	-3.447195768E0	-4.437358856E0
2.537266577E0	-2.498045117E-1	-3.451456785E0	-4.535363197E0
2.538901190E0	-2.274339646E-1	-3.410444260E0	-4.652542591E0
2.541304000E0	-2.205097377E-1	-3.384345293E0	-4.689294338E0
2.542510536E0	-1.965412945E-1	-3.315635681E0	-4.755873203E0
2.545361654E0	-1.635181010E-1	-3.219229221E0	-4.813397408E0
2.546965767E0	-1.081243455E-1	-3.049319506E0	-4.885835648E0
2.549415270E0	-8.575379103E-2	-2.984870911E0	-4.911401749E0
2.550617113E0	-3.355583176E-2	-2.840527773E0	-4.954545021E0
2.553470962E0	2.237055451E-2	-2.689792633E0	-4.991296768E0
2.555880383E0	1.171790883E-1	-2.457565069E0	-5.040831566E0
2.557493654E0	1.496696621E-1	-2.378202915E0	-5.056277752E0
2.558713575E0	2.237055302E-1	-2.213619471E0	-5.077050209E0
2.561550654E0	2.966761589E-1	-2.045307636E0	-5.091964245E0
2.562989190E0	4.053331316E-1	-1.808819056E0	-5.099953651E0
2.565446229E0	4.777711034E-1	-1.654355645E0	-5.097823143E0
2.567077652E0	5.470132828E-1	-1.507881880E0	-5.089833736E0
2.569768000E0	6.130596995E-1	-1.368332148E0	-5.072256565E0
2.571388113E0	6.759102941E-1	-1.227184653E0	-5.041364193E0
2.573801077E0	7.329019308E-1	-1.090298176E0	-5.005145073E0
2.575179806E0	7.946872711E-1	-9.539443254E-1	-4.954545021E0
2.577858346E0	8.596684337E-1	-8.080030680E-1	-4.889564037E0
2.579476652E0	9.241169095E-1	-6.375607848E-1	-4.809136391E0
2.581909039E0	9.832391143E-1	-4.607268870E-1	-4.705805779E0
2.583132229E0	1.047154903E0	-2.775014043E-1	-4.576908588E0
2.585966346E0	1.114266634E0	-8.628641814E-2	-4.426706314E0
2.587665959E0	1.190433025E0	1.155811921E-1	-4.261057854E0
2.589996308E0	1.262338400E0	3.137203753E-1	-4.079962730E0
2.591214421E0	1.329450011E0	5.049353242E-1	-3.886084795E0
2.594054231E0	1.394963861E0	6.828345060E-1	-3.679955959E0
2.595756844E0	1.457814455E0	8.649947643E-1	-3.457315683E0
2.598120308E0	1.510545015E0	1.048220277E0	-3.217098713E0
2.599328729E0	1.556884050E0	1.225054145E0	-2.966228962E0
2.602178000E0	1.595766187E0	1.405083776E0	-2.692456007E0
2.603528344E0	1.617604017E0	1.577124000E0	-2.409095526E0
2.606318923E0	1.628256679E0	1.739044189E0	-2.119343519E0
2.607694652E0	1.619734645E0	1.889246464E0	-1.822134852E0
2.610410577E0	1.598961949E0	2.032524586E0	-1.522795558E0
2.611996883E0	1.541437626E0	2.238120556E0	-1.061536074E0
2.614443615E0	1.513740778E0	2.304167032E0	-9.065400362E-1
2.615825267E0	1.448759675E0	2.428802967E0	-5.976133347E-1
2.618500538E0	1.370995402E0	2.536927223E0	-2.918824553E-1
2.620109113E0	1.224521518E0	2.660497904E0	1.523328125E-1
2.622535885E0	1.170725584E0	2.692456007E0	2.950782478E-1
2.623916613E0	1.054079175E0	2.736664295E0	5.795038939E-1
2.626592731E0	8.559399843E-1	2.763828516E0	9.912285805E-1
2.628417806E0	7.158577442E-1	2.758502245E0	1.250087857E0
2.630628923E0	5.651227832E-1	2.732403278E0	1.480184913E0
2.631892306E0	4.048005044E-1	2.679672718E0	1.707086325E0
2.634685500E0	2.498045117E-1	2.607234716E0	1.910019159E0
2.636368575E0	9.534116834E-2	2.509763002E0	2.095907927E0
2.638725461E0	-4.900216311E-2	2.377670288E0	2.267947912E0
2.639922113E0	-1.757686287E-1	2.210423708E0	2.411226034E0
2.642782923E0	-2.876214087E-1	2.001099348E0	2.532666206E0
2.644196959E0	-3.802994192E-1	1.750762105E0	2.639725208E0
2.646684536E0	-4.649879336E-1	1.479119658E0	2.721218109E0
2.648189998E0	-5.331648588E-1	1.180312991E0	2.764894009E0
2.651001115E0	-5.832322836E-1	8.649947643E-1	2.793656111E0
2.652861613E0	-6.173207760E-1	5.379585624E-1	2.799515009E0
2.655052038E0	-6.370281577E-1	1.928128600E-1	2.771818161E0
2.656269421E0	-6.396912932E-1	-1.523328125E-1	2.744653940E0
2.659109808E0	-6.327670813E-1	-4.900216460E-1	2.693521261E0
2.660714921E0	-6.061354876E-1	-8.106662631E-1	2.626942158E0
2.663145923E0	-5.581985712E-1	-1.092428684E0	2.529470444E0
2.664351229E0	-5.006743073E-1	-1.351820588E0	2.386724949E0
2.667204038E0	-4.399542212E-1	-1.594700933E0	2.237055302E0
2.668824844E0	-3.749730885E-1	-1.810949564E0	2.082059383E0
2.671266384E0	-3.041329980E-1	-1.990979314E0	1.904692888E0
2.672687536E0	-2.311623842E-1	-2.145442724E0	1.710814714E0
2.675323731E0	-1.581917703E-1	-2.268480778E0	1.500957608E0
2.677067806E0	-4.527373984E-2	-2.400573492E0	1.194161415E0
2.679403000E0	-9.587380104E-3	-2.434661865E0	1.095624447E0
2.680625959E0	5.645901710E-2	-2.485794544E0	9.012137055E-1
2.683460769E0	1.214401498E-1	-2.514024019E0	7.052050829E-1
2.684744806E0	1.784317940E-1	-2.509763002E0	5.054680109E-1
2.687464190E0	2.492718846E-1	-2.475142002E0	2.343581766E-1
2.688850113E0	2.732403278E-1	-2.462358713E0	8.202536404E-2
2.691678384E0	2.966761589E-1	-2.436792374E0	-4.793690145E-2
2.693264267E0	3.179814517E-1	-2.382463932E0	-1.651159972E-1
2.695712000E0	3.307646215E-1	-2.319613457E0	-2.668487430E-1
2.696911344E0	3.403519988E-1	-2.247175455E0	-3.542004228E-1
2.699770538E0	3.408846259E-1	-2.164084673E0	-4.335626364E-1
2.701368844E0	3.382214606E-1	-2.075667858E0	-5.012069345E-1
2.703822077E0	3.291667104E-1	-1.974467635E0	-5.571333170E-1
2.705033729E0	3.185140789E-1	-1.857288599E0	-6.045376062E-1
2.707880038E0	3.041329980E-1	-1.727326274E0	-6.418218613E-1
2.709473229E0	2.897519469E-1	-1.588309288E0	-6.705839634E-1
2.711936846E0	2.737729549E-1	-1.442900658E0	-6.881608367E-1
2.713109729E0	2.508697808E-1	-1.287372112E0	-6.961503029E-1
2.715995461E0	2.279665917E-1	-1.129180312E0	-6.934871674E-1
2.717733152E0	2.013349831E-1	-9.709885716E-1	-6.705839634E-1
2.720074000E0	1.693770438E-1	-8.106662631E-1	-6.434197426E-1
2.721263421E0	1.422128081E-1	-6.482134461E-1	-6.013417840E-1
2.724131846E0	1.070590764E-1	-4.868258536E-1	-5.491438508E-1
2.725466498E0	7.243798673E-2	-3.312972486E-1	-4.846953154E-1
2.728019767E0	3.728425503E-2	-1.848233789E-1	-4.149205089E-1
2.729518113E0	-3.195793368E-3	-5.326322466E-2	-3.430151641E-1
2.732367000E0	-4.633900523E-2	6.870955974E-2	-2.647182047E-1
2.733949152E0	-8.575379103E-2	2.316950262E-1	-1.315601617E-1
2.736402192E0	-7.456851006E-2	2.854908705E-1	-9.427590668E-2
2.737647421E0	2.609897964E-2	3.776362538E-1	-5.805691332E-2
2.740460307E0	2.535329461E-1	4.596616030E-1	-7.723167539E-2
2.742009575E0	7.611314654E-1	5.677859783E-1	-1.736381054E-1
2.744497884E0	9.416937828E-1	5.965480804E-1	-2.050634027E-1
2.745688575E0	1.287372112E0	6.396912932E-1	-2.423476577E-1
2.748555884E0	1.722532630E0	7.020092607E-1	-2.450108230E-1
2.750143613E0	1.949433923E0	7.504788041E-1	-2.247707993E-1
2.752593615E0	2.106560469E0	8.053399324E-1	-1.810949594E-1
2.753767229E0	2.190183640E0	8.580704927E-1	-1.113201380E-1
2.756651576E0	2.188585758E0	8.980179429E-1	-2.130528912E-2
2.758358998E0	2.117213011E0	9.374327064E-1	9.001484513E-2
2.760693461E0	1.995772958E0	9.832391143E-1	2.098570913E-1
2.761921075E0	1.834918022E0	1.037034988E0	3.430151641E-1
2.764751423E0	1.655421019E0	1.091896057E0	4.756405652E-1
2.766055459E0	1.462608099E0	1.148887753E0	6.061354876E-1
2.768721882E0	1.271393180E0	1.203216195E0	7.259777188E-1
2.770091036E0	1.082841277E0	1.252750993E0	8.255799413E-1
2.772968923E0	9.070726633E-1	1.288969994E0	9.049421549E-1
2.774524959E0	7.595335841E-1	1.300155282E0	9.550095797E-1
2.777018999E0	6.279733777E-1	1.289502621E0	9.768475294E-1
2.778196306E0	5.251753926E-1	1.249555230E0	9.688580036E-1
2.781076384E0	4.404868484E-1	1.187237263E0	9.379653335E-1
2.782619113E0	3.648530841E-1	1.104679227E0	8.852347732E-1
2.785112692E0	2.897519469E-1	1.004011750E0	8.239820600E-1
2.786336613E0	2.093244642E-1	8.969526887E-1	7.664577961E-1
2.789169692E0	1.150485575E-1	7.835019827E-1	7.169229984E-1
2.790768229E0	7.989482954E-3	6.695187092E-1	6.870955825E-1
2.793224230E0	-1.102548689E-1	5.608617067E-1	6.695187092E-1
2.794541498E0	-2.348908186E-1	4.575310946E-1	6.700513363E-1
2.797281922E0	-3.632551730E-1	3.616572917E-1	6.881608367E-1
2.798987459E0	-5.347627401E-1	2.284992188E-1	7.366303802E-1
2.801310807E0	-5.874933600E-1	1.864212751E-1	7.579356432E-1
2.802681036E0	-6.753776670E-1	1.054611802E-1	8.016114831E-1
2.805367615E0	-7.456851006E-1	3.355583176E-2	8.516789079E-1
2.806679075E0	-7.968178391E-1	-3.621899337E-2	9.038769007E-1
2.809267075E0	-8.356999755E-1	-1.086569726E-1	9.571400881E-1
2.810782421E0	-8.554073572E-1	-1.826928556E-1	1.005609632E0
2.813584499E0	-8.559399843E-1	-2.711097896E-1	1.066329718E0
2.815172575E0	-8.511462808E-1	-3.307646215E-1	1.089232922E0
2.817619692E0	-8.426241875E-1	-4.085289240E-1	1.101483464E0
2.818907036E0	-8.404936790E-1	-4.937500656E-1	1.106809735E0
2.821676845E0	-8.319715261E-1	-5.826996565E-1	1.114266634E0
2.823270421E0	-8.170578480E-1	-6.684534550E-1	1.129180312E0
2.825730615E0	-7.968178391E-1	-7.376956344E-1	1.148887753E0
2.827124498E0	-7.685883045E-1	-7.984157205E-1	1.168062449E0
2.829788422E0	-7.355651259E-1	-8.436894417E-1	1.196292043E0
2.831404652E0	-7.009440064E-1	-8.820389509E-1	1.214934111E0
2.833822307E0	-6.620618701E-1	-9.006810784E-1	1.238369942E0
2.835033805E0	-6.231797338E-1	-9.028116465E-1	1.255414128E0
2.837879538E0	-5.832322836E-1	-8.926916122E-1	1.266066790E0
2.839671459E0	-5.470132828E-1	-8.761799932E-1	1.271925807E0
2.841945807E0	-5.171858668E-1	-8.490157723E-1	1.271393180E0
2.843172152E0	-4.862932265E-1	-8.159925938E-1	1.267664671E0
2.846003038E0	-4.628573954E-1	-7.792409658E-1	1.253816247E0
2.847657652E0	-4.388889670E-1	-7.408914566E-1	1.239435196E0
2.850016805E0	-4.261057973E-1	-7.084008455E-1	1.221325755E0
2.851359729E0	-4.202468395E-1	-6.823018789E-1	1.193096161E0
2.854234961E0	-4.213120937E-1	-6.684534550E-1	1.159540415E0
2.855971536E0	-4.250405133E-1	-6.508765817E-1	1.126517177E0
2.858270730E0	-4.372910559E-1	-6.311691999E-1	1.091896057E0
2.859467113E0	-4.495415986E-1	-6.199839115E-1	1.053013921E0
2.862328422E0	-4.660531878E-1	-6.098638773E-1	1.010403395E0
2.863902229E0	-4.953479767E-1	-5.949501991E-1	9.422264099E-1
2.866364268E0	-5.022721887E-1	-5.912217498E-1	9.209211469E-1
2.867600998E0	-5.171858668E-1	-5.763080716E-1	8.729842305E-1
2.870422499E0	-5.246427655E-1	-5.576659441E-1	8.239820600E-1
2.872010459E0	-5.219795704E-1	-5.171858668E-1	7.632619739E-1
2.874466268E0	-5.139901042E-1	-4.910869002E-1	7.451524734E-1
2.875654575E0	-4.894890189E-1	-4.367584288E-1	7.121292949E-1
2.878523730E0	-4.671184719E-1	-3.861583769E-1	6.759102941E-1
2.880223767E0	-4.239752591E-1	-3.105245829E-1	6.237123609E-1
2.882565307E0	-3.957457542E-1	-2.647182047E-1	5.800365210E-1
2.883813305E0	-3.568635881E-1	-2.114549875E-1	5.379585624E-1
2.886622384E0	-3.147856593E-1	-1.523328125E-1	4.964132309E-1
2.887958190E0	-2.721750736E-1	-9.321063757E-2	4.585963488E-1
2.890467075E0	-2.343581766E-1	-4.420847446E-2	4.149205089E-1
2.892075344E0	-2.008023560E-1	-5.326322280E-3	3.765709996E-1
2.894841614E0	-1.747033745E-1	1.810949668E-2	3.307646215E-1
2.896433344E0	-1.539307088E-1	3.462109342E-2	2.790992856E-1
2.898892268E0	-1.347559541E-1	5.432848632E-2	2.380866110E-1
2.900111652E0	-1.251685768E-1	6.285060197E-2	1.954760253E-1
2.902950807E0	-1.235706806E-1	7.030745596E-2	1.512675583E-1
2.904505305E0	-1.198422536E-1	7.989483327E-2	1.065264493E-1
2.906987807E0	-1.155811921E-1	9.587380290E-2	6.924218684E-2
2.908163113E0	-1.107875034E-1	1.251685768E-1	3.728425503E-2
2.911045307E0	-1.012001261E-1	1.645833552E-1	1.065264456E-2
2.912628228E0	-9.640643001E-2	2.045307755E-1	-1.118527725E-2
2.915072960E0	-9.214537591E-2	2.482066154E-1	-3.089267015E-2
2.916256652E0	-8.735168725E-2	2.982740402E-1	-4.846953228E-2
2.919130153E0	-9.054747969E-2	3.467435837E-1	-5.432848632E-2
2.920831728E0	-1.022653878E-1	4.095941782E-1	-5.379585549E-2
2.923210960E0	-1.081243455E-1	4.303668439E-1	-5.219795927E-2
2.924446459E0	-1.230380461E-1	4.735100567E-1	-4.900216311E-2
2.927267922E0	-1.518001854E-1	5.091964006E-1	-4.740426689E-2
2.928654036E0	-1.848233789E-1	5.374259353E-1	-4.527373984E-2
2.931392653E0	-2.290318608E-1	5.560680628E-1	-4.367584363E-2
2.932660459E0	-2.711097896E-1	5.651227832E-1	-4.580637068E-2
2.935484768E0	-3.185140789E-1	5.672533512E-1	-5.006742850E-2
2.937092152E0	-3.952131271E-1	5.523396134E-1	-5.486112088E-2
2.939518537E0	-4.213120937E-1	5.454154015E-1	-5.645901710E-2
2.940966652E0	-4.745753109E-1	5.289037824E-1	-5.486112088E-2
2.943575499E0	-5.480785370E-1	5.049353242E-1	-5.006742850E-2
2.945292767E0	-5.954828262E-1	4.846953154E-1	-4.527373984E-2
2.947626999E0	-6.412891746E-1	4.633900523E-1	-3.728425503E-2
2.948829998E0	-6.823018789E-1	4.351605177E-1	-2.609897964E-2
2.951684076E0	-7.185208797E-1	4.063983858E-1	-1.331580617E-2
2.953391805E0	-7.510114312E-1	3.728425503E-1	1.597896684E-3
2.955744614E0	-7.755125165E-1	3.350256681E-1	2.396845073E-2
2.957025421E0	-7.893609405E-1	2.897519469E-1	4.900216311E-2
2.959801729E0	-7.957525253E-1	2.370213419E-1	7.190535218E-2
2.961517652E0	-7.893609405E-1	1.752360016E-1	1.038632840E-1
2.963878960E0	-7.723167539E-1	9.853696078E-2	1.331580579E-1
2.965092613E0	-7.446198463E-1	1.651159860E-2	1.629854590E-1
2.967936499E0	-7.137271762E-1	-6.870955974E-2	1.906823367E-1
2.969392228E0	-6.695187092E-1	-1.613875628E-1	2.146507949E-1
2.971821190E0	-6.215817928E-1	-2.540655732E-1	2.402171344E-1
2.973337728E0	-5.672533512E-1	-3.387540877E-1	2.625876963E-1
2.976169268E0	-5.097290277E-1	-4.159857631E-1	2.876214087E-1
2.977803575E0	-4.463458061E-1	-4.836300611E-1	3.073287904E-1
2.980204191E0	-3.792341352E-1	-5.374259353E-1	3.291667104E-1
2.981411728E0	-3.110572100E-1	-5.768406987E-1	3.456783295E-1
2.984262037E0	-2.412824035E-1	-5.992112756E-1	3.595267534E-1
2.986038998E0	-1.299622655E-1	-6.002765298E-1	3.781688809E-1
2.988299499E0	-9.374327213E-2	-5.933523178E-1	3.877562582E-1
2.989496959E0	-2.183792181E-2	-5.624596477E-1	4.010720551E-1
2.992357306E0	4.953479767E-2	-5.166532397E-1	4.079962969E-1
2.994162382E0	1.523328125E-1	-4.165183902E-1	3.957457542E-1
2.996406652E0	1.832254827E-1	-3.818973005E-1	3.952131271E-1
2.997636036E0	2.455434501E-1	-3.025351167E-1	4.016047120E-1
3.000464960E0	3.025351167E-1	-2.183792144E-1	4.063983858E-1
3.002222113E0	3.882888854E-1	-7.882957160E-2	4.085289240E-1
3.004505999E0	4.175836742E-1	-2.716424316E-2	4.048005044E-1
3.005886344E0	4.703142643E-1	7.030745596E-2	4.042678475E-1
3.008563845E0	5.422195792E-1	2.183792144E-1	4.005394280E-1
3.009902036E0	5.906891227E-1	3.195793331E-1	3.957457542E-1
3.012612767E0	6.317018270E-1	4.223773479E-1	3.866910040E-1
3.013924228E0	6.743124127E-1	5.251753926E-1	3.787015080E-1
3.016781652E0	7.089334726E-1	6.274407506E-1	3.579288721E-1
3.018403882E0	7.382282615E-1	7.227819562E-1	3.403519988E-1
3.020830422E0	7.632619739E-1	8.149272799E-1	3.174487948E-1
3.022023151E0	7.829693556E-1	9.028116465E-1	2.881540358E-1
3.024887537E0	7.989483476E-1	9.901633263E-1	2.487392575E-1
3.026621959E0	8.143946528E-1	1.068460226E0	1.906823367E-1
3.028923306E0	8.223841786E-1	1.131310821E0	1.416801661E-1
3.030186844E0	8.325041533E-1	1.189900398E0	1.012001261E-1
3.032980498E0	8.442220688E-1	1.244761467E0	6.657902896E-2
3.034669344E0	8.559399843E-1	1.292698383E0	3.089267015E-2
3.037006845E0	8.655273914E-1	1.340635300E0	0.000000000E0
3.038230575E0	8.740494847E-1	1.385376453E0	-2.450108156E-2
3.041064652E0	8.905611038E-1	1.416269064E0	-4.953479767E-2
3.042806305E0	9.054747820E-1	1.435443878E0	-7.723167539E-2
3.045146191E0	9.193232059E-1	1.449824929E0	-1.081243455E-1
3.046330536E0	9.390306473E-1	1.455683827E0	-1.427454352E-1
3.049203960E0	9.534116983E-1	1.456749201E0	-1.842907518E-1
3.050503998E0	9.741843343E-1	1.458879709E0	-2.237055302E-1
3.053062498E0	9.928264618E-1	1.449292302E0	-2.577939928E-1
3.054584844E0	1.007740140E0	1.439172268E0	-3.025351167E-1
3.057420652E0	1.014664412E0	1.415203810E0	-3.707120419E-1
3.059026536E0	1.021055937E0	1.358212233E0	-4.671184719E-1
3.061455460E0	1.020523310E0	1.339570045E0	-4.921521842E-1
3.062679536E0	1.027447581E0	1.308144808E0	-5.299690962E-1
3.065513114E0	1.026914954E0	1.272458434E0	-5.576659441E-1
3.067117536E0	1.027447581E0	1.218129873E0	-5.938849449E-1
3.069564614E0	1.025317073E0	1.185106754E0	-6.119944453E-1
3.070757190E0	1.024784446E0	1.147822499E0	-6.359629035E-1
3.073621691E0	1.017860174E0	1.097222447E0	-6.631271243E-1
3.075264305E0	1.009338021E0	1.055677056E0	-6.838997602E-1
3.077652768E0	1.005077004E0	1.010936022E0	-7.004113793E-1
3.078838113E0	9.965549111E-1	9.704559445E-1	-7.163903713E-1
3.081709844E0	9.843043685E-1	9.337043166E-1	-7.302387953E-1
3.083436459E0	9.752495885E-1	8.948221207E-1	-7.462177277E-1
3.085776229E0	9.635316730E-1	8.564726114E-1	-7.595335841E-1
3.087293113E0	9.422264099E-1	8.207862377E-1	-7.829693556E-1
3.089833998E0	9.273127317E-1	7.978830934E-1	-7.978830934E-1
3.091236536E0	9.129316211E-1	7.877630591E-1	-8.069378138E-1
3.093814151E0	8.964200616E-1	7.829693556E-1	-8.143946528E-1
3.095200151E0	8.788431883E-1	7.866978049E-1	-8.229168057E-1
3.098066037E0	8.612663150E-1	7.952198982E-1	-8.293083906E-1
3.099754190E0	8.410263062E-1	8.111988902E-1	-8.335694075E-1
3.102099229E0	8.122641444E-1	8.255799413E-1	-8.335694075E-1
3.103386959E0	7.760451436E-1	8.415589333E-1	-8.399610519E-1
3.106156537E0	7.360977530E-1	8.554073572E-1	-8.793758154E-1
3.107736344E0	6.844323874E-1	8.564726114E-1	-8.926916122E-1
3.110193960E0	6.423544884E-1	8.644620776E-1	-8.863000274E-1
3.111515998E0	5.949501991E-1	8.740494847E-1	-8.617989421E-1
3.114250960E0	5.550028086E-1	8.820389509E-1	-8.303736448E-1
3.115826382E0	4.910869002E-1	8.772453070E-1	-7.691209316E-1
3.118286075E0	4.703142643E-1	8.729842305E-1	-7.467503548E-1
3.119476728E0	4.319647253E-1	8.602010608E-1	-6.913566589E-1
3.122343998E0	3.914846778E-1	8.410263062E-1	-6.327670813E-1
3.124054074E0	3.296993375E-1	7.835019827E-1	-5.241101384E-1
3.126387267E0	3.073287904E-1	7.552725077E-1	-4.836300611E-1
3.127645382E0	2.535329461E-1	6.870955825E-1	-3.984089196E-1
3.130444767E0	1.997370869E-1	6.077333689E-1	-3.020024598E-1
3.131765536E0	1.059938148E-1	4.767058492E-1	-1.587243974E-1
3.134457151E0	4.793690145E-2	3.882888854E-1	-6.870955974E-2
3.135837921E0	-5.326322280E-4	3.083940744E-1	5.858954508E-3
3.138662421E0	-4.687163606E-2	2.343581766E-1	6.072007492E-2
3.140275921E0	-8.575379103E-2	1.763012707E-1	9.960222989E-2
3.142711690E0	-1.193096191E-1	1.278317273E-1	1.209075153E-1
3.143880844E0	-1.528654546E-1	9.321063757E-2	1.294296384E-1
3.146769613E0	-1.837581247E-1	6.391586363E-2	1.278317273E-1
3.148353036E0	-2.215750068E-1	4.474110901E-2	1.267664731E-1
3.150805998E0	-2.636529505E-1	3.888215125E-2	1.155811921E-1
3.152014151E0	-3.051982522E-1	3.462109342E-2	1.038632840E-1
3.154863498E0	-3.462109566E-1	2.929477207E-2	9.267801046E-2
3.156450382E0	-3.893541694E-1	2.396845073E-2	8.309062570E-2
3.158930998E0	-4.404868484E-1	2.556634694E-2	7.669904083E-2
3.160218536E0	-4.889563918E-1	3.142530099E-2	7.563377917E-2
3.162988959E0	-5.384911895E-1	3.621899337E-2	7.403588295E-2
3.164741344E0	-5.906891227E-1	4.101268202E-2	7.829693705E-2
3.167071036E0	-6.450176239E-1	4.527373984E-2	8.362326026E-2
3.168466459E0	-7.004113793E-1	4.420847446E-2	9.427590668E-2
3.171129690E0	-7.520766854E-1	4.101268202E-2	1.059938148E-1
3.172511267E0	-8.053399324E-1	2.663161233E-2	1.214401498E-1
3.175047728E0	-8.554073572E-1	1.012001187E-2	1.368864775E-1
3.176490767E0	-9.038769007E-1	-2.183792181E-2	1.560612470E-1
3.179349306E0	-9.470201135E-1	-6.072007492E-2	1.731054783E-1
3.180922613E0	-1.003479123E0	-1.352885813E-1	2.018676102E-1
3.183383921E0	-1.018392801E0	-1.661812514E-1	2.130528986E-1
3.184554882E0	-1.045024395E0	-2.359560728E-1	2.338255495E-1
3.187441729E0	-1.069525480E0	-3.137203753E-1	2.556634545E-1
3.189078536E0	-1.100950837E0	-4.442152679E-1	2.897519469E-1
3.191494806E0	-1.111070871E0	-4.889563918E-1	2.988066673E-1
3.192759998E0	-1.129712939E0	-5.842975378E-1	3.249056637E-1
3.195552382E0	-1.157942414E0	-7.259777188E-1	3.605920076E-1
3.197124382E0	-1.177649856E0	-8.207862377E-1	3.829625845E-1
3.199579921E0	-1.195226669E0	-9.076052904E-1	4.010720551E-1
3.200901498E0	-1.216531992E0	-9.890980721E-1	4.234426320E-1
3.203637998E0	-1.234641552E0	-1.062068701E0	4.436826408E-1
3.205333844E0	-1.251685739E0	-1.122788787E0	4.612595141E-1
3.207695652E0	-1.270860553E0	-1.181910872E0	4.777711034E-1
3.208914344E0	-1.291100502E0	-1.236239433E0	4.878911078E-1
3.211752805E0	-1.303883672E0	-1.284176350E0	4.980111420E-1
3.213140959E0	-1.325721622E0	-1.328917384E0	5.038700700E-1
3.215728574E0	-1.348624825E0	-1.369930148E0	5.049353242E-1
3.217113921E0	-1.363005877E0	-1.414671183E0	5.044026971E-1
3.219984767E0	-1.382713318E0	-1.455683827E0	5.017395616E-1
3.221556805E0	-1.400822759E0	-1.492435455E0	4.953479767E-1
3.224020421E0	-1.419464946E0	-1.533448219E0	4.862932265E-1
3.225211344E0	-1.434911251E0	-1.568069220E0	4.665858448E-1
3.228078036E0	-1.451955438E0	-1.613875628E0	4.426173866E-1
3.229665382E0	-1.463140726E0	-1.651692510E0	4.122573435E-1
3.232113498E0	-1.472195506E0	-1.679922104E0	3.696467578E-1
3.233307421E0	-1.479119658E0	-1.700162053E0	3.286340833E-1
3.236171267E0	-1.478054404E0	-1.704423189E0	2.753708661E-1
3.237794497E0	-1.467401743E0	-1.682585239E0	1.890844405E-1
3.240214344E0	-1.464205980E0	-1.668736815E0	1.555286050E-1
3.241412728E0	-1.456216455E0	-1.633050442E0	8.255799860E-2
3.244271921E0	-1.446629167E0	-1.596831441E0	5.326322280E-3
3.245977536E0	-1.377919555E0	-1.545166135E0	-2.087918371E-1
3.248314728E0	-1.342233181E0	-1.527589202E0	-2.918824553E-1
3.249540574E0	-1.283643723E0	-1.496163964E0	-4.303668439E-1
3.252372344E0	-1.234641552E0	-1.470597625E0	-5.534048676E-1
3.253686267E0	-1.189900398E0	-1.454618573E0	-6.593986750E-1
3.256304151E0	-1.133441329E0	-1.454618573E0	-7.755125165E-1
3.257759267E0	-1.099885583E0	-1.465803862E0	-8.314388990E-1
3.260590113E0	-1.072188616E0	-1.475923896E0	-8.655273914E-1
3.262195421E0	-1.043959141E0	-1.479119658E0	-8.847021461E-1
3.264639074E0	-1.014131784E0	-1.470597625E0	-8.815063238E-1
3.265937421E0	-9.827064872E-1	-1.451955438E0	-8.649947643E-1
3.268696844E0	-9.459548593E-1	-1.425323844E0	-8.319715261E-1
3.270290344E0	-9.017463326E-1	-1.385376453E0	-7.898935676E-1
3.272733998E0	-8.500810266E-1	-1.320927978E0	-7.440872192E-1
3.273987459E0	-7.872304320E-1	-1.241565704E0	-6.870955825E-1
3.276791228E0	-7.211840153E-1	-1.145159245E0	-6.348975897E-1
3.278394344E0	-6.487460732E-1	-1.031708598E0	-5.837649107E-1
3.280846728E0	-5.693838596E-1	-9.097358584E-1	-5.320996046E-1
3.282041728E0	-4.884237647E-1	-7.792409658E-1	-4.745753109E-1
3.284903382E0	-4.090615511E-1	-6.407565475E-1	-4.218447208E-1
3.286567805E0	-3.323625028E-1	-5.102616549E-1	-3.749730885E-1
3.288984228E0	-2.641855776E-1	-3.920173049E-1	-3.318298757E-1
3.290161036E0	-1.992044598E-1	-2.908172011E-1	-2.849582434E-1
3.293040805E0	-1.384843737E-1	-1.981391907E-1	-2.407497615E-1
3.294530267E0	-8.468852192E-2	-1.209075153E-1	-1.986718178E-1
3.297105344E0	-3.888215125E-2	-5.539375171E-2	-1.512675583E-1
3.298435344E0	5.326322280E-4	-7.456851192E-3	-1.049285457E-1
3.301256805E0	3.888215125E-2	3.462109342E-2	-6.338323653E-2
3.302880382E0	8.841694891E-2	6.817692518E-2	-6.924218964E-3
3.305289267E0	1.038632840E-1	7.297061384E-2	9.587380104E-3
3.306579728E0	1.363538504E-1	7.936219871E-2	3.888215125E-2
3.309346305E0	1.672465205E-1	8.415589482E-2	6.072007492E-2
3.311059459E0	2.231729031E-1	8.948221803E-2	7.669904083E-2
3.313397574E0	2.418150306E-1	9.640643001E-2	7.616640627E-2
3.314594074E0	2.849582434E-1	1.017327532E-1	7.350324839E-2
3.317454420E0	3.217098713E-1	1.017327532E-1	6.870955974E-2
3.319061844E0	3.765709996E-1	9.054747969E-2	6.977482140E-2
3.321486959E0	3.962783813E-1	8.309062570E-2	7.456851006E-2
3.322750613E0	4.261057973E-1	7.030745596E-2	9.587380290E-2
3.325543959E0	4.665858448E-1	4.740426689E-2	1.438107044E-1
3.327308305E0	4.857605994E-1	3.089267015E-2	1.917476058E-1
3.329612382E0	4.974785149E-1	8.522115648E-3	2.428802997E-1
3.331000651E0	5.070658922E-1	-4.740426689E-2	2.924150825E-1
3.333669959E0	4.857605994E-1	-2.263686955E-1	3.440804183E-1
3.335011882E0	4.538026452E-1	-4.676510990E-1	3.936152160E-1
3.337607690E0	4.564658105E-1	-6.130596995E-1	4.388889670E-1
3.339240536E0	4.708468914E-1	-6.540724039E-1	4.719121456E-1
3.341900651E0	4.862932265E-1	-6.423544884E-1	4.916195571E-1
3.343491651E0	4.900216460E-1	-6.173207760E-1	5.017395616E-1
3.345934920E0	4.873584807E-1	-6.024070382E-1	5.022721887E-1
3.347336344E0	4.719121456E-1	-6.162554622E-1	5.075985193E-1
3.349991766E0	4.447479248E-1	-6.599313021E-1	5.102616549E-1
3.351730805E0	4.053331316E-1	-7.313040495E-1	5.102616549E-1
3.354027843E0	3.627225459E-1	-8.250473142E-1	5.097290277E-1
3.355267228E0	3.201119602E-1	-9.257147908E-1	5.049353242E-1
3.358084497E0	2.838929892E-1	-1.003479123E0	4.953479767E-1
3.359737690E0	2.519350350E-1	-1.048752904E0	4.852279723E-1
3.362126036E0	2.242381722E-1	-1.071655989E0	4.729774296E-1
3.363429228E0	1.997370869E-1	-1.079112887E0	4.607268870E-1
3.366182613E0	1.715075821E-1	-1.079645514E0	4.463458061E-1
3.367891074E0	1.326254308E-1	-1.075384498E0	4.181163013E-1
3.370226497E0	1.166464612E-1	-1.078047633E0	4.079962969E-1
3.371483382E0	8.628641814E-2	-1.085504532E0	3.909520507E-1
3.374283305E0	5.432848632E-2	-1.100950837E0	3.765709996E-1
3.375741382E0	1.864212751E-2	-1.112668753E0	3.648530841E-1
3.378185574E0	-1.384843793E-2	-1.126517177E0	3.526025414E-1
3.379777574E0	-4.793690145E-2	-1.137169838E0	3.467435837E-1
3.382499766E0	-9.800432622E-2	-1.151018262E0	3.451456726E-1
3.384190305E0	-1.257012039E-1	-1.154214025E0	3.488741219E-1
3.386546843E0	-1.539307088E-1	-1.161138296E0	3.616572917E-1
3.387766036E0	-1.794970632E-1	-1.163268805E0	3.744404614E-1
3.390604228E0	-2.034655064E-1	-1.159007788E0	3.866910040E-1
3.392222074E0	-2.194444835E-1	-1.154214025E0	4.032025933E-1
3.394640036E0	-2.375539690E-1	-1.138235092E0	4.213120937E-1
3.395843459E0	-2.519350350E-1	-1.124919295E0	4.372910559E-1
3.398697882E0	-2.679139972E-1	-1.114266634E0	4.479437172E-1
3.400346920E0	-2.860234976E-1	-1.103613973E0	4.522047639E-1
3.402737035E0	-2.993393242E-1	-1.095091820E0	4.575310946E-1
3.403951882E0	-3.163835406E-1	-1.086037159E0	4.601942301E-1
3.406795074E0	-3.328951299E-1	-1.080710769E0	4.591289759E-1
3.408561805E0	-3.462109566E-1	-1.073253989E0	4.623247683E-1
3.410876728E0	-3.584614992E-1	-1.066862345E0	4.697816372E-1
3.412132305E0	-3.664509654E-1	-1.059405446E0	4.735100567E-1
3.414933843E0	-3.755057156E-1	-1.047154903E0	4.783037305E-1
3.416296844E0	-3.802994192E-1	-1.035437107E0	4.841626883E-1
3.418844844E0	-3.813646734E-1	-1.022121191E0	4.857605994E-1
3.420320574E0	-3.877562582E-1	-1.010403395E0	4.777711034E-1
3.423152458E0	-3.882888854E-1	-1.002946496E0	4.671184719E-1
3.424771151E0	-3.904194236E-1	-9.976201653E-1	4.479437172E-1
3.427186651E0	-3.925499618E-1	-9.954896569E-1	4.250405133E-1
3.428436767E0	-3.936152160E-1	-9.928264618E-1	3.973436356E-1
3.431244074E0	-3.936152160E-1	-9.880327582E-1	3.685815036E-1
3.433053613E0	-3.936152160E-1	-9.789780378E-1	3.238403797E-1
3.435295805E0	-3.941478431E-1	-9.779127836E-1	3.099919558E-1
3.436511113E0	-3.973436356E-1	-9.683253765E-1	2.780340314E-1
3.439353112E0	-4.000068009E-1	-9.582054019E-1	2.519350350E-1
3.441192228E0	-4.010720551E-1	-9.358348250E-1	2.151834220E-1
3.443391535E0	-4.021373391E-1	-9.278453588E-1	2.029328793E-1
3.444889420E0	-4.026699662E-1	-9.092032313E-1	1.816275865E-1
3.447448689E0	-4.037352204E-1	-8.831042051E-1	1.592570394E-1
3.449168574E0	-4.048005044E-1	-8.367652297E-1	1.283643693E-1
3.451527151E0	-4.010720551E-1	-7.978830934E-1	1.049285457E-1
3.452775843E0	-3.946804702E-1	-7.531419992E-1	7.989483327E-2
3.455585112E0	-3.861583769E-1	-7.030745149E-1	5.219795927E-2
3.457098113E0	-3.749730885E-1	-6.498113275E-1	2.290318534E-2
3.459725497E0	-3.600593805E-1	-5.944175720E-1	-2.663161140E-3
3.461031113E0	-3.467435837E-1	-5.363606811E-1	-3.568635881E-2
3.463818228E0	-3.302319944E-1	-4.809668958E-1	-6.764429063E-2
3.465417497E0	-3.121224940E-1	-4.266384244E-1	-9.640643001E-2
3.467853151E0	-2.934803665E-1	-3.717772961E-1	-1.187769845E-1
3.469105613E0	-2.732403278E-1	-3.227751255E-1	-1.411475390E-1
3.471910497E0	-2.540655732E-1	-2.748382390E-1	-1.576591432E-1
3.473515536E0	-2.343581766E-1	-2.279665917E-1	-1.677791476E-1
3.475945997E0	-2.130528986E-1	-1.885518134E-1	-1.736381054E-1
3.477147113E0	-1.928128600E-1	-1.592570394E-1	-1.768338978E-1
3.480003151E0	-1.736381054E-1	-1.390170157E-1	-1.768338978E-1
3.481665190E0	-1.624528319E-1	-1.363538504E-1	-1.720402092E-1
3.484028881E0	-1.549959779E-1	-1.581917703E-1	-1.661812514E-1
3.485219997E0	-1.533980817E-1	-2.103897333E-1	-1.587243974E-1
3.488086689E0	-1.555286050E-1	-2.822950780E-1	-1.512675583E-1
3.489818113E0	-1.475391239E-1	-3.834952116E-1	-1.342233270E-1
3.492126651E0	-1.400822699E-1	-4.053331316E-1	-1.288969964E-1
3.493369190E0	-1.113201380E-1	-4.223773479E-1	-1.113201380E-1
3.496184266E0	-7.989483327E-2	-4.202468395E-1	-9.321063757E-2
3.497672074E0	-4.740426689E-2	-4.170510471E-1	-8.575379103E-2
3.500308497E0	-2.343581803E-2	-4.266384244E-1	-7.882957160E-2
3.501749074E0	-5.326322280E-3	-4.516721368E-1	-8.362326026E-2
3.504400920E0	2.130528912E-3	-4.916195571E-1	-9.214537591E-2
3.506037805E0	-2.130528912E-3	-5.704491138E-1	-1.097222418E-1
3.508450766E0	-6.391586736E-3	-5.981460214E-1	-1.182443574E-1
3.509955613E0	-1.491370238E-2	-6.583334208E-1	-1.368864775E-1
3.512508227E0	-2.929477207E-2	-7.313040495E-1	-1.672465205E-1
3.514051497E0	-3.994741663E-2	-7.733820081E-1	-1.880191714E-1
3.516543650E0	-4.900216311E-2	-8.085356951E-1	-2.029328793E-1
3.517749190E0	-6.817692518E-2	-8.431568146E-1	-2.130528986E-1
3.520600881E0	-8.149272949E-2	-8.756473660E-1	-2.221076339E-1
3.522224767E0	-9.906959534E-2	-9.097358584E-1	-2.300971150E-1
3.524638227E0	-1.203748807E-1	-9.411611557E-1	-2.354234457E-1
3.525854151E0	-1.406149119E-1	-9.763149023E-1	-2.354234457E-1
3.528695458E0	-1.747033745E-1	-1.016794920E0	-2.380866110E-1
3.530465574E0	-2.119876295E-1	-1.071655989E0	-2.311623842E-1
3.532776497E0	-2.503371537E-1	-1.120658159E0	-2.253034264E-1
3.533977459E0	-2.876214087E-1	-1.153681397E0	-2.210423797E-1
3.536833766E0	-3.094593287E-1	-1.171258211E0	-2.162486911E-1
3.538140228E0	-3.339604139E-1	-1.180312991E0	-2.162486911E-1
3.540732190E0	-3.531351686E-1	-1.185106754E0	-2.135855258E-1
3.542190805E0	-3.717772961E-1	-1.189900398E0	-2.146507949E-1
3.545051804E0	-3.920173049E-1	-1.192030907E0	-2.141181529E-1
3.546672613E0	-4.079962969E-1	-1.195226669E0	-2.130528986E-1
3.549086112E0	-4.239752591E-1	-1.196824670E0	-2.130528986E-1
3.550313651E0	-4.351605177E-1	-1.196292043E0	-2.066612989E-1
3.553143573E0	-4.420847595E-1	-1.189900398E0	-2.008023560E-1
3.554736613E0	-4.351605177E-1	-1.168062449E0	-1.928128600E-1
3.557196458E0	-4.245078862E-1	-1.134506702E0	-1.832254827E-1
3.558387113E0	-4.117247164E-1	-1.100418210E0	-1.699096859E-1
3.561253766E0	-4.000068009E-1	-1.066862345E0	-1.565938741E-1
3.562891228E0	-3.893541694E-1	-1.036502361E0	-1.310275346E-1
3.565293381E0	-3.925499618E-1	-1.035969734E0	-1.241033077E-1
3.566528536E0	-4.234426320E-1	-1.077515006E0	-1.219727769E-1
3.569349650E0	-4.554005563E-1	-1.136637211E0	-1.310275346E-1
3.571058728E0	-4.639226794E-1	-1.133973956E0	-1.134506613E-1
3.573416727E0	-4.655205607E-1	-1.125451922E0	-1.038632840E-1
3.574671805E0	-4.612595141E-1	-1.114799261E0	-7.456851006E-2
3.577473304E0	-4.687163532E-1	-1.122788787E0	-5.539375171E-2
3.578856728E0	-4.751079381E-1	-1.138767719E0	-4.953479767E-2
3.581500305E0	-4.783037305E-1	-1.154746652E0	-6.018744037E-2
3.583328959E0	-4.729774296E-1	-1.161670923E0	-6.551376730E-2
3.585704766E0	-4.692489803E-1	-1.163801432E0	-8.202536404E-2
3.587298536E0	-4.591289759E-1	-1.162736177E0	-1.113201380E-1
3.589737458E0	-4.548679292E-1	-1.162736177E0	-1.379517466E-1
3.590935036E0	-4.452805519E-1	-1.160605669E0	-1.693770438E-1
3.593793958E0	-4.415521026E-1	-1.171258211E0	-1.976065636E-1
3.595355728E0	-4.324973822E-1	-1.163268805E0	-2.279665917E-1
3.597829458E0	-4.234426320E-1	-1.146224499E0	-2.487392575E-1
3.599055305E0	-4.170510471E-1	-1.131843448E0	-2.588592768E-1
3.601885689E0	-4.090615511E-1	-1.121190786E0	-2.625876963E-1
3.603521343E0	-4.063983858E-1	-1.119592905E0	-2.689792812E-1
3.605937073E0	-4.074636400E-1	-1.120658159E0	-2.732403278E-1
3.607142036E0	-4.063983858E-1	-1.126517177E0	-2.679139972E-1
3.609994189E0	-4.058657587E-1	-1.129712939E0	-2.631203234E-1
3.611850690E0	-4.016047120E-1	-1.128647685E0	-2.535329461E-1
3.614050881E0	-3.973436356E-1	-1.117995024E0	-2.455434501E-1
3.615279690E0	-3.909520507E-1	-1.106277108E0	-2.338255495E-1
3.618108573E0	-3.808320463E-1	-1.089232922E0	-2.221076339E-1
3.619825728E0	-3.685815036E-1	-1.066862345E0	-2.109223604E-1
3.621927690E0	-3.584614992E-1	-1.039165497E0	-2.008023560E-1
3.623466728E0	-3.451456726E-1	-1.007207513E0	-1.896170676E-1
3.626325765E0	-3.328951299E-1	-9.725864530E-1	-1.800296903E-1
3.627888036E0	-3.062635362E-1	-9.038769007E-1	-1.741707325E-1
3.630375958E0	-2.966761589E-1	-8.761799932E-1	-1.725728363E-1
3.631689651E0	-2.753708661E-1	-8.234494328E-1	-1.683117896E-1
3.634433035E0	-2.551308274E-1	-7.664577961E-1	-1.715075821E-1
3.636001190E0	-2.157160491E-1	-6.721818447E-1	-1.826928556E-1
3.638468881E0	-2.024002522E-1	-6.407565475E-1	-1.885518134E-1
3.639679843E0	-1.773665249E-1	-5.725796223E-1	-2.013349831E-1
3.642525688E0	-1.310275346E-1	-4.692489803E-1	-2.221076339E-1
3.644137151E0	-1.022653878E-1	-3.962783813E-1	-2.375539690E-1
3.646559535E0	-7.350324839E-2	-3.307646215E-1	-2.514024079E-1
3.647755420E0	-4.261057824E-2	-2.625876963E-1	-2.545982003E-1
3.650616881E0	-1.065264456E-2	-2.018676102E-1	-2.492718846E-1
3.652358536E0	1.651159860E-2	-1.480717659E-1	-2.322276533E-1
3.654697765E0	4.314320907E-2	-1.054611802E-1	-2.050634027E-1
3.655901266E0	6.817692518E-2	-6.817692518E-2	-1.768338978E-1
3.658754842E0	9.054747969E-2	-3.462109342E-2	-1.379517466E-1
3.660245382E0	1.129180342E-1	5.326322280E-4	-1.038632840E-1
3.662726036E0	1.342233270E-1	3.195793182E-2	-7.190535218E-2
3.664213074E0	1.544633508E-1	6.018744037E-2	-3.781688958E-2
3.666972650E0	1.704423130E-1	8.415589482E-2	-1.171790902E-2
3.668539536E0	1.853560209E-1	1.038632840E-1	1.704423130E-2
3.671006804E0	2.008023560E-1	1.166464612E-1	4.154531285E-2
3.672220189E0	2.114549875E-1	1.288969964E-1	6.338323653E-2
3.675064842E0	2.221076339E-1	1.427454352E-1	8.149272949E-2
3.676659266E0	2.364887148E-1	1.587243974E-1	9.214537591E-2
3.679116919E0	2.476739883E-1	1.773665249E-1	1.065264493E-1
3.680352959E0	2.604571581E-1	1.986718178E-1	1.129180342E-1
3.683174265E0	2.727077007E-1	2.194444835E-1	1.155811921E-1
3.684873805E0	3.073287904E-1	2.828277051E-1	1.155811921E-1
3.687213111E0	3.174487948E-1	3.014698327E-1	1.166464612E-1
3.688480420E0	3.344930410E-1	3.355582952E-1	1.150485575E-1
3.691270650E0	3.563309610E-1	3.717772961E-1	1.102548689E-1
3.693143305E0	3.920173049E-1	4.255731404E-1	9.747169912E-2
3.695348457E0	4.032025933E-1	4.463458061E-1	9.054747969E-2
3.696685036E0	4.293015897E-1	4.868258536E-1	8.415589482E-2
3.699405457E0	4.617921412E-1	5.214469433E-1	7.297061384E-2
3.700741305E0	5.107942820E-1	5.725796223E-1	4.953479767E-2
3.703304613E0	5.395564437E-1	5.986786485E-1	3.462109342E-2
3.704774728E0	5.688512325E-1	6.210491657E-1	2.130528912E-2
3.707635496E0	5.933523178E-1	6.391586661E-1	9.054748341E-3
3.709216074E0	6.205165386E-1	6.530070901E-1	3.728425596E-3
3.711669573E0	6.418218613E-1	6.604639888E-1	3.728425596E-3
3.712954882E0	6.546050310E-1	6.578007936E-1	1.225054078E-2
3.715725880E0	6.641923785E-1	6.423544884E-1	2.237055451E-2
3.717333574E0	6.647250056E-1	6.210491657E-1	3.408846259E-2
3.719759957E0	6.652576327E-1	5.960154533E-1	4.154531285E-2
3.720962882E0	6.562029123E-1	5.608617067E-1	4.900216311E-2
3.723815880E0	6.487460732E-1	5.294364095E-1	5.326322466E-2
3.725456613E0	6.338323355E-1	4.974785149E-1	5.273059011E-2
3.727871380E0	6.205165386E-1	4.697816372E-1	4.900216311E-2
3.729096189E0	6.008091569E-1	4.452805519E-1	4.367584363E-2
3.731927957E0	5.805691481E-1	4.239752591E-1	3.994741663E-2
3.733631497E0	5.566006899E-1	4.058657587E-1	3.462109342E-2
3.735968996E0	5.289037824E-1	3.898867965E-1	2.822950855E-2
3.737184305E0	5.001416802E-1	3.755057156E-1	2.396845073E-2
3.740025611E0	4.692489803E-1	3.696467578E-1	1.597896591E-2
3.741343882E0	4.388889670E-1	3.627225459E-1	1.012001187E-2
3.744008113E0	4.037352204E-1	3.542004228E-1	3.728425596E-3
3.745480074E0	3.680488765E-1	3.398193717E-1	-2.663161140E-3
3.748241111E0	3.307646215E-1	3.259709179E-1	-1.065264456E-2
3.749934651E0	2.753708661E-1	2.998719513E-1	-2.237055451E-2
3.752290150E0	2.561961114E-1	2.902845740E-1	-2.290318534E-2
3.753528613E0	2.210423797E-1	2.727077007E-1	-3.036003746E-2
3.756347650E0	1.826928556E-1	2.561961114E-1	-2.929477207E-2
3.757982113E0	1.272991002E-1	2.300971150E-1	-3.089267015E-2
3.760383457E0	1.113201380E-1	2.226402760E-1	-3.142530099E-2
3.761675420E0	7.669904083E-2	2.098570913E-1	-3.142530099E-2
3.764440611E0	4.793690145E-2	2.034655064E-1	-3.249056637E-2
3.766118497E0	5.326322280E-3	1.901497096E-1	-2.609897964E-2
3.768477226E0	-2.450108156E-2	1.832254827E-1	-2.343581803E-2
3.769713997E0	-4.900216311E-2	1.741707325E-1	-1.384843793E-2
3.772535073E0	-7.084008306E-2	1.635181010E-1	-9.587380104E-3
3.774256843E0	-9.534116834E-2	1.512675583E-1	-1.597896684E-3
3.776617803E0	-1.139832959E-1	1.379517466E-1	4.793690052E-3
3.777844574E0	-1.315601617E-1	1.150485575E-1	1.331580617E-2
3.780675265E0	-1.496696621E-1	9.267801046E-2	2.556634694E-2
3.782176689E0	-1.629854590E-1	6.711166352E-2	3.408846259E-2
3.784584420E0	-1.784317940E-1	3.994741663E-2	4.314320907E-2
3.786088843E0	-1.874865443E-1	9.054748341E-3	5.273059011E-2
3.788894149E0	-1.954760253E-1	-1.810949668E-2	6.072007492E-2
3.790550036E0	-1.997370869E-1	-4.793690145E-2	7.137271762E-2
3.792928957E0	-2.034655064E-1	-7.510114461E-2	7.669904083E-2
3.794155574E0	-2.018676102E-1	-1.017327532E-1	7.882957160E-2
3.796985919E0	-2.013349831E-1	-1.251685768E-1	8.415589482E-2
3.798588805E0	-1.954760253E-1	-1.395496428E-1	8.149272949E-2
3.801037034E0	-1.885518134E-1	-1.576591432E-1	8.149272949E-2
3.802370920E0	-1.794970632E-1	-1.683117896E-1	8.255799860E-2
3.805095419E0	-1.693770438E-1	-1.821602285E-1	8.415589482E-2
3.806707382E0	-1.576591432E-1	-1.917476058E-1	8.309062570E-2
3.809139457E0	-1.470064968E-1	-1.986718178E-1	8.042746782E-2
3.810407920E0	-1.304948926E-1	-2.029328793E-1	7.776430249E-2
3.813197495E0	-1.235706806E-1	-2.125202566E-1	7.297061384E-2
3.814961997E0	-1.161138266E-1	-2.402171344E-1	5.432848632E-2
3.817265188E0	-1.150485575E-1	-2.487392575E-1	4.793690145E-2
3.818466920E0	-1.113201380E-1	-2.668487430E-1	3.781688958E-2
3.821323149E0	-1.139832959E-1	-2.897519469E-1	2.450108156E-2
3.822753536E0	-1.225054115E-1	-3.179814517E-1	1.544633508E-2
3.825329651E0	-1.438107044E-1	-3.850930929E-1	6.924218964E-3
3.826792766E0	-1.672465205E-1	-4.447479248E-1	7.456851192E-3
3.829558226E0	-1.933455020E-1	-5.107942820E-1	1.491370238E-2
3.831201959E0	-2.205097377E-1	-5.699164867E-1	2.024002373E-2
3.833593149E0	-2.407497615E-1	-6.125270724E-1	2.822950855E-2
3.834812843E0	-2.487392575E-1	-6.285060048E-1	3.462109342E-2
3.837651534E0	-2.524676621E-1	-6.231797338E-1	4.048004746E-2
3.839219036E0	-2.476739883E-1	-6.125270724E-1	3.195793182E-2
3.841692611E0	-2.439455539E-1	-6.072007418E-1	1.970739290E-2
3.842976036E0	-2.418150306E-1	-6.072007418E-1	1.331580617E-2
3.845751688E0	-2.460760921E-1	-6.146575809E-1	6.924218964E-3
3.847392689E0	-2.524676621E-1	-6.231797338E-1	3.728425596E-3
3.849806341E0	-2.631203234E-1	-6.327670813E-1	1.065264456E-3
3.851049343E0	-2.775014043E-1	-6.354302764E-1	6.391586736E-3
3.853865072E0	-2.881540358E-1	-6.327670813E-1	1.384843793E-2
3.855934766E0	-3.057309091E-1	-6.269081235E-1	1.597896591E-2
3.857907457E0	-3.131877482E-1	-6.040049195E-1	1.438106969E-2
3.859304036E0	-3.158509135E-1	-5.709817410E-1	1.118527725E-2
3.861965803E0	-3.206445873E-1	-5.336974859E-1	3.195793368E-3
3.863393343E0	-3.233077526E-1	-4.974785149E-1	-7.989482954E-3
3.865882651E0	-3.259709179E-1	-4.633900523E-1	-2.556634694E-2
3.867430766E0	-3.318298757E-1	-4.362258017E-1	-4.793690145E-2
3.870185303E0	-3.371562064E-1	-4.117247164E-1	-7.084008306E-2
3.871773997E0	-3.446130455E-1	-3.808320463E-1	-1.177117229E-1
3.874235072E0	-3.472762108E-1	-3.701793849E-1	-1.320927888E-1
3.875425612E0	-3.494067490E-1	-3.542004228E-1	-1.672465205E-1
3.878292303E0	-3.499393761E-1	-3.408846259E-1	-2.061286718E-1
3.879928574E0	-3.520699143E-1	-3.446130455E-1	-2.631203234E-1
3.882329649E0	-3.531351686E-1	-3.472762108E-1	-2.822950780E-1
3.883704997E0	-3.520699143E-1	-3.573962152E-1	-3.126551211E-1
3.886387380E0	-3.504720032E-1	-3.659183383E-1	-3.387540877E-1
3.888015497E0	-3.499393761E-1	-3.856257200E-1	-3.653857112E-1
3.890426034E0	-3.494067490E-1	-3.920173049E-1	-3.755057156E-1
3.891668305E0	-3.435477912E-1	-3.984089196E-1	-3.845604658E-1
3.894483072E0	-3.339604139E-1	-4.005394280E-1	-3.898867965E-1
3.896191228E0	-3.318298757E-1	-4.074636400E-1	-3.840278387E-1
3.898564726E0	-3.249056637E-1	-4.133225977E-1	-3.712446690E-1
3.899934074E0	-3.185140789E-1	-4.170510471E-1	-3.573962152E-1
3.902621995E0	-3.126551211E-1	-4.143878818E-1	-3.302319944E-1
3.903949228E0	-3.062635362E-1	-4.143878818E-1	-2.988066673E-1
3.906638612E0	-3.009372056E-1	-4.095941782E-1	-2.609897852E-1
3.908010343E0	-2.924150825E-1	-4.010720551E-1	-2.178465873E-1
3.910839841E0	-2.876214087E-1	-3.866910040E-1	-1.741707325E-1
3.912430189E0	-2.796319127E-1	-3.685815036E-1	-1.326254308E-1
3.914876995E0	-2.748382390E-1	-3.520699143E-1	-9.534116834E-2
3.916087382E0	-2.668487430E-1	-3.302319944E-1	-5.539375171E-2
3.918934918E0	-2.604571581E-1	-3.083940744E-1	-2.609897964E-2
3.920684343E0	-2.551308274E-1	-2.881540358E-1	-1.597896684E-3
3.922987380E0	-2.492718846E-1	-2.673813701E-1	1.704423130E-2
3.924182343E0	-2.418150306E-1	-2.482066154E-1	2.024002373E-2
3.927045149E0	-2.375539690E-1	-2.322276533E-1	2.450108156E-2
3.928760228E0	-2.332929224E-1	-2.231729031E-1	1.917476021E-2
3.931083995E0	-2.322276533E-1	-2.173139453E-1	4.793690052E-3
3.932285228E0	-2.332929224E-1	-2.173139453E-1	-1.118527725E-2
3.935141764E0	-2.348908186E-1	-2.210423797E-1	-3.355583176E-2
3.936850959E0	-2.380866110E-1	-2.178465873E-1	-6.924218684E-2
3.939185610E0	-2.407497615E-1	-2.162486911E-1	-7.936219871E-2
3.940392843E0	-2.418150306E-1	-2.050634027E-1	-1.081243455E-1
3.943242687E0	-2.418150306E-1	-1.933455020E-1	-1.310275346E-1
3.944646882E0	-2.423476577E-1	-1.763012707E-1	-1.544633508E-1
3.947179266E0	-2.311623842E-1	-1.480717659E-1	-1.763012707E-1
3.948701305E0	-2.093244642E-1	-1.075917110E-1	-1.938781291E-1
3.951475149E0	-1.533980817E-1	1.544633508E-2	-1.858886480E-1
3.953141843E0	-1.001348570E-1	1.363538504E-1	-1.677791476E-1
3.955508072E0	-3.888215125E-2	2.737729549E-1	-1.384843737E-1
3.956926459E0	2.450108156E-2	4.138552547E-1	-1.102548689E-1
3.959564956E0	7.829693705E-2	5.384911895E-1	-9.480853379E-2
3.961184497E0	1.251685768E-1	6.343649626E-1	-9.534116834E-2
3.963601495E0	1.555286050E-1	7.004113793E-1	-1.129180342E-1
3.964852535E0	1.810949594E-1	7.440872192E-1	-1.400822699E-1
3.967658226E0	1.912149638E-1	7.771103978E-1	-1.784317940E-1
3.969296535E0	1.970739216E-1	8.048073053E-1	-2.189118415E-1
3.971683341E0	1.976065636E-1	8.245146871E-1	-2.695119083E-1
3.972894882E0	1.906823367E-1	8.394283652E-1	-3.190467060E-1
3.975741726E0	1.821602285E-1	8.495483994E-1	-3.643204570E-1
3.977538458E0	1.704423130E-1	8.591358066E-1	-4.079962969E-1
3.979783264E0	1.539307088E-1	8.735168576E-1	-4.426173866E-1
3.981262112E0	1.454086006E-1	8.990831971E-1	-4.687163532E-1
3.983839226E0	1.331580579E-1	9.257147908E-1	-4.830974340E-1
3.985137651E0	1.225054115E-1	9.555422068E-1	-4.857605994E-1
3.987751574E0	1.102548689E-1	9.800432920E-1	-4.767058492E-1
3.989186882E0	9.853696078E-2	1.004544377E0	-4.612595141E-1
3.992053802E0	8.255799860E-2	1.029045463E0	-4.378236830E-1
3.993639228E0	7.350324839E-2	1.053013921E0	-4.106594622E-1
3.996101379E0	5.965480953E-2	1.071123362E0	-3.840278387E-1
3.997302805E0	4.633900523E-2	1.087102413E0	-3.542004228E-1
4.000157341E0	3.515372798E-2	1.103613973E0	-3.281014562E-1
4.001754074E0	1.810949668E-2	1.115864515E0	-2.929477394E-1
4.004192149E0	1.384843793E-2	1.119060278E0	-2.812298238E-1
4.005394689E0	1.597896684E-3	1.112136126E0	-2.577939928E-1
4.008247572E0	-9.587380104E-3	1.103613973E0	-2.316950262E-1
4.009900728E0	-2.929477207E-2	1.074851871E0	-1.997370869E-1
4.012282341E0	-3.355583176E-2	1.063666582E0	-1.864212751E-1
4.013524651E0	-4.314320907E-2	1.032241225E0	-1.587243974E-1
4.016338572E0	-5.805691332E-2	9.917612076E-1	-1.272991002E-1
4.018050382E0	-7.403588295E-2	9.150621891E-1	-8.149272949E-2
4.020398841E0	-7.882957160E-2	8.926916122E-1	-6.924218684E-2
4.021612151E0	-8.415589482E-2	8.511462808E-1	-4.793690145E-2
4.024455764E0	-9.054747969E-2	8.000136018E-1	-2.024002373E-2
4.025755382E0	-9.374327213E-2	7.621967196E-1	-2.663161140E-3
4.028308074E0	-9.054747969E-2	7.243798375E-1	6.924218964E-3
4.029845420E0	-9.374327213E-2	6.961503029E-1	1.331580617E-2
4.032671572E0	-8.681905270E-2	6.652576327E-1	1.597896591E-2
4.034542958E0	-8.788431436E-2	6.348975897E-1	1.278317347E-2
4.036706648E0	-8.149272949E-2	5.992112756E-1	9.054748341E-3
4.037930228E0	-8.096009493E-2	5.661880374E-1	-5.326322280E-4
4.040763456E0	-7.510114461E-2	5.427522659E-1	-1.384843793E-2
4.042328382E0	-6.604639441E-2	5.219795704E-1	-2.609897964E-2
4.044816456E0	-5.805691332E-2	5.044026971E-1	-4.900216311E-2
4.046005958E0	-5.006742850E-2	4.974785149E-1	-7.350324839E-2
4.048874187E0	-3.568635881E-2	4.953479767E-1	-9.800432622E-2
4.050489420E0	-2.503371425E-2	4.884237647E-1	-1.107875034E-1
4.052913879E0	-1.065264456E-2	4.767058492E-1	-1.272991002E-1
4.054099574E0	6.391586736E-3	4.724447727E-1	-1.422128081E-1
4.056971610E0	2.503371425E-2	4.751079381E-1	-1.523328125E-1
4.058675920E0	4.154531285E-2	4.793690145E-1	-1.624528319E-1
