"Time (s)"	"Linear Acceleration x (m/s^2)"	"Linear Acceleration y (m/s^2)"	"Linear Acceleration z (m/s^2)"
1.780512500E-2	-1.817083359E-2	1.740837097E-2	7.449913025E-2
2.592274100E-2	1.133298874E-2	4.050803185E-2	3.054885864E-1
3.401947100E-2	-5.975246429E-3	1.284413338E-1	3.989257812E-1
4.215474100E-2	-2.659082413E-3	1.571614742E-1	2.661418915E-1
5.038835600E-2	3.188443184E-2	1.333432198E-1	8.127689362E-2
5.847970200E-2	3.915190697E-2	8.762812614E-2	1.616067886E-1
6.657377900E-2	1.179912090E-1	7.661581039E-2	4.256658554E-1
7.468627900E-2	2.044699192E-1	1.065330505E-1	5.454816818E-1
8.278416400E-2	3.203477859E-1	9.703516960E-2	5.808267593E-1
9.100197100E-2	3.716216087E-1	3.385281563E-2	5.112085342E-1
9.910927900E-2	5.328655243E-1	7.955837250E-2	3.856344223E-1
1.072040480E-1	6.957652569E-1	-3.222131729E-2	-1.304388046E-1
1.152944330E-1	8.037831187E-1	-2.399668694E-1	-2.988538742E-1
1.234332400E-1	8.156576753E-1	-3.295079470E-1	-2.548236847E-1
1.316512790E-1	8.487429619E-1	-3.315459490E-1	-4.693241119E-1
1.397442020E-1	9.565321207E-1	-4.228410721E-1	-6.167802811E-1
1.478523560E-1	1.077171087E0	-6.204768419E-1	-4.047145844E-1
1.559452020E-1	1.124199510E0	-6.887834072E-1	-1.660280228E-1
1.722996630E-1	1.042858481E0	-3.742314577E-1	-5.265693665E-1
1.803918940E-1	7.689229250E-1	-3.706026077E-1	-4.773855209E-1
1.884854710E-1	5.372516513E-1	-3.834606409E-1	-1.446180344E-1
1.965888940E-1	1.708965600E-1	-2.629380226E-1	5.959024429E-1
2.046868170E-1	-8.699178696E-2	-1.134971380E-1	1.438428879E0
2.129057780E-1	-3.221988082E-1	1.927772760E-1	1.972655296E0
2.210134710E-1	-4.650623202E-1	6.803637743E-1	1.930787086E0
2.291055860E-1	-4.941946268E-1	1.061590195E0	1.748705864E0
2.372231240E-1	-5.134906173E-1	1.315568566E0	1.203490257E0
2.453596630E-1	-4.548404217E-1	1.252292871E0	7.776813507E-1
2.535774320E-1	-2.328061461E-1	6.832299232E-1	5.638093948E-1
2.616680860E-1	-1.829555035E-1	2.279572487E-1	3.590965271E-1
2.697759320E-1	8.655154705E-2	9.494352341E-2	7.081890106E-2
2.778596630E-1	3.208503723E-1	-4.003529549E-1	-1.160268784E-1
2.859585090E-1	6.183377504E-1	-7.641571760E-1	3.271389008E-2
2.941882780E-1	7.698576450E-1	-8.295370340E-1	-1.019783020E-1
3.022776240E-1	1.060528755E0	-8.591459394E-1	-5.477657318E-1
3.103682780E-1	1.985137105E0	-8.451848626E-1	-8.763484955E-1
3.184684320E-1	1.862930775E0	-4.005423784E-1	-7.554759979E-1
3.265658550E-1	1.653533578E0	4.085958004E-2	-3.676490784E-1
3.347817010E-1	1.293122768E0	3.413745165E-1	1.291208267E-1
3.428874320E-1	1.023998976E0	6.115247011E-1	6.352977753E-1
3.509812780E-1	4.551264942E-1	9.033545256E-1	9.591856003E-1
3.590715090E-1	4.000959396E-1	1.105043530E0	1.057554245E0
3.671912010E-1	5.154919028E-1	1.225094199E0	9.881324768E-1
3.754091240E-1	5.485131145E-1	1.288545132E0	8.013057709E-1
3.834998930E-1	4.135747552E-1	1.220917940E0	4.564476013E-1
3.916071620E-1	3.462431431E-1	1.045281887E0	-8.949089050E-2
3.997018930E-1	5.603642464E-1	8.809595108E-1	-5.590324402E-1
4.078246240E-1	7.380912900E-1	6.870092154E-1	-8.785848618E-1
4.160571620E-1	1.011676788E0	3.349976540E-1	-9.580736160E-1
4.241464310E-1	1.327662945E0	-9.046673775E-3	-8.319969177E-1
4.322381240E-1	1.278793693E0	-1.788352728E-1	-5.284280777E-1
4.403411240E-1	1.271935105E0	-2.279806137E-2	-3.272933960E-1
4.484389310E-1	1.177080512E0	9.651565552E-2	-5.583858490E-2
4.566550080E-1	9.916405678E-1	5.126464367E-2	1.306638718E-1
4.647598160E-1	6.859872341E-1	1.425971985E-1	3.533430099E-1
4.728522390E-1	3.727718592E-1	4.080011845E-1	4.425868988E-1
4.809432770E-1	1.412689686E-1	3.711673021E-1	3.161077499E-1
4.972967770E-1	-2.771977186E-1	1.306726933E-1	1.556463242E-1
5.053860080E-1	-1.408432722E-1	1.360654831E-1	6.342029572E-2
5.134932770E-1	-6.888270378E-2	5.359566212E-2	7.373714447E-2
5.215821230E-1	2.773535252E-2	-6.036198139E-2	6.462669373E-2
5.297163160E-1	5.416965485E-2	-1.442953348E-1	-1.218910217E-1
5.379470850E-1	-2.272509336E-1	-1.527997255E-1	-1.801300049E-1
5.460387000E-1	-4.569638968E-1	1.011196375E-1	-1.103153229E-1
5.541323540E-1	-6.902703643E-1	2.458376884E-1	7.118701935E-2
5.622432390E-1	-9.826723933E-1	1.043010950E-1	3.152675629E-1
5.703407390E-1	-1.151814938E0	-3.169274330E-2	4.933576584E-1
5.785571230E-1	-1.180509686E0	-4.589605331E-2	4.784259796E-1
5.866638540E-1	-1.136561871E0	2.236080170E-2	3.540601730E-1
5.947559690E-1	-1.138694644E0	9.253954887E-2	1.392107010E-1
6.028457000E-1	-1.292849541E0	2.629319429E-1	-1.725673676E-2
6.109858920E-1	-1.601311207E0	5.199232101E-1	-1.558094025E-1
6.192043540E-1	-1.927108169E0	6.729323864E-1	-1.801309586E-1
6.272963150E-1	-2.926663160E0	9.631824493E-1	-4.025230408E-1
6.354050850E-1	-3.413259029E0	9.811179638E-1	-2.410402298E-1
6.434932770E-1	-3.186923504E0	4.624912739E-1	-2.939205170E-1
6.516190460E-1	-2.509313583E0	-3.718420267E-1	-1.173642159E0
6.597290460E-1	-1.441267371E0	-1.989271402E0	-2.268426418E0
6.678216230E-1	-1.637986302E-1	-2.128845453E0	-1.392213821E0
6.759162000E-1	1.658098400E-2	-1.035419226E0	-1.282078743E0
6.840153920E-1	1.004224181E0	-1.354501843E0	-1.588609695E0
6.921149690E-1	1.378485858E-1	-1.503941059E0	-1.497998238E0
7.003343150E-1	-5.057588816E-1	-1.291634440E0	-1.073515892E0
7.084428150E-1	-1.211821079E0	-1.247127652E0	-4.410486221E-1
7.165380070E-1	-1.405962229E0	-9.580272436E-1	-8.412361145E-3
7.246318920E-1	-1.179964185E0	-7.109760046E-1	-1.682024002E-1
7.327723150E-1	-5.727434158E-1	-5.971634388E-1	-5.538177490E-1
7.409910070E-1	-7.193178535E-1	-6.370700598E-1	-8.058252335E-1
7.490848150E-1	-1.083132744E0	-6.089290380E-1	-9.412393570E-1
7.571950460E-1	-1.657384753E0	-5.725841522E-1	-7.856702805E-1
7.652816990E-1	-1.708961844E0	-5.615625381E-1	-1.622896194E-1
7.733968150E-1	-9.804728627E-1	-3.020462990E-1	1.749801636E-2
7.816293530E-1	1.038312912E-2	-2.813239098E-1	3.232021332E-1
7.897220070E-1	3.629588783E-1	-2.975168228E-1	5.964765549E-1
7.978202760E-1	-6.482601166E-3	-2.263799906E-1	1.361731529E0
8.059271990E-1	1.372666061E-1	-5.536866188E-2	2.127180099E0
8.140260840E-1	5.135534406E-1	1.484949589E-1	2.814794540E0
8.222433530E-1	7.836219072E-1	3.203709126E-1	3.248833656E0
8.303527380E-1	8.499407172E-1	5.829520226E-1	3.341450691E0
8.384488910E-1	7.300627232E-1	5.611965656E-1	2.031608582E0
8.465635450E-1	5.454665422E-2	-4.944424629E-1	6.799764633E-1
8.547021220E-1	1.478798091E-1	-1.213485360E0	4.989480972E-1
8.629208140E-1	3.290873766E-1	-1.418183208E0	8.044328690E-1
8.710135450E-1	6.761258841E-2	-8.837897778E-1	3.825330734E-1
8.791214300E-1	-4.812361002E-1	-4.932031631E-1	1.042995453E-1
8.872104300E-1	-1.200279951E0	-3.052902222E-2	-2.484245300E-1
8.953331600E-1	-1.560847282E0	4.390556812E-1	-3.843126297E-1
9.035656990E-1	-1.094696283E0	5.618715286E-1	-3.078079224E-2
9.116570450E-1	-5.184178352E-1	5.576810837E-1	6.181344986E-1
9.197499680E-1	-6.749877334E-1	3.115556240E-1	1.369701385E0
9.278503910E-1	-8.662924767E-1	2.247343063E-1	1.483195305E0
9.359508140E-1	-1.465265036E0	3.157649040E-1	5.196847916E-1
9.441684680E-1	-1.753740549E0	7.401790619E-1	5.729761124E-1
9.522750450E-1	-2.055167437E0	9.230537415E-1	1.343163490E0
9.603680830E-1	-2.033572912E0	9.386115074E-1	1.979169846E0
9.684801600E-1	-1.941405892E0	7.423081398E-1	2.128746986E0
9.766183140E-1	-1.986568809E0	6.208715439E-1	1.731206894E0
9.929296990E-1	-1.486202598E0	1.338525295E0	1.355798721E0
1.001040775E0	-1.035238862E0	1.700662613E0	1.378701210E0
1.009153698E0	-7.563673854E-1	9.778957367E-1	1.264575005E0
1.017287545E0	-2.430657148E-1	2.517318726E-1	2.916584015E-1
1.025395121E0	-2.608323097E-2	1.871566772E-1	-1.394310474E0
1.033485929E0	5.638669729E-1	3.465676308E-1	-3.451006413E0
1.041579852E0	9.758316278E-1	2.165622711E-1	-4.369488716E0
1.049680968E0	1.518061996E0	-5.834083557E-1	-2.948703289E0
1.057778929E0	1.629647136E0	-1.314258099E0	-8.066029549E-1
1.065996121E0	1.415775180E0	-1.735140324E0	-2.271890640E-2
1.074102929E0	3.194688559E-1	-1.314811707E0	9.845137596E-1
1.082199237E0	2.123719454E-1	-7.526841164E-1	9.796404839E-1
1.090286198E0	-1.803002357E-1	-2.057127953E-1	7.313928604E-1
1.098427929E0	-1.083393335E0	5.162558556E-1	6.455564499E-2
1.106646813E0	-2.781212330E-1	5.660147667E-1	-1.879072189E-2
1.114739775E0	8.714141846E-1	4.931454659E-1	-7.580327988E-2
1.122851660E0	1.718730688E0	2.075939178E-1	-1.153051376E0
1.130940929E0	7.987496853E-1	4.271411896E-2	-2.436751366E0
1.139067429E0	-9.438443184E-2	-4.637503624E-1	-3.697972059E0
1.147302236E0	-6.851860285E-1	-1.222214222E0	-4.300722599E0
1.155393775E0	-5.930869579E-1	-1.205783367E0	-3.305044651E0
1.163489006E0	-8.857897520E-1	-9.187746048E-1	-2.387269020E0
1.171582236E0	-1.007243991E0	-3.301758766E-1	-3.162005901E0
1.179696698E0	-6.428787708E-1	-5.338673592E-1	-2.555409908E0
1.187915967E0	-1.507808805E0	-1.197242737E-1	-2.735852718E0
1.196023467E0	-1.348427653E0	4.810676575E-1	-2.160155773E0
1.204118275E0	-7.453248501E-1	3.793077469E-1	-2.109733582E0
1.212217544E0	-6.173019409E-1	3.757071495E-1	-2.373569965E0
1.220358159E0	-5.836236477E-1	4.399161339E-1	-2.508942604E0
1.228576775E0	-1.533455133E0	5.422024727E-1	-2.602054119E0
1.236669428E0	-1.525958300E0	7.659244537E-1	-2.557792187E0
1.244781851E0	-1.348380804E0	8.953089714E-1	-2.276128769E0
1.252868121E0	-7.985596657E-1	2.742180824E-1	-1.711441040E0
1.260970813E0	-2.191043615E0	3.571438789E-1	-3.499022722E0
1.269203774E0	-1.279710054E0	-3.434672356E-1	-2.730553627E0
1.277296697E0	-7.000632286E-1	-8.157811165E-1	-2.322076559E0
1.285393120E0	-1.724917412E0	-8.829050064E-1	-3.064541340E0
1.293490351E0	-1.636132002E0	-9.614520073E-1	-4.233819008E0
1.301591774E0	-6.482570171E-1	-1.143108845E0	-3.510690451E0
1.309812890E0	-5.687930584E-1	-1.065165520E0	-2.320131779E0
1.317920928E0	-1.775741577E-1	-7.566833496E-1	-2.816117287E0
1.326017851E0	-3.311307430E-1	-2.279071808E-1	-2.698331356E0
1.334138928E0	-9.473085403E-2	-5.332803726E-1	-2.107207298E0
1.342278313E0	-5.664587021E-2	-7.639651299E-1	-2.165097952E0
1.350496351E0	-4.743623734E-2	-1.145043373E0	-2.076759100E0
1.358589889E0	2.162742615E-1	-1.845301628E0	-1.992439032E0
1.366700543E0	6.953778267E-1	-2.360963345E0	-2.328381300E0
1.374820312E0	1.326007843E-1	-2.845028400E0	-2.210276842E0
1.382945274E0	3.851013184E-1	-2.950259209E0	-1.856380463E0
1.391180620E0	5.429353714E-1	-2.647286415E0	-1.792736053E0
1.399274582E0	8.458938599E-1	-2.276510239E0	-1.820696831E0
1.407370428E0	1.298341274E0	-1.890879154E0	-1.426312685E0
1.415478428E0	1.709169388E0	-1.734478474E0	-1.006003857E0
1.423577312E0	1.601126194E0	-1.534665585E0	-1.791648865E0
1.431796389E0	1.954906464E0	-1.908039570E0	-1.069851160E0
1.439906043E0	1.984027386E0	-2.423861980E0	-1.162066460E0
1.448001004E0	1.576231003E0	-2.797957420E0	-9.015629292E-1
1.456099851E0	1.292274475E0	-3.164165497E0	-2.151098251E-1
1.464238812E0	1.256906509E0	-3.245840073E0	-7.817316055E-2
1.472456543E0	1.203177929E0	-3.060975075E0	-3.703773022E-1
1.480548889E0	1.868260860E0	-2.852058887E0	-5.621445179E-1
1.488657504E0	2.674782276E0	-2.612528086E0	-7.351870537E-1
1.496753043E0	3.305694580E0	-2.314748764E0	-8.175444603E-1
1.504888081E0	3.341804028E0	-2.026319027E0	-4.780721664E-1
1.513120850E0	3.111726284E0	-2.046099663E0	-7.483482361E-3
1.521213427E0	2.708129406E0	-2.042793512E0	1.760818958E-1
1.529308389E0	2.502105713E0	-2.150110722E0	1.343646049E-1
1.537415389E0	2.637878895E0	-2.204657793E0	5.185115337E-1
1.545516427E0	2.691957951E0	-1.968468904E0	8.982174397E-1
1.553736312E0	2.718452454E0	-1.497012377E0	9.909055233E-1
1.561844504E0	2.926496506E0	-1.128680706E0	9.471688271E-1
1.569938350E0	2.916694641E0	-1.012482166E0	8.847415447E-1
1.578051619E0	3.012366295E0	-1.079297066E0	7.890021801E-1
1.586173235E0	3.366113663E0	-1.260739565E0	8.369739056E-1
1.594391850E0	3.341903687E0	-1.354672432E0	7.683780193E-1
1.602486504E0	3.026947975E0	-1.327807426E0	7.622897625E-1
1.610598081E0	2.878959656E0	-1.190017223E0	7.643089294E-1
1.618714658E0	2.565314293E0	-8.436241150E-1	9.702653885E-1
1.626842004E0	2.442757607E0	-2.627496719E-1	1.065630913E0
1.635077042E0	2.127120018E0	1.758704185E-1	1.383915663E0
1.643171311E0	1.872162819E0	5.076704025E-1	1.114214420E0
1.651266273E0	1.556496620E0	6.715846062E-1	1.361466289E0
1.659376465E0	1.236265182E0	6.125788689E-1	1.336226702E0
1.667475965E0	1.112278938E0	4.568128586E-1	1.060532212E0
1.675695696E0	1.176214218E0	2.809457779E-1	8.946552277E-1
1.683803696E0	1.090972900E0	1.048035622E-1	9.490039349E-1
1.691898811E0	1.028969765E0	4.862976074E-2	7.310360670E-1
1.700001427E0	9.628868103E-1	1.088218689E-1	7.255345583E-1
1.708141503E0	1.131638527E0	4.740209579E-1	8.914991617E-1
1.716362234E0	8.795003891E-1	1.060052872E0	9.530602694E-1
1.724454503E0	7.162256241E-1	1.464451313E0	9.828537703E-1
1.732548234E0	1.479377747E-1	1.643555880E0	1.222619534E0
1.740643888E0	-4.924488068E-1	1.686818123E0	1.443533897E0
1.748746965E0	-7.710266113E-1	1.504595280E0	1.519522190E0
1.756981619E0	-5.504703522E-1	1.110152721E0	1.455570936E0
1.765077926E0	-6.542358398E-1	1.129912376E0	1.428430319E0
1.773174196E0	-8.077564240E-1	9.127149582E-1	2.072622538E0
1.781288311E0	-6.713008881E-1	8.642232418E-2	1.658447981E0
1.789388349E0	-6.398630142E-1	-1.214791536E-1	1.481299520E0
1.797607388E0	-2.283439636E-1	3.679727316E-1	1.565200329E0
1.805715657E0	-1.412334442E-1	1.058959723E0	2.235673428E0
1.813814234E0	-1.174592018E0	1.925391674E0	2.510946274E0
1.821912542E0	-1.623123169E0	2.176826954E0	2.295139790E0
1.830053926E0	-1.624272823E0	1.904901624E0	1.955107927E0
1.838272849E0	-7.450075150E-1	1.483785987E0	1.098709345E0
1.846366888E0	2.745132446E-1	9.103604555E-1	8.544113636E-1
1.854478349E0	6.282386780E-1	8.896974325E-1	1.156652093E0
1.862580849E0	5.596914291E-1	1.102891922E0	4.514319897E-1
1.870708080E0	7.718725204E-1	7.637312412E-1	-5.687272549E-2
1.878941734E0	9.933080673E-1	2.227936387E-1	-6.399428844E-2
1.895130580E0	1.174124718E0	-2.938183844E-1	-6.086572409E-1
1.903232272E0	1.236304283E0	-4.833545685E-1	-4.944344759E-1
1.911331695E0	1.165925026E0	-7.674652934E-1	-7.361984253E-1
1.919549233E0	9.845991135E-1	-1.015565872E0	-4.920606613E-1
1.927655387E0	6.086769104E-1	-1.532463670E0	-1.566815615E0
1.935751156E0	6.757431030E-1	-2.430283546E0	-6.412026882E-1
1.943874580E0	6.118345261E-1	-2.617210627E0	-9.229612947E-1
1.952018349E0	1.014241219E0	-2.407876492E0	-5.206252337E-1
1.960239156E0	1.256356239E0	-2.240423918E0	-5.743010044E-1
1.968332810E0	1.742368698E0	-2.261706114E0	-3.034015894E-1
1.976443426E0	1.879158974E0	-2.320857048E0	-6.589070559E-1
1.984557349E0	1.923649788E0	-2.591959953E0	-7.297098637E-1
1.992673656E0	1.599459648E0	-2.756062746E0	-1.280085802E0
2.009000733E0	1.739865303E0	-1.873848915E0	-1.547794580E0
2.017096464E0	1.874521255E0	-1.703184605E0	-1.063510180E0
2.025197118E0	1.346750259E0	-1.907693386E0	-9.759045839E-1
2.033296695E0	1.098097801E0	-1.617691517E0	-1.206576705E0
2.041517156E0	1.121665955E0	-1.483428001E0	-9.953737855E-1
2.049625348E0	8.804740906E-1	-1.428322792E0	-9.970069528E-1
2.057719079E0	6.734580994E-1	-1.383846760E0	-6.363118887E-1
2.065814118E0	4.787216187E-1	-1.514208078E0	-7.245811820E-1
2.073953656E0	4.463386536E-1	-1.361742735E0	-8.795312643E-1
2.082173310E0	-2.840042114E-2	-5.861188173E-1	-4.832683802E-1
2.090265348E0	-7.208185196E-1	9.523153305E-1	-4.878509045E-2
2.098374194E0	-1.595561028E0	4.699545860E0	5.702021122E-1
2.106495694E0	-9.253864288E-1	5.450201511E0	-1.350293159E-1
2.114621156E0	-1.091127396E0	5.070653439E0	-3.717846870E-1
2.122856194E0	-6.904478073E-1	2.988212347E0	-7.583448291E-1
2.130947579E0	-4.541082382E-1	6.359835267E-1	-7.244735956E-1
2.139041925E0	-3.860712051E-1	-1.597417831E0	-1.149064064E0
2.147142463E0	-4.470291138E-1	-3.837101221E0	-1.129989147E0
2.155242502E0	-8.151645660E-1	-4.500227928E0	-7.130201459E-1
2.163462617E0	-7.111005783E-1	-4.307352066E0	-7.091925740E-1
2.171570886E0	-6.488323212E-2	-4.134903908E0	-5.101562738E-1
2.179666502E0	7.843008041E-1	-4.096897125E0	-8.936893940E-1
2.187759809E0	9.520597458E-1	-4.187574387E0	-1.335523009E0
2.195898540E0	1.234873772E0	-3.563817263E0	-1.646010518E0
2.204117848E0	3.605187416E0	-1.869185805E0	-1.115999579E0
2.212212155E0	6.449926376E0	-2.932642996E-1	-4.516080618E-1
2.220322655E0	5.329526901E0	5.286018848E-1	-1.415349245E-1
2.228438155E0	3.082702637E0	3.606588244E-1	2.419509888E-1
2.236574425E0	1.499853134E0	-7.587736845E-2	9.486951828E-1
2.244807348E0	1.876032829E0	-6.018766761E-1	2.102964163E0
2.252900348E0	2.274600029E0	-7.583713531E-1	2.886978149E0
2.260994886E0	7.797489166E-1	-1.022594452E0	-2.385281563E0
2.269097348E0	7.713317871E-1	-2.113270760E0	-3.932575941E0
2.277196155E0	2.824737549E0	-3.077164173E0	-5.662040710E-1
2.285413617E0	2.851088524E0	-2.856869698E0	-2.136453629E0
2.293519078E0	2.530904770E0	-2.457345724E0	-1.629881620E0
2.301612578E0	1.400939941E0	-1.941843510E0	-1.015118837E0
2.309726117E0	3.394079208E-1	-1.727781296E0	-1.262525558E0
2.317868963E0	-3.808107376E-1	-2.168762684E0	-9.623498917E-1
2.326086963E0	-1.185477257E0	-8.055741787E-1	-3.993295431E-1
2.334180040E0	-1.191493988E0	5.809593201E-1	-5.251539946E-1
2.342290463E0	-1.177327156E0	5.261502266E-1	8.942596912E-1
2.350383040E0	-5.585718155E-1	-5.905032158E-2	8.141229153E-1
2.358506116E0	-7.464570999E-1	-1.528418779E0	1.904006004E-1
2.366600501E0	-1.143173695E0	-2.617979527E0	-5.785419941E-1
2.374693578E0	-1.586889267E0	-3.426542997E0	-6.178046465E-1
2.382789039E0	-1.189090252E0	-4.036036491E0	-1.280225515E0
2.390883001E0	-7.699351311E-1	-4.721929073E0	-2.205468416E0
2.398997001E0	-1.060957432E0	-4.395987988E0	-3.177134991E0
2.407214962E0	-1.567464828E0	-3.836651325E0	-3.374720097E0
2.415321193E0	-2.130507469E0	-3.246767282E0	-3.982531071E0
2.423414808E0	-1.891166210E0	-3.980454922E0	-4.993036747E0
2.431528655E0	-1.937112331E0	-5.208960533E0	-5.483869553E0
2.439665770E0	-2.674157143E0	-4.358718395E0	-4.856478691E0
2.447882962E0	-2.233697414E0	-4.288379669E0	-2.086426020E0
2.455973270E0	-2.493414879E-1	-4.333912849E0	1.960471630E0
2.464082078E0	5.139136314E-1	-4.532264709E0	4.638619423E0
2.472195501E0	-3.296457291E0	-3.842079401E0	2.683615446E0
2.480329039E0	-1.257283592E1	5.695981979E-1	-7.329476357E0
2.488559962E0	-4.045597553E0	-6.764087677E-1	-5.497311115E0
2.496650731E0	1.517963409E-1	-1.942567825E0	-1.476897717E0
2.504744077E0	1.204296589E0	-2.709542274E0	-5.858674049E-1
2.512844424E0	3.053878784E0	-3.519874096E0	4.306738853E0
2.520942616E0	2.986549377E0	-3.519010544E0	4.301781654E0
2.529160116E0	1.684945107E0	-2.685980320E0	2.632874012E0
2.537266577E0	5.598211288E-2	-1.627784252E0	2.052778959E0
2.545361654E0	-1.751864910E0	-1.478738308E0	2.640316725E0
2.553470962E0	-2.671800375E0	-9.113521576E-1	3.250689507E0
2.561550654E0	-3.291407347E0	-6.747546196E-1	3.568716526E0
2.569768000E0	-4.246264458E0	-8.071131706E-1	2.551306009E0
2.577858346E0	-5.201065540E0	-6.527900696E-1	1.291652679E0
2.585966346E0	-6.353750706E0	7.175483704E-1	-3.505228758E-1
2.594054231E0	-8.325672150E0	3.182808876E0	-9.705847502E-1
2.602178000E0	-1.000377560E1	5.565533638E0	-2.500621557E0
2.610410577E0	-1.110006714E1	7.493371964E0	-4.428455830E0
2.618500538E0	-1.097314262E1	8.950262070E0	-6.379935265E0
2.626592731E0	-9.548088074E0	1.044542122E1	-7.333231449E0
2.634685500E0	-6.934113503E0	1.139287853E1	-7.617628098E0
2.642782923E0	-3.668696165E0	1.131565189E1	-4.739900589E0
2.651001115E0	-9.274435043E-2	9.884191513E0	-4.917463064E-1
2.659109808E0	2.560631990E0	7.058369637E0	2.154422760E0
2.667204038E0	5.735913277E0	4.530859947E0	3.801381111E0
2.683460769E0	7.246103764E0	4.033327103E-1	2.494824171E0
2.691678384E0	6.150307655E0	-1.523022175E0	9.684296846E-1
2.699770538E0	3.330215454E0	-2.877536774E0	-5.066118240E-1
2.707880038E0	2.164385080E0	-3.349108696E0	-1.501256227E0
2.715995461E0	1.521129131E0	-3.221351624E0	-2.266453981E0
2.724131846E0	2.852623463E-1	-2.596811771E0	-2.848634958E0
2.732367000E0	-4.803049564E-1	-1.902736187E0	-3.129786253E0
2.740460307E0	7.898993492E-1	-4.071328163E0	1.064271450E0
2.748555884E0	5.606497765E0	-9.682090759E0	1.315015411E1
2.756651576E0	1.772563696E0	-5.513365746E0	4.610390663E0
2.764751423E0	-1.981776476E0	1.869474411E0	-6.881890774E0
2.772968923E0	-1.856737971E0	2.813812256E0	-8.182298660E0
2.781076384E0	1.794563293E0	-1.545953751E-1	-4.513407707E0
2.789169692E0	4.155073166E0	-1.614273071E0	-3.012671232E0
2.797281922E0	1.828624249E0	-5.055522919E-2	-5.441193581E0
2.805367615E0	-2.229523659E-1	6.318807602E-1	-4.823260784E0
2.813584499E0	-8.959591389E-1	4.199190140E-1	-2.300869226E0
2.821676845E0	2.797913551E-1	1.210646629E0	-8.996450901E-1
2.829788422E0	-1.062571287E0	1.728914261E0	1.227528453E-1
2.837879538E0	-1.853301048E0	1.137559891E0	8.196676970E-1
2.846003038E0	-1.591337442E0	6.855373383E-1	7.273243666E-1
2.854234961E0	-1.068056107E0	4.406194687E-1	2.938483953E-1
2.862328422E0	-5.367832184E-1	2.990179062E-1	-2.625225186E-1
2.870422499E0	6.248712540E-2	2.552967072E-1	-3.450188041E-1
2.878523730E0	-1.877331734E-1	1.508321762E-1	7.103586793E-1
2.886622384E0	5.793943405E-1	-1.566629410E-1	9.612287879E-1
2.894841614E0	1.132716179E0	-6.904401779E-1	7.990834713E-1
2.902950807E0	1.868251324E0	-1.005164146E0	-1.920696497E-1
2.911045307E0	2.089264393E0	-1.153927326E0	-7.398546338E-1
2.919130153E0	2.125259399E0	-1.788305759E0	-1.022702217E0
2.927267922E0	2.074303150E0	-2.828653812E0	-1.844701052E0
2.935484768E0	2.675124168E0	-3.221570969E0	-2.887081623E0
2.943575499E0	3.020712376E0	-3.177553177E0	-3.060421467E0
2.951684076E0	2.857151985E0	-2.460975647E0	-2.587159157E0
2.959801729E0	2.287899971E0	-1.479852200E0	-1.373318911E0
2.967936499E0	2.046843529E0	-6.577219963E-1	5.087585449E-1
2.976169268E0	2.182659149E0	-4.253864288E-2	1.568868399E0
2.984262037E0	2.020278931E0	7.080192566E-1	1.677419543E0
2.992357306E0	1.680132389E0	7.283954620E-1	1.352422714E0
3.000464960E0	1.245960712E0	3.778600693E-1	5.350660086E-1
3.008563845E0	8.886513710E-1	1.627187729E-1	-5.093812943E-4
3.016781652E0	6.015496254E-1	-3.294811249E-1	-6.846694350E-1
3.024887537E0	8.959574699E-1	-4.250555038E-1	-1.554211378E0
3.032980498E0	7.313141823E-1	-4.096565247E-1	-1.821630716E0
3.041064652E0	1.504883766E-1	-5.601215363E-2	-1.812707305E0
3.049203960E0	2.246718407E-1	-1.437187195E-2	-1.187574863E0
3.057420652E0	2.851481438E-1	2.351999283E-1	-8.052063584E-1
3.065513114E0	-2.844524384E-2	1.179866791E0	-6.747297645E-1
3.073621691E0	-7.907409668E-1	1.313137054E0	-4.264972210E-1
3.081709844E0	-9.338998795E-1	1.603143692E0	-7.991093397E-2
3.089833998E0	-9.886817932E-1	2.125373840E0	-4.711806774E-2
3.098066037E0	-1.388573647E0	2.593885422E0	-6.815105677E-2
3.106156537E0	-1.462746859E0	2.211041451E0	-6.486594081E-1
3.114250960E0	-2.385522127E0	2.959320068E0	-1.042664528E0
3.122343998E0	-3.592753887E0	2.775738716E0	-7.674273849E-1
3.130444767E0	-5.036037445E0	2.282885551E0	-7.847449780E-1
3.138662421E0	-5.253079414E0	1.968016624E0	-4.810755849E-1
3.146769613E0	-2.934301853E0	1.959973335E0	1.431879997E-1
3.154863498E0	-2.114182949E0	2.331809044E0	-3.395361304E-1
3.162988959E0	-2.256449461E0	2.152556419E0	-6.208167672E-1
3.171129690E0	-2.669045448E0	1.984018326E0	-9.147791266E-1
3.179349306E0	-2.898200989E0	1.518356323E0	-6.775575876E-1
3.187441729E0	-2.943625450E0	1.100069046E0	1.312167645E-1
3.195552382E0	-3.003024101E0	8.620710373E-1	4.592944384E-1
3.203637998E0	-2.818730354E0	8.618583679E-1	1.853054762E-1
3.211752805E0	-2.366387367E0	5.798006058E-1	-1.823762655E-1
3.219984767E0	-1.533457041E0	-3.202962875E-1	-5.682445765E-1
3.228078036E0	-6.626374722E-1	-1.075419426E0	-8.140320778E-1
3.236171267E0	9.074149132E-1	-1.322691441E0	-8.303701282E-1
3.244271921E0	2.692206860E0	-1.650753498E0	-7.927677631E-1
3.252372344E0	7.353732586E0	-3.903371811E0	7.576609850E-1
3.260590113E0	5.227844715E0	-3.678236008E0	-3.554605246E-1
3.268696844E0	2.741088390E0	-2.447581291E0	-1.056882739E0
3.276791228E0	1.825327873E0	-1.676155567E0	-5.931646228E-1
3.284903382E0	2.318249226E0	-1.467219830E0	-1.505378485E-1
3.293040805E0	3.045915127E0	-1.687462807E0	-4.772687554E-1
3.301256805E0	3.041166306E0	-1.699427128E0	-8.451792002E-1
3.309346305E0	3.293928146E0	-1.355870247E0	-6.504533887E-1
3.317454420E0	4.254704475E0	-1.106214523E0	2.934110165E-2
3.325543959E0	2.821930885E0	-6.746950150E-1	1.933554411E-1
3.333669959E0	3.486070633E-1	-2.805929184E-1	-4.049793482E-1
3.341900651E0	-4.644351006E-1	-2.950134277E-1	-2.818995118E-1
3.349991766E0	6.910505295E-1	-4.830875397E-1	-4.640779495E-1
3.358084497E0	1.246109009E-1	-1.170520782E-1	-1.000026703E0
3.366182613E0	9.643077850E-2	4.148149490E-1	-2.346410155E-1
3.374283305E0	-1.708889008E-2	9.698009491E-1	-2.611905336E-2
3.382499766E0	-4.803924561E-1	1.065157890E0	1.285046935E-1
3.390604228E0	-1.144922256E0	9.516725540E-1	4.501808882E-1
3.398697882E0	-1.488250017E0	9.677515030E-1	7.380265594E-1
3.406795074E0	-1.177982330E0	9.729738235E-1	6.443898678E-1
3.414933843E0	-1.547797441E0	7.202873230E-1	6.388877034E-1
3.423152458E0	-1.229668617E0	4.800376892E-1	6.131486297E-1
3.431244074E0	-4.947419167E-1	3.484706879E-1	3.652064204E-1
3.439353112E0	-3.236947060E-1	1.869020462E-1	1.228120327E-1
3.447448689E0	-4.315948486E-1	8.384227753E-2	-1.582739949E-1
3.455585112E0	-1.335630417E-1	6.237602234E-2	-2.883542180E-1
3.471910497E0	2.002954483E-1	1.496820450E-1	-3.617913127E-1
3.480003151E0	-2.511754036E-1	6.234645844E-2	-3.519711196E-1
3.488086689E0	-4.473986626E-1	-6.218528748E-2	-6.273886561E-1
3.496184266E0	-9.438199997E-1	1.553487778E-1	1.675212383E-1
3.504400920E0	-3.762097359E-1	-2.232599258E-1	3.181642294E-1
3.512508227E0	4.555864334E-1	-6.030912399E-1	-2.431879342E-1
3.520600881E0	6.753287315E-1	-6.532220840E-1	-1.993609965E-1
3.528695458E0	3.978447914E-1	-3.997926712E-1	-3.611123264E-1
3.536833766E0	2.463955879E-1	-3.718643188E-1	-6.345468760E-1
3.545051804E0	5.971913338E-1	-3.008842468E-3	-1.903595924E-1
3.553143573E0	4.739103317E-1	3.962898254E-2	8.478224277E-3
3.561253766E0	2.086787224E-1	3.768539429E-2	6.816958189E-1
3.569349650E0	6.086344719E-1	-1.729230881E-1	-2.185056210E-1
3.577473304E0	1.658020020E-1	-3.603296280E-1	3.370731473E-1
3.585704766E0	1.463387966E0	9.385013580E-2	1.331824958E-1
3.593793958E0	2.320000172E0	2.032365799E-1	1.712528467E-1
3.601885689E0	1.489433765E0	5.808734894E-1	-3.953617811E-2
3.609994189E0	-3.251457214E-2	1.756533623E0	-2.766987085E-1
3.618108573E0	-3.390545845E-1	4.834651947E-1	-3.452748060E-2
3.626325765E0	-7.118844986E-2	-8.718328476E-1	-4.883590341E-2
3.634433035E0	5.348978043E-1	-1.754343033E0	1.407779455E-1
3.642525688E0	1.481909275E0	-2.220647335E0	1.475072503E-1
3.650616881E0	2.136707783E0	-1.932905674E0	-2.838131785E-2
3.658754842E0	7.919130325E-1	-1.319218159E0	-2.773821056E-1
3.666972650E0	4.198169708E-1	-6.434378624E-1	-4.204920232E-1
3.675064842E0	2.701172829E-1	-6.127357483E-3	-5.122894049E-1
3.683174265E0	2.686142921E-1	1.815557480E-1	-3.826560378E-1
3.691270650E0	3.828444481E-1	2.493448257E-1	-1.403519660E-1
3.699405457E0	6.493711472E-1	2.671165466E-1	5.604641140E-2
3.707635496E0	1.170093536E0	1.251201630E-1	1.365034133E-1
3.715725880E0	4.059815407E-1	-2.643289566E-1	-1.783513874E-1
3.723815880E0	4.961934090E-1	-5.322751999E-1	-5.432295799E-1
3.731927957E0	6.681470871E-1	-4.707555771E-1	-5.978151560E-1
3.740025611E0	9.220552444E-2	-1.134967804E-1	-4.968700409E-1
3.748241111E0	-3.322300911E-1	1.897983551E-1	-3.178731799E-1
3.756347650E0	-6.966042519E-1	3.031215668E-1	-4.499247670E-2
3.764440611E0	-8.911089897E-1	2.133932114E-1	2.402421832E-1
3.772535073E0	-9.692282677E-1	3.661823273E-2	4.074784517E-1
3.780675265E0	-9.380307198E-1	-2.655735016E-1	4.603048563E-1
3.788894149E0	-8.758721352E-1	-4.933762550E-1	4.690890610E-1
3.796985919E0	-5.401287079E-1	-3.872661591E-1	5.192151070E-1
3.805095419E0	-4.955782890E-1	-1.595869064E-1	5.653800964E-1
3.813197495E0	-4.294071198E-1	7.373523712E-2	4.031285644E-1
3.821323149E0	1.652483940E-1	-5.510330200E-2	-3.821505606E-2
3.829558226E0	-1.379060745E-2	-2.346134186E-2	-5.684055090E-1
3.837651534E0	-2.934446335E-1	1.062994003E-1	-4.113338292E-1
3.845751688E0	4.575395584E-1	4.200839996E-2	-2.179887891E-2
3.853865072E0	-2.229037285E-1	1.532096863E-1	-4.142032266E-1
3.861965803E0	-2.834620476E-1	4.019575119E-1	-3.460320830E-1
3.870185303E0	1.965217590E-1	3.862743378E-1	-3.476069868E-1
3.878292303E0	8.656463623E-1	4.146852493E-1	-3.215089142E-1
3.886387380E0	1.173165321E0	4.794816971E-1	-9.234306216E-2
3.894483072E0	4.330558777E-1	4.401922226E-1	9.221901745E-2
3.902621995E0	-3.253240585E-1	9.492301941E-2	2.555508912E-1
3.910839841E0	-1.249886513E0	-1.510066986E-1	3.092328310E-1
3.918934918E0	-1.234650612E0	-3.688859940E-1	2.597094774E-1
3.924173535E0	-4.637131691E-1	-4.444432259E-1	2.577069402E-1
3.927045149E0	-1.668319702E-1	-4.875388145E-1	2.601011395E-1
3.935141764E0	8.807272911E-1	-5.825304985E-1	7.135814428E-2
3.943242687E0	1.423616409E0	-4.747910500E-1	-5.091091245E-2
3.951475149E0	8.168992996E-1	7.781352997E-1	3.657612205E-1
3.959564956E0	-1.765005827E0	1.506814957E0	1.298430204E0
3.967658226E0	1.003615379E0	4.704408646E-1	1.274318695E-1
3.975741726E0	2.579454422E0	-4.443564415E-1	-6.485090852E-1
3.983839226E0	1.901552677E0	-2.392625809E-1	-8.406260014E-1
3.992053802E0	-1.259536743E-1	9.608078003E-2	-8.059459329E-1
4.000157341E0	-9.600634575E-1	-2.078247070E-2	-7.763896585E-1
4.008247572E0	-9.104471207E-1	-3.414525986E-1	-6.921921968E-1
4.016338572E0	-1.276439905E0	-6.055192947E-1	-6.480486989E-1
4.024455764E0	-1.443333149E0	-7.532062531E-1	-4.524466991E-1
4.032671572E0	-9.672551155E-1	-8.150105476E-1	-2.155869156E-1
4.040763456E0	-2.407231331E-1	-9.587688446E-1	-2.476583868E-1
4.048874187E0	5.273165703E-1	-6.558847427E-1	-2.605186403E-1
4.056971610E0	3.718910217E-1	-3.251695633E-1	-1.923449337E-1
4.062237535E0	2.944955826E-1	-8.123493195E-2	-2.977405190E-1
4.065096379E0	1.747856140E-1	-2.856254578E-2	-3.767491877E-1
4.073328456E0	1.037073135E-2	2.190017700E-1	-3.403925896E-1
4.081422418E0	1.235537529E-1	3.204584122E-1	-3.608117104E-1
4.089518071E0	3.175802231E-1	1.611404419E-1	-4.666288793E-1
4.097627379E0	-9.049463272E-2	-7.789421082E-2	-4.538887739E-1
4.105724610E0	-3.291792870E-1	-3.572063446E-1	-2.719830573E-1
4.113939225E0	-3.425869942E-1	-3.598928452E-1	-2.078967988E-1
4.122042071E0	-2.100920677E-1	-3.491001129E-1	-1.758024544E-1
4.130132533E0	-3.374733925E-1	-3.063745499E-1	-1.784399152E-2
4.138232533E0	7.266950607E-2	-3.023481369E-1	-4.077184200E-2
4.146367802E0	2.269463539E-1	-2.421388626E-1	-1.349977255E-1
4.154582110E0	2.306098938E-1	-2.190284729E-1	-1.500991732E-1
4.162670186E0	2.833313942E-1	-2.920351028E-1	-1.814590096E-1
4.170773956E0	3.287887573E-2	8.841609955E-2	1.559979767E-1
4.178864456E0	-3.551197052E-1	-6.399750710E-1	-8.663535118E-4
4.186995994E0	-4.197130203E-1	-3.371534348E-1	2.477363795E-1
4.195224840E0	-2.634463310E-1	4.729747772E-2	1.283809692E-1
4.203312917E0	-5.518598557E-1	1.429319382E-1	7.874835283E-2
4.211404686E0	-6.791858673E-1	5.631828308E-1	2.461140752E-1
4.219515763E0	-7.272777557E-1	7.082452774E-1	1.920359433E-1
4.227611571E0	-3.728580475E-1	9.141731262E-2	-1.186369918E-2
4.235826263E0	-4.488306046E-1	4.369544983E-2	-1.699036062E-1
4.243930186E0	-3.177490234E-1	4.421520233E-2	-2.088670582E-1
4.252024532E0	1.110363007E-2	4.292201996E-2	-2.173962146E-1
4.268256455E0	4.785356522E-1	-4.332427979E-1	-9.923525900E-2
4.276473340E0	1.257378578E0	-7.602796555E-1	-2.104828656E-1
4.284564224E0	1.787120819E0	-7.887749672E-1	-3.125032485E-1
4.292670340E0	1.185677052E0	-5.632858276E-1	5.243655294E-3
4.300771301E0	6.891236305E-1	-1.333990097E-1	1.366912872E-1
4.308892455E0	2.883071899E-1	8.447647095E-3	1.029371843E-1
4.317121801E0	-4.550695419E-2	-1.535158157E-1	-9.226009250E-3
4.325209917E0	-1.611671448E-1	-2.665748596E-1	-2.891463935E-1
4.333303378E0	-2.874660492E-1	-2.563285828E-1	-3.893348575E-1
4.341413417E0	-3.884992599E-1	-1.040267944E-1	-6.870375276E-1
4.349512532E0	-6.623969078E-1	-1.027679443E-2	-6.244127154E-1
4.357728455E0	-4.284019470E-1	-2.629261017E-1	-4.551729560E-1
4.365833378E0	-2.208709717E-3	-1.918096542E-1	-4.614800513E-1
4.373923609E0	6.776924133E-1	-5.508327484E-2	-2.158956677E-1
4.382018378E0	6.361165047E-1	3.410015106E-1	-8.020569384E-2
4.390154647E0	6.566934586E-1	6.766424179E-1	1.581886858E-1
4.398372301E0	8.198719025E-1	9.309463501E-1	3.882248998E-1
4.414567993E0	-3.254251480E-1	4.714365005E-1	1.224255115E-1
4.422661416E0	1.268668175E0	9.117231369E-1	-2.282917053E-1
4.430775108E0	2.652988911E0	2.239020348E0	-9.362286925E-1
4.439008724E0	5.168409348E-1	2.955027580E0	-9.012280107E-1
4.447100455E0	-2.314192772E0	1.986533165E0	-6.174162626E-1
4.455194608E0	-2.341327667E0	5.935039520E-1	-2.546674013E-1
4.463294378E0	1.029000282E-1	-3.627777100E-2	5.910938233E-2
4.471393108E0	2.039670944E-1	-4.169940948E-1	6.489706635E-1
4.479610608E0	-7.477397919E-1	-5.748872757E-1	1.184455633E0
4.487717878E0	-8.878054619E-1	-8.226785660E-1	1.333816290E0
4.495809570E0	-7.964491844E-1	-1.072896004E0	1.131647229E0
4.503891993E0	-6.551480293E-1	-1.295333862E0	7.061972022E-1
4.512029531E0	-5.730576515E-1	-1.607586861E0	1.144262701E-1
4.520245877E0	-5.743961334E-1	-1.883161545E0	-1.089434862E0
4.528338108E0	-2.630114555E-1	-2.036464691E0	-1.981094122E0
4.536444877E0	-9.593296051E-2	-1.848758221E0	-1.317641139E0
4.544531762E0	-3.695654869E-1	-1.526040077E0	2.888333797E-2
4.552653685E0	-1.493706703E-1	-8.891501427E-1	7.697397470E-1
4.560883839E0	6.697654724E-2	-2.174730301E-1	8.402187228E-1
4.568975570E0	5.419254303E-2	3.823890686E-1	7.798762321E-1
4.577070685E0	2.727570534E-1	8.453722000E-1	9.513944983E-1
4.585171069E0	9.119968414E-1	1.186590195E0	1.026828885E0
4.593268377E0	1.821373463E0	1.440865517E0	6.033365726E-1
4.601483531E0	1.286893845E0	1.477252007E0	1.147915363E0
4.609587339E0	-3.209905624E-1	1.410667419E0	1.173509121E0
4.617677915E0	-1.585246086E0	8.697509766E-1	3.279391527E-1
4.625794492E0	-2.803606272E0	2.244672775E-1	-3.208497763E-1
4.633897954E0	-3.887239695E0	2.906007767E-1	1.761777401E-1
4.642114723E0	-3.324115276E0	4.888906479E-1	1.846572459E-1
4.650205723E0	-1.002243042E0	3.758850098E-1	-6.230264902E-2
4.658313185E0	6.905016899E-1	-3.250694275E-2	2.339949906E-1
4.666397800E0	7.931075096E-1	-4.789166451E-1	4.910999835E-1
4.674532223E0	9.096717834E-1	-5.642476082E-1	4.054948092E-1
4.682764646E0	1.204225063E0	-4.911422729E-2	-3.174428046E-1
4.690855454E0	1.099374771E0	2.102661133E-2	-3.968406916E-1
4.707045877E0	1.175435543E0	-1.591949463E-1	-1.288829446E-1
4.715141107E0	1.083497524E0	-2.580003738E-1	2.760263681E-1
4.723357338E0	1.352693081E0	-3.004522324E-1	3.110798895E-1
4.731463107E0	1.208245277E0	-2.957801819E-1	3.217535019E-1
4.739555415E0	6.754527092E-1	-5.306959152E-1	1.919148117E-1
4.747650146E0	5.552005768E-1	-4.792146683E-1	1.988410950E-2
4.755788876E0	4.693741798E-1	-3.607935905E-1	-4.827484488E-1
4.764006415E0	2.387347221E-1	-2.608394623E-1	-8.396804333E-1
4.772095992E0	1.246805191E-1	-1.594343185E-1	-9.752315283E-1
4.780202607E0	-2.145195007E-2	3.550338745E-2	-9.262614846E-1
4.788301992E0	-2.219672203E-1	2.008380890E-1	-7.853239775E-1
4.796424453E0	-4.221053123E-1	3.615608215E-1	-6.344969273E-1
4.812747684E0	-7.619752884E-1	5.720186234E-1	-2.770808935E-1
4.820840107E0	-9.224076271E-1	6.029024124E-1	-1.929338276E-1
4.828947184E0	-1.069919109E0	5.602159500E-1	-2.075607479E-1
4.837060030E0	-1.237691879E0	5.013160706E-1	-2.895703316E-1
4.845276492E0	-1.343160629E0	4.199686050E-1	-4.220874310E-1
4.853382184E0	-1.295530319E0	3.600654602E-1	-3.707137108E-1
4.861477838E0	-1.158474445E0	2.650747299E-1	-3.175609112E-1
4.869574145E0	-1.115262985E0	1.645755768E-1	-2.621226311E-1
4.877711261E0	-1.035061359E0	8.308696747E-2	-2.743986249E-1
4.885925030E0	-9.313397408E-1	-7.227897644E-3	-2.752454877E-1
4.894015607E0	-7.780408859E-1	-1.336040497E-1	-2.769252956E-1
4.902121607E0	-6.398906708E-1	-2.266511917E-1	-2.436911166E-1
4.910213991E0	-4.953775406E-1	-2.672767639E-1	-2.018683851E-1
4.918312145E0	-3.575334549E-1	-2.861051559E-1	-1.541221142E-1
4.926541068E0	-1.342158318E-1	-2.873411179E-1	-1.918423176E-2
4.934631068E0	-1.141471863E-1	-2.152576447E-1	3.749048710E-2
4.942723107E0	2.513437271E-1	-2.017707825E-1	5.460768938E-3
4.950836953E0	4.242644310E-1	-1.217136383E-1	-7.461643219E-2
4.958932799E0	5.463676453E-1	-5.436420441E-2	-2.382337749E-1
4.967148491E0	6.892271042E-1	-2.705574036E-2	-3.105330765E-1
4.975252914E0	7.869749069E-1	2.202606201E-2	-4.535994530E-1
4.983345837E0	8.593716621E-1	1.501035690E-1	-6.134343147E-1
4.991439145E0	1.747052670E0	3.831968307E-1	-1.128262520E0
4.999577337E0	1.596848011E0	4.884891510E-1	-9.080513716E-1
5.007790606E0	6.438021660E-1	4.215221405E-1	-8.689022064E-2
5.015878952E0	3.038921356E-1	2.683744431E-1	1.294773519E-1
5.023984722E0	4.484295845E-1	-7.166671753E-2	1.347255707E-2
5.032078337E0	7.397475243E-1	-3.498115540E-1	1.184731126E-1
5.040200222E0	3.638758659E-1	-4.812059402E-1	1.348040402E-1
5.048429645E0	3.279304504E-2	-4.757270813E-1	-1.027798653E-2
5.056519798E0	-4.147300720E-1	-4.374170303E-1	-1.037038565E-1
5.064612260E0	-2.081513405E-1	-2.318964005E-1	-2.856046557E-1
5.072720568E0	3.543596268E-1	3.648757935E-2	-4.805628061E-1
5.080819221E0	2.532367706E-1	2.460947037E-1	-3.051234484E-1
5.089034529E0	3.143830299E-1	4.808082581E-1	-2.410028577E-1
5.097139837E0	8.458614349E-3	4.041690826E-1	-2.846628428E-2
5.105232414E0	-5.310411453E-1	1.760234833E-1	-7.028788328E-3
5.113330183E0	-2.252511978E-1	2.533178329E-1	-3.562580049E-1
5.121467644E0	-7.092556953E-1	1.494293213E-1	-2.969805896E-1
5.129682375E0	-1.175721884E0	-3.300571442E-2	-2.730009556E-1
5.137772721E0	-8.277482986E-1	-2.071266174E-1	-3.479666710E-1
5.145878721E0	-4.352607727E-1	-1.269426346E-1	-2.971921563E-1
5.153971644E0	-6.692662239E-1	-8.714675903E-2	3.452658653E-2
5.162070875E0	-8.732056618E-1	-1.272392273E-1	8.174374700E-2
5.170300529E0	-4.866070747E-1	-7.583713531E-2	1.906955242E-2
5.178389452E0	-3.459463120E-1	1.285028458E-1	-8.319312334E-2
5.186479375E0	-6.070613861E-2	8.805751801E-2	2.492780983E-1
5.194586875E0	-5.995655060E-2	-2.783966064E-2	-1.659780741E-2
5.202683144E0	-1.414217949E-1	-1.336631775E-1	-4.764902592E-2
5.210897759E0	-1.919035912E-1	-7.896423340E-2	-6.642234325E-2
5.219002144E0	-9.488344193E-2	2.654075623E-2	-5.673509836E-2
5.227094182E0	-2.963557243E-1	7.892704010E-2	4.607564211E-2
5.235188413E0	-3.280587196E-1	2.131462097E-2	1.368243992E-1
5.243305990E0	-1.034793854E-1	-3.257942200E-2	1.274113655E-1
5.251521298E0	1.326098442E-1	1.172647476E-1	3.209260106E-1
5.259612336E0	-1.682519913E-1	1.009874344E-1	3.596097231E-1
5.267719605E0	-2.097120285E-1	1.393442154E-1	2.884366214E-1
5.275819336E0	-1.547226906E-1	1.221942902E-1	3.047919869E-1
5.283939913E0	-2.421331406E-1	1.689081192E-1	2.502003908E-1
5.292172605E0	-1.045136452E-1	1.747989655E-1	2.938432992E-1
5.300263874E0	-1.314287186E-1	1.538085938E-1	3.584268689E-1
5.308356567E0	-2.336382866E-1	1.725435257E-1	4.139683843E-1
5.316461490E0	-1.843528748E-1	2.026948929E-1	3.964019418E-1
5.324557490E0	-1.041951180E-1	2.256822586E-1	3.737036586E-1
5.332772682E0	-3.610754013E-2	2.845115662E-1	3.622540832E-1
5.340876028E0	7.150793076E-2	3.726911545E-1	2.942196727E-1
5.348965913E0	1.923213005E-1	4.375705719E-1	1.795226932E-1
5.357060528E0	2.261385918E-1	4.669723511E-1	1.161500514E-1
5.365198643E0	2.233796120E-1	4.440584183E-1	8.230859041E-2
5.373413797E0	2.225012779E-1	3.998908997E-1	9.249860048E-2
5.381502797E0	2.495517731E-1	2.605037689E-1	9.142640233E-2
5.389610182E0	2.595486641E-1	1.309642792E-1	6.969520450E-2
5.397706412E0	2.644186020E-1	-1.260757446E-2	4.037359357E-2
5.405841720E0	2.592239380E-1	-1.151208878E-1	-9.563356638E-3
5.414074759E0	2.763237953E-1	-2.860822678E-1	-2.158640623E-1
5.422169182E0	1.744537354E-1	-2.957010269E-1	-2.353649735E-1
5.430263259E0	-1.843471527E-1	-1.995143890E-1	-2.637591958E-1
5.438379720E0	-4.034018517E-1	-5.209255219E-2	-6.731943488E-1
5.446477605E0	1.212687492E-1	1.827716827E-2	-8.706717491E-1
5.454694182E0	3.009500504E-1	-4.527378082E-2	-5.977162123E-1
5.462798412E0	5.357813835E-1	-2.489452362E-1	-5.534619093E-3
5.470892874E0	8.982954025E-1	-2.781734467E-1	3.361751735E-1
5.478987104E0	9.561214447E-1	-3.584489822E-1	2.823396921E-1
5.487126297E0	1.024093628E0	-5.322036743E-1	1.677169651E-1
5.495344489E0	9.165048599E-1	-5.807476044E-1	-8.353821933E-2
5.503438066E0	7.950286865E-1	-5.395412445E-1	-7.607814074E-1
5.511546604E0	9.272470474E-1	-7.143673897E-1	-1.088071465E0
5.519635181E0	7.982082367E-1	-7.342667580E-1	-1.176355362E0
5.527759566E0	6.349349022E-1	-5.979089737E-1	-1.280203342E0
5.535991912E0	9.476609230E-1	-4.357185364E-1	-1.405143380E0
5.544084527E0	9.350686073E-1	-3.298778534E-1	-1.301866889E0
5.552178873E0	6.029853821E-1	-1.756553650E-1	-1.173145533E0
5.560280296E0	3.933987617E-1	-7.550716400E-2	-9.856890440E-1
5.568377604E0	3.107829094E-1	3.536605835E-2	-9.477155209E-1
5.576594220E0	9.056806564E-2	1.730108261E-1	-9.226249456E-1
5.584699643E0	-1.439566612E-1	2.480993271E-1	-9.039419889E-1
5.592792989E0	-3.042192459E-1	3.802938461E-1	-8.825845718E-1
5.600893719E0	-5.643844604E-1	4.781961441E-1	-7.613154054E-1
5.609033527E0	-8.064045906E-1	5.988073349E-1	-6.958503723E-1
5.617248335E0	-1.134351730E0	6.241216660E-1	-6.509802341E-1
5.625338296E0	-1.489813328E0	6.205968857E-1	-5.057753325E-1
5.633447604E0	-1.727684259E0	6.713161469E-1	-3.400250077E-1
5.641539373E0	-1.843818188E0	6.592311859E-1	3.549826145E-2
5.649653142E0	-1.880041122E0	5.718841553E-1	3.936003149E-1
5.657883988E0	-1.975624084E0	5.281457901E-1	6.890673637E-1
5.665975296E0	-2.031656027E0	4.201660156E-1	9.476507902E-1
5.674068219E0	-1.958892584E0	3.027582169E-1	1.077838182E0
5.682172411E0	-2.132008553E0	2.316818237E-1	1.072779655E0
5.690269758E0	-2.143523693E0	2.115783691E-1	1.012647390E0
5.698486411E0	-1.995423079E0	1.584501266E-1	9.681278467E-1
5.706592142E0	-2.014689922E0	1.653165817E-1	8.772376776E-1
5.714683988E0	-2.055746078E0	1.534929276E-1	8.206627369E-1
5.722777796E0	-1.972106934E0	1.755533218E-1	7.373291850E-1
5.730916834E0	-1.785735846E0	1.216878891E-1	7.063701153E-1
5.739134257E0	-1.546361923E0	1.281881332E-1	6.882224083E-1
5.747226257E0	-1.418159008E0	1.635255814E-1	6.435441971E-1
5.755333565E0	-1.365087032E0	2.252960205E-1	5.177248716E-1
5.763433565E0	-1.266985416E0	2.941188812E-1	3.522871137E-1
5.771556296E0	-1.183191061E0	3.577575684E-1	2.698110938E-1
5.779787026E0	-1.079752684E0	3.728837967E-1	2.281583846E-1
5.787877988E0	-9.349091053E-1	3.500041962E-1	2.937013805E-1
5.795971988E0	-7.909612656E-1	3.654041290E-1	3.852546811E-1
5.804081834E0	-7.145171165E-1	4.236097336E-1	3.862923384E-1
5.812178526E0	-5.653123856E-1	4.771966934E-1	3.752878904E-1
5.820393603E0	-4.411242008E-1	4.973325729E-1	4.059849381E-1
5.828496603E0	-3.247206211E-1	5.565042496E-1	4.160596132E-1
5.836588911E0	-3.349316120E-1	6.812925339E-1	3.958039880E-1
5.844683642E0	-2.587978840E-1	7.831077576E-1	5.473082662E-1
5.852820834E0	-5.847454071E-2	8.407087326E-1	8.966124654E-1
5.861038257E0	7.777070999E-2	8.922090530E-1	1.333512306E0
5.869130026E0	3.523929119E-1	9.572353363E-1	1.800130486E0
5.877240988E0	7.629780769E-1	1.030984879E0	2.313559055E0
5.885325718E0	1.178745031E0	1.083580971E0	2.889177322E0
5.893459103E0	1.943566561E0	1.101800919E0	3.314695358E0
5.901692103E0	2.703648090E0	9.756155014E-1	3.406921864E0
5.909782141E0	3.373884439E0	6.351604462E-1	3.337344646E0
5.917876411E0	3.990210772E0	1.440114975E-1	3.129416227E0
5.925976141E0	4.615029335E0	-4.539136887E-1	2.797208071E0
5.934074603E0	4.883698463E0	-1.083984375E0	2.405339718E0
5.942292449E0	4.787517548E0	-1.694241524E0	2.130981922E0
5.950399910E0	4.633511066E0	-2.138959408E0	1.915476322E0
5.958493103E0	4.313224792E0	-2.510301590E0	1.660439014E0
5.966577333E0	4.075582504E0	-2.619470596E0	1.417351246E0
5.974715987E0	3.932845592E0	-2.559199810E0	1.255587935E0
5.982931295E0	3.813207388E0	-2.601136684E0	1.181921482E0
5.991022487E0	3.613899708E0	-2.799681664E0	1.171829224E0
5.999129718E0	3.236515760E0	-2.907280922E0	1.150705457E0
6.007224872E0	2.461656094E0	-2.797366142E0	1.057392478E0
6.015345910E0	1.724262476E0	-2.598424435E0	9.625931978E-1
6.023577025E0	1.097788334E0	-2.359608173E0	8.869255781E-1
6.031668679E0	7.272253036E-1	-2.119391441E0	7.976348400E-1
6.039761525E0	4.929308891E-1	-1.938077927E0	7.906831503E-1
6.047859872E0	2.683253288E-1	-1.657029629E0	8.200893402E-1
6.055972987E0	1.930365562E-1	-1.470538139E0	9.708805084E-1
6.064190102E0	1.714558601E-1	-1.263139248E0	1.142491341E0
6.072294987E0	1.290783882E-1	-1.076341629E0	1.299381018E0
6.080387487E0	9.130144119E-2	-9.427638054E-1	1.375485897E0
6.088487948E0	2.486569881E-1	-9.555077553E-1	1.417231321E0
6.096623987E0	5.043606758E-1	-1.062435627E0	1.446970224E0
6.104839564E0	7.391276360E-1	-1.226697445E0	1.407143116E0
6.112929179E0	9.132444859E-1	-1.411140919E0	1.310115337E0
6.121034794E0	1.081159592E0	-1.630508900E0	1.127028942E0
6.129125987E0	1.224174976E0	-1.831050873E0	8.950386047E-1
6.137257564E0	1.475430012E0	-1.909660339E0	5.861201286E-1
6.145486794E0	1.713080406E0	-1.976852417E0	2.273828983E-1
6.153575910E0	1.732792854E0	-1.998625278E0	-3.996610641E-2
6.161666410E0	1.689746857E0	-2.019675732E0	-1.126048565E-1
6.169774102E0	1.702473164E0	-1.969794750E0	-1.994554996E-1
6.177870602E0	1.729597569E0	-1.917710304E0	-2.512371540E-1
6.186084986E0	1.611126900E0	-1.663879395E0	-3.867311478E-1
6.194189948E0	1.426888943E0	-1.361779690E0	-4.719543457E-1
6.202279525E0	1.184922218E0	-1.015771389E0	-5.571482182E-1
6.210370294E0	7.946181297E-1	-6.359887123E-1	-5.684688091E-1
6.218505332E0	3.021688461E-1	-2.236127853E-1	-4.862012863E-1
6.226719563E0	-4.053335190E-1	2.306604385E-1	-3.292610645E-1
6.234806794E0	-9.833798409E-1	5.211372375E-1	-2.118587494E-3
6.242911794E0	-1.236635923E0	6.687231064E-1	3.665030003E-1
6.251010102E0	-1.460747719E0	7.105836868E-1	6.390044689E-1
6.259131486E0	-1.892102718E0	7.924499512E-1	8.148000240E-1
6.267362986E0	-2.286659718E0	8.657550812E-1	8.450205326E-1
6.275453909E0	-2.679293156E0	9.909467697E-1	8.202588558E-1
6.283546794E0	-2.827332497E0	1.092126846E0	6.449661255E-1
6.291645678E0	-2.726830482E0	1.145044327E0	3.639473915E-1
6.299745871E0	-2.407258034E0	1.182677269E0	3.208994865E-2
6.307961101E0	-2.038660288E0	1.153541565E0	-3.309206963E-1
6.316066524E0	-1.807360172E0	1.100356102E0	-7.005454302E-1
6.324160678E0	-1.525364876E0	9.206151962E-1	-9.561161995E-1
6.332247909E0	-1.207957268E0	6.882591248E-1	-1.184452295E0
6.340385140E0	-5.647411346E-1	5.339374542E-1	-1.336803913E0
6.348600370E0	1.332809925E-1	3.388376236E-1	-1.456104875E0
6.356691293E0	1.162192822E-1	9.268856049E-2	-1.485635757E0
6.364798370E0	1.440877914E-1	-2.229700089E-1	-1.012389779E0
6.372889716E0	2.911038399E-1	-4.376974106E-1	-5.474393368E-1
6.380987986E0	4.417858124E-1	-5.510482788E-1	-1.915982962E-1
6.389218832E0	6.711301804E-1	-6.847610474E-1	-3.139126301E-2
6.397308101E0	7.908570766E-1	-8.343086243E-1	1.068472862E-2
6.405399562E0	8.206133842E-1	-8.648166656E-1	-9.693241119E-2
6.413513370E0	6.140716076E-1	-8.083591461E-1	-2.861659527E-1
6.421609909E0	3.209831715E-1	-7.117538452E-1	-4.451069832E-1
6.429825524E0	1.768147945E-1	-6.902389526E-1	-4.637535810E-1
6.437930793E0	5.480813980E-2	-7.040805817E-1	-6.296910048E-1
6.446020832E0	5.130529404E-2	-6.412773132E-1	-9.053830504E-1
6.454112562E0	-2.288014889E-1	-6.898870468E-1	-1.151901007E0
6.462227601E0	-4.013485909E-1	-6.632032394E-1	-1.218373656E0
6.470442601E0	-5.595605373E-1	-5.359106064E-1	-1.112118721E0
6.478531331E0	-7.744309902E-1	-4.155292511E-1	-9.508561492E-1
6.486676985E0	-9.713239670E-1	-2.501497269E-1	-1.032268286E0
6.494771024E0	-1.040973663E0	1.919565201E-1	-1.351228237E0
6.502893678E0	-8.307385445E-1	9.537572861E-1	-1.680624366E0
6.511124524E0	-4.047288895E-1	1.623991013E0	-1.690451622E0
6.519213408E0	-4.418821335E-1	2.018350601E0	-1.046069384E0
6.527305100E0	4.924309254E-1	2.208065033E0	-4.668624103E-1
6.535396062E0	1.355856657E0	1.997836113E0	-1.059602499E-1
6.543491216E0	1.659965515E0	1.791583061E0	7.135161757E-2
6.551705447E0	1.426990986E0	1.489586830E0	3.032666445E-1
6.559810639E0	1.468110561E0	1.079568863E0	4.697142243E-1
6.567902639E0	1.855249882E0	5.526371002E-1	5.766022801E-1
6.576002331E0	2.156000614E0	1.589679718E-2	5.589826107E-1
6.584139216E0	2.338958740E0	-3.896446228E-1	5.551221371E-1
6.592356216E0	2.372340202E0	-6.688642502E-1	5.246018767E-1
6.600445600E0	2.345633507E0	-7.994174957E-1	3.455310166E-1
6.608553023E0	2.273522377E0	-8.645830154E-1	1.867215037E-1
6.616645716E0	2.174863338E0	-9.434022903E-1	7.267048955E-2
6.624746254E0	1.950122595E0	-1.101989746E0	5.043613911E-2
6.632979369E0	1.742500067E0	-1.236667633E0	1.169055104E-1
6.641071254E0	1.495340824E0	-1.355971813E0	1.936306208E-1
6.649163292E0	1.234884739E0	-1.395466328E0	3.038378954E-1
6.665373485E0	4.382305145E-1	-1.003580093E0	2.560867071E-1
6.673591985E0	-3.151512146E-2	-5.455198288E-1	7.406665385E-2
6.689792715E0	-6.965842247E-1	-1.209554672E-1	-2.875366509E-1
6.697886100E0	-9.027166367E-1	-1.200551987E-1	-5.384424329E-1
6.706022677E0	-1.124988794E0	-1.953983307E-1	-7.312288284E-1
6.714238677E0	-1.312637806E0	-3.594532013E-1	-8.414577842E-1
6.722328984E0	-1.446632147E0	-6.527595520E-1	-8.370262384E-1
6.730437484E0	-1.489269972E0	-1.045174122E0	-8.083890676E-1
6.738539138E0	-1.410847902E0	-1.302693367E0	-7.490859628E-1
6.746662446E0	-1.257601261E0	-1.551794052E0	-6.895533800E-1
6.754892753E0	-9.816534519E-1	-1.698947430E0	-5.336761475E-1
6.762982600E0	-4.512627125E-1	-1.746333122E0	-2.995597422E-1
6.771075023E0	5.378108025E-1	-1.315693855E0	1.023982465E-1
6.779183138E0	1.933910370E0	-4.860210419E-1	4.992577732E-1
6.787279869E0	3.156104803E0	3.198804855E-1	2.890855670E-1
6.795494253E0	3.895883799E0	1.017339706E0	-8.645288944E-1
6.803598638E0	2.584542036E0	1.632736206E0	-1.761926889E0
6.811689599E0	2.935652494E0	1.539859772E0	-1.712031841E0
6.819800099E0	5.275924683E0	9.737596512E-1	-1.375462055E0
6.827936561E0	5.678864479E0	3.124418259E-1	-8.138982058E-1
6.836150061E0	5.147887230E0	-2.506742477E-1	1.874482632E-2
6.844236330E0	3.983857393E0	-4.389038086E-1	7.126423120E-1
6.852340215E0	3.477756739E0	-4.073772430E-1	1.116116285E0
6.860450022E0	3.912518263E0	-4.377956390E-1	1.714114547E0
6.868561138E0	4.608332634E0	-5.284643173E-1	2.104889631E0
6.876790445E0	4.751074791E0	-6.826114655E-1	1.935531855E0
6.884877022E0	4.496059418E0	-9.057426453E-1	1.368758082E0
6.892970176E0	3.918870211E0	-1.034641266E0	6.362310052E-1
6.901082791E0	3.124681711E0	-1.075144291E0	7.170987129E-2
6.909179214E0	2.437033415E0	-1.073180676E0	-1.764112711E-1
6.917394445E0	1.912949085E0	-1.042573929E0	6.347084045E-2
6.925498714E0	1.511443853E0	-9.195094109E-1	5.587015748E-1
6.933589560E0	1.062906742E0	-7.372226715E-1	1.089244127E0
6.941671099E0	6.679115295E-1	-5.407876968E-1	1.374014735E0
6.949807176E0	2.234234810E-1	-3.488969803E-1	1.435278535E0
6.958023714E0	-1.389384270E-1	-2.737636566E-1	1.313167572E0
6.966113407E0	-3.908877373E-1	-2.642507553E-1	9.197463989E-1
6.974218599E0	-2.896933556E-1	-2.649126053E-1	5.321884155E-1
6.982304330E0	-4.083247185E-1	-1.680088043E-1	-1.434892416E-3
6.990424445E0	-8.142433167E-1	-3.351688385E-2	-6.716192961E-1
6.998654676E0	-1.368108988E0	3.014564514E-2	-1.137616992E0
7.006742176E0	-1.646658897E0	2.749824524E-2	-1.626029015E0
7.014833291E0	-1.805250406E0	-8.588790894E-2	-2.097816706E0
7.022927791E0	-1.967156410E0	-1.361522675E-1	-2.303324461E0
7.031022291E0	-1.998260021E0	-5.820369720E-2	-2.033995628E0
7.039235637E0	-1.874247074E0	1.371784210E-1	-1.352791309E0
7.047337752E0	-1.492203712E0	3.293209076E-1	-5.391209126E-1
7.055428445E0	-9.926567078E-1	5.165243149E-1	2.673425674E-1
7.063518637E0	-5.561780930E-1	5.465869904E-1	7.131051421E-1
7.071655445E0	-2.237148285E-1	5.322246552E-1	9.363908768E-1
7.079869406E0	1.187033653E-1	4.529905319E-1	9.556356668E-1
7.087959791E0	3.683400154E-1	3.352222443E-1	7.831658721E-1
7.096066637E0	5.634555817E-1	1.559562683E-1	5.269477367E-1
7.104148944E0	6.579213142E-1	-1.946067810E-2	2.575184107E-1
7.112279791E0	7.103338242E-1	-1.347379684E-1	-1.238048077E-3
7.120507214E0	6.504220963E-1	-1.455631256E-1	-2.237114310E-1
7.128595483E0	5.612173080E-1	-1.183633804E-1	-2.423186302E-1
7.136686098E0	6.384487152E-1	-7.403182983E-2	-1.711643338E-1
7.144793752E0	6.545271873E-1	3.216743469E-2	-3.720223904E-2
7.152889137E0	6.299138069E-1	1.842746735E-1	6.733411551E-2
7.161102713E0	4.984564781E-1	3.136482239E-1	8.651393652E-2
7.169202560E0	3.102774620E-1	4.119796753E-1	1.909267902E-2
7.177290790E0	1.829671860E-1	4.479084015E-1	-7.580792904E-2
7.185380098E0	5.712270737E-2	3.348455429E-1	-2.167372704E-1
7.193513675E0	-2.115249634E-3	1.945304871E-1	-2.729535103E-1
7.201726675E0	-1.495885849E-2	1.660728455E-2	-2.639785409E-1
7.209815175E0	-4.272937775E-2	-1.443614960E-1	-2.635056376E-1
7.217921713E0	-2.153062820E-2	-3.191232681E-1	-1.639404893E-1
7.226018521E0	4.799032211E-2	-4.498348236E-1	-9.139358997E-2
7.234139752E0	8.555412292E-2	-5.597152710E-1	-2.148306370E-2
7.242369098E0	1.640181541E-1	-6.839003563E-1	-3.758156300E-2
7.250456444E0	3.103108406E-1	-7.734603882E-1	-3.834980726E-2
7.258546059E0	3.913946152E-1	-8.061199188E-1	-5.540895462E-2
7.266651713E0	3.813920021E-1	-7.199616432E-1	-5.199921131E-2
7.274762598E0	3.878455162E-1	-6.432771683E-1	-1.417446136E-2
7.282976636E0	3.750653267E-1	-5.571017265E-1	-3.080368042E-4
7.291078136E0	3.248991966E-1	-4.452333450E-1	-5.111211538E-2
7.299168444E0	2.381401062E-1	-3.200721741E-1	-1.780117750E-1
7.307263636E0	1.650028229E-1	-2.054481506E-1	-3.199667335E-1
7.315399444E0	1.652398109E-1	-1.084346771E-1	-4.233104587E-1
7.323612521E0	1.886086464E-1	-6.494426727E-2	-5.211679935E-1
7.331698559E0	2.072048187E-1	-2.038002014E-3	-5.906391144E-1
7.339801982E0	2.907586098E-1	8.220672607E-3	-6.400591135E-1
7.347890367E0	3.614344597E-1	-2.235412598E-3	-6.868791580E-1
7.356019828E0	4.430160522E-1	-2.234458923E-3	-7.152976990E-1
7.364246597E0	5.091366768E-1	-3.252887726E-2	-7.219084501E-1
7.372332713E0	5.783891678E-1	-6.647109985E-2	-7.215571404E-1
7.380420982E0	5.859165192E-1	-7.042980194E-2	-6.955489516E-1
7.388501328E0	5.582113266E-1	-5.165100098E-2	-7.012981176E-1
7.396617905E0	4.879145622E-1	-3.879928589E-2	-6.461923718E-1
7.404830905E0	3.867506981E-1	-2.932739258E-2	-5.664531589E-1
7.412936251E0	2.363824844E-1	-9.432792664E-3	-5.088087916E-1
7.421028520E0	5.417585373E-2	6.194114685E-3	-4.585574269E-1
7.429121289E0	-1.967525482E-1	3.823184967E-2	-3.873060346E-1
7.437243982E0	-4.190549850E-1	8.324337006E-2	-2.481473684E-1
7.445458482E0	-6.394886971E-1	1.734275818E-1	-1.379672885E-1
7.453546982E0	-8.145403862E-1	2.973690033E-1	-5.786347389E-2
7.461650597E0	-9.787654877E-1	4.422140121E-1	3.732681274E-2
7.469743905E0	-1.112251759E0	5.452070236E-1	1.422569156E-1
7.477864905E0	-1.224559546E0	6.303415298E-1	2.116342783E-1
7.486094866E0	-1.305577517E0	7.022323608E-1	2.793941498E-1
7.494182712E0	-1.330224276E0	7.546491623E-1	3.438359499E-1
7.502272635E0	-1.310981512E0	7.712593079E-1	4.499953389E-1
7.510378020E0	-1.275805235E0	7.867012024E-1	5.021439195E-1
7.518472404E0	-1.208425760E0	8.554964066E-1	4.146721959E-1
7.526685751E0	-1.100679636E0	9.090461731E-1	3.139052093E-1
7.534789597E0	-9.929859638E-1	9.786949158E-1	1.937083602E-1
7.542879827E0	-8.317072392E-1	1.010034561E0	5.822342634E-2
7.550975750E0	-6.872987747E-1	9.652433395E-1	-1.019659042E-1
7.559109904E0	-5.481939316E-1	8.731575012E-1	-1.891519427E-1
7.567325058E0	-4.167542458E-1	7.049674988E-1	-2.488321662E-1
7.575412712E0	-3.388743401E-1	5.112323761E-1	-1.903359294E-1
7.583519750E0	-2.275967598E-1	2.819194794E-1	-5.448830128E-2
7.599739212E0	-8.735418320E-2	-4.507932663E-1	9.742000699E-2
7.607969558E0	-2.452135086E-2	-8.191237450E-1	-1.367997229E-1
7.624150981E0	-5.571627617E-1	-1.744906902E0	-5.799898505E-1
7.632257981E0	-8.444707394E-1	-2.228996277E0	-1.300962329E0
7.640351827E0	-1.077719688E0	-2.770727634E0	-1.157662153E0
7.648562289E0	-1.322241545E0	-3.147284031E0	-6.216002703E-1
7.656665096E0	-1.258369684E0	-3.528723717E0	4.779295623E-1
7.664755173E0	-1.023050308E0	-4.145754337E0	1.788458109E0
7.672863942E0	-4.366054535E-1	-4.191623211E0	2.941066027E0
7.680979711E0	3.806200027E-1	-3.270132065E0	3.585596085E0
7.689193211E0	8.965620995E-1	-1.995682716E0	3.466852903E0
7.697281558E0	1.044342518E0	-7.005352974E-1	2.703121424E0
7.705387981E0	7.639231682E-1	7.320985794E-1	1.603803635E0
7.713506019E0	8.839707375E-1	1.841989517E0	5.717700720E-1
7.721625211E0	1.370159149E0	2.647388458E0	-3.992777467E-1
7.729853096E0	2.199715137E0	3.323715210E0	-9.385594726E-1
7.737941596E0	2.700148582E0	3.709285736E0	-8.799377680E-1
7.746030711E0	3.319995880E0	3.779917717E0	-4.365733862E-1
7.754120019E0	3.311564922E0	3.320327759E0	-1.112411022E-1
7.762215942E0	2.437796116E0	2.520923615E0	-1.959469318E-1
7.770429634E0	1.092591286E0	1.393682480E0	-4.629179835E-1
7.778532788E0	3.944368362E-1	5.069131851E-1	-5.142599940E-1
7.786623442E0	-3.851318359E-2	-2.113142014E-1	-4.051875770E-1
7.794734326E0	-2.119278908E-1	-8.140993118E-1	-4.056429863E-2
7.802868442E0	-1.454715729E-1	-1.231629372E0	4.359858632E-1
7.811083288E0	5.972814560E-2	-1.476483822E0	1.014185786E0
7.819172903E0	3.795781136E-1	-1.652661800E0	1.508640528E0
7.827278865E0	7.575998306E-1	-1.747496128E0	1.630894899E0
7.835360672E0	1.236414909E0	-1.840920448E0	1.611660719E0
7.843490942E0	1.529436588E0	-1.832739830E0	1.470660686E0
7.851721788E0	1.650891304E0	-1.742962360E0	1.188893080E0
7.859809518E0	1.627837658E0	-1.595015526E0	8.181408644E-1
7.867899518E0	1.628544807E0	-1.476281166E0	4.875144958E-1
7.875980672E0	1.636425972E0	-1.374431610E0	2.347505093E-1
7.884077980E0	1.511362076E0	-1.242961407E0	1.708226204E-1
7.892292595E0	1.290842533E0	-9.576411247E-1	2.362725735E-1
7.900395749E0	8.666124344E-1	-5.308852196E-1	3.473147154E-1
7.908488749E0	2.591204643E-1	-2.626132965E-2	4.616985321E-1
7.916580441E0	-3.823471069E-1	4.048852921E-1	5.200828314E-1
7.924715557E0	-8.837089539E-1	7.377777100E-1	5.242182016E-1
7.932930711E0	-1.200242519E0	9.349069595E-1	4.040393829E-1
7.941017864E0	-1.347519875E0	1.076792717E0	3.562119007E-1
7.949121210E0	-1.668246984E0	1.211579323E0	2.216300964E-1
7.957202210E0	-1.863898754E0	1.248756409E0	1.761147976E-1
7.965321018E0	-2.130974054E0	1.162176132E0	8.262729645E-2
7.973547403E0	-2.265030384E0	9.936075211E-1	5.879342556E-2
7.981632480E0	-2.088949680E0	7.729225159E-1	6.136775017E-2
7.997830287E0	-1.441143513E0	5.090017319E-1	-1.330275536E-1
8.005924941E0	-1.085447550E0	3.510541916E-1	-2.662439346E-1
8.022241056E0	-2.843799591E-1	5.395221710E-2	-5.135657787E-1
8.030331402E0	1.064200401E-1	-1.356067657E-1	-5.991776586E-1
8.038430672E0	3.200297356E-1	-3.229885101E-1	-6.083100438E-1
8.046565864E0	4.814858437E-1	-4.700880051E-1	-4.324365854E-1
8.054781864E0	5.581326485E-1	-5.483055115E-1	-2.920258045E-1
8.062871672E0	5.788059235E-1	-5.549182892E-1	-2.313915491E-1
8.070975825E0	6.224994659E-1	-4.572048187E-1	-1.576789618E-1
8.079067325E0	6.125807762E-1	-2.699289322E-1	-1.141409874E-1
8.087178325E0	5.290446281E-1	-5.878734589E-2	-1.784425974E-1
8.095406979E0	3.812708855E-1	1.796350479E-1	-3.182319403E-1
8.103494594E0	1.888103485E-1	3.880147934E-1	-4.191328287E-1
8.111583518E0	-3.098678589E-2	5.221862793E-1	-4.651924372E-1
8.119693594E0	-2.177963257E-1	6.083745956E-1	-4.381831884E-1
8.127790056E0	-2.938456535E-1	6.771507263E-1	-4.033045769E-1
8.136005402E0	-3.508334160E-1	7.469644547E-1	-2.901780605E-1
8.144106671E0	-4.263076782E-1	8.081111908E-1	-2.202875614E-1
8.152193440E0	-4.617033005E-1	7.945575714E-1	-1.043486595E-1
8.160283671E0	-4.152069092E-1	6.497068405E-1	1.118243933E-1
8.168417479E0	-3.171629906E-1	4.869966507E-1	3.587847948E-1
8.176631902E0	-1.803956032E-1	3.272619247E-1	5.509715080E-1
8.184721094E0	2.803993225E-2	1.574306488E-1	7.190492153E-1
8.192826517E0	2.369060516E-1	3.338813782E-3	8.664011955E-1
8.200924209E0	3.976154327E-1	-1.368923187E-1	8.890720606E-1
8.209045094E0	4.953460693E-1	-3.044338226E-1	8.203097582E-1
8.217273594E0	5.675368309E-1	-5.337314606E-1	6.928263903E-1
8.225361863E0	6.463675499E-1	-6.971015930E-1	5.660544634E-1
8.233454171E0	7.101955414E-1	-8.159470558E-1	4.781248569E-1
8.241560325E0	7.543392181E-1	-8.687119484E-1	4.628899097E-1
8.249655055E0	7.852754593E-1	-9.160966873E-1	5.257036686E-1
8.257867517E0	7.965774536E-1	-9.170866013E-1	5.953069925E-1
8.265971632E0	8.310604095E-1	-8.563904762E-1	5.469970703E-1
8.282136440E0	9.668331146E-1	-6.062402725E-1	3.853969574E-1
8.290237978E0	9.725718498E-1	-3.773431778E-1	2.711195946E-1
8.298454171E0	9.624400139E-1	-1.017408371E-1	1.555843353E-1
8.306542517E0	8.707394600E-1	1.296682358E-1	5.042576790E-2
8.314648286E0	7.240519524E-1	3.337392807E-1	-3.216600418E-2
8.322740132E0	6.326017380E-1	4.937305450E-1	-1.290847063E-1
8.330871978E0	4.979767799E-1	6.051168442E-1	-1.814217567E-1
8.339100786E0	2.488522530E-1	6.689062119E-1	-1.694747210E-1
8.347189094E0	-4.342117310E-1	2.966146469E-1	1.140484810E-1
8.355280594E0	-4.610424042E-1	6.941766739E-1	2.653980255E-2
8.363359132E0	-2.521276474E-1	1.733902931E0	-6.652362347E-1
8.371453170E0	5.038495064E-1	2.162929535E0	-1.169774055E0
8.379665978E0	9.973111153E-1	2.101127625E0	-1.167851329E0
8.387769132E0	1.047053337E0	1.731255531E0	-9.719003439E-1
8.395857824E0	7.508273125E-1	9.227600098E-1	-6.934984922E-1
8.403950016E0	-1.620674133E-1	1.551065445E-1	-5.299783945E-1
8.412085901E0	-1.278960943E0	-5.059490204E-1	-3.495029211E-1
8.420299324E0	-2.061599970E0	-1.005457401E0	-1.756035089E-1
8.428385555E0	-2.314978123E0	-1.143771648E0	-1.842783689E-1
8.436489286E0	-2.334424019E0	-1.224952221E0	-2.072438002E-1
8.444600709E0	-2.191037416E0	-1.265496254E0	-2.008436918E-1
8.452720939E0	-2.034759283E0	-1.119865894E0	-2.151407003E-1
8.460949555E0	-1.709698915E0	-8.907165527E-1	-1.761265993E-1
8.469037862E0	-1.211793184E0	-7.032465935E-1	-9.513974190E-2
8.477127516E0	-6.868910789E-1	-5.226979256E-1	-7.846355438E-3
8.485224978E0	-3.426127434E-1	-3.632712364E-1	8.276414871E-2
8.493334978E0	-7.647466660E-2	-3.421959877E-1	6.734538078E-2
8.501549285E0	2.215576172E-2	-2.363805771E-1	-8.259487152E-2
8.509653131E0	1.951532364E-1	-3.015480042E-1	-3.411712646E-1
8.517742593E0	3.128194809E-1	-1.923055649E-1	-5.854201317E-1
8.525840247E0	3.973941803E-1	-1.709747314E-1	-6.959365606E-1
8.533977131E0	5.049910545E-1	-9.375381470E-2	-8.091275692E-1
8.542190939E0	5.642380714E-1	1.624908447E-1	-8.553316593E-1
8.550277824E0	7.268490791E-1	4.406328201E-1	-8.610340357E-1
8.558381631E0	8.183732033E-1	5.800437927E-1	-7.852824926E-1
8.566472939E0	9.214215279E-1	6.477241516E-1	-7.143943310E-1
8.574603862E0	7.171807289E-1	8.967685699E-1	-7.003659010E-1
8.582831362E0	1.151189804E-1	1.294254303E0	-6.108896732E-1
8.590919400E0	-4.224886894E-1	1.450777054E0	-5.952486992E-1
8.599010246E0	-8.126883507E-1	1.332811356E0	-6.082415581E-1
8.607119862E0	-1.092151403E0	1.073126793E0	-6.432609558E-1
8.615216169E0	-1.406099558E0	9.474878311E-1	-7.447830439E-1
8.623430631E0	-1.836194754E0	9.247541428E-1	-7.976981401E-1
8.631534362E0	-2.249643087E0	8.132019043E-1	-4.963808060E-1
8.639626554E0	-2.567282677E0	6.525459290E-1	-2.287677526E-1
8.647708362E0	-2.635984182E0	2.217674255E-1	-4.717159271E-2
8.655846092E0	-2.605060816E0	-1.803522110E-1	1.048052311E-2
8.664062323E0	-2.352973461E0	-2.164545059E-1	6.542432308E-2
8.672150938E0	-2.443006277E0	9.380435944E-2	1.500123739E-1
8.680256823E0	-2.003463745E0	1.636028290E-1	2.409880161E-1
8.688353861E0	-1.260399580E0	2.459735870E-1	4.825966358E-1
8.696472515E0	-9.681987762E-1	-9.891510010E-3	6.788750887E-1
8.704700669E0	-9.628870487E-1	-2.897148132E-1	9.369535446E-1
8.712789861E0	-8.596227169E-1	-5.343894958E-1	1.015380621E0
8.720882400E0	-3.793644905E-1	-4.336948395E-1	9.991757870E-1
8.728990131E0	-1.229093075E-1	-5.220527649E-1	7.986630201E-1
8.737088015E0	2.431535721E-1	-5.929174423E-1	6.576853991E-1
8.745305938E0	4.799096584E-1	-3.676776886E-1	2.443530560E-1
8.753411323E0	6.440367699E-1	-4.722127914E-1	7.942152023E-2
8.761502707E0	8.856897354E-1	-7.770576477E-1	2.624523640E-2
8.769598092E0	9.935371876E-1	-8.806133270E-1	5.064189434E-2
8.777735400E0	9.725885391E-1	-9.575862885E-1	1.827272177E-1
8.785951323E0	1.006361723E0	-1.014927387E0	3.125650883E-1
8.794042900E0	1.190570116E0	-9.631528854E-1	4.545583725E-1
8.802150169E0	1.189396381E0	-8.954563141E-1	5.730807781E-1
8.810245130E0	1.315985441E0	-9.003572464E-1	6.185872555E-1
8.818378630E0	1.433325052E0	-9.665369987E-1	6.414663792E-1
8.826611976E0	1.341177940E0	-1.011332512E0	5.601165295E-1
8.834700784E0	9.454319477E-1	-8.267736435E-1	4.330120087E-1
8.842792746E0	7.506923676E-1	-7.141866684E-1	3.529868126E-1
8.850875053E0	4.889264107E-1	-7.729558945E-1	3.113443851E-1
8.858970438E0	3.615121841E-1	-8.788447380E-1	2.822833061E-1
8.867184784E0	1.865251064E-1	-8.668136597E-1	2.782843113E-1
8.875288745E0	1.534767151E-1	-9.526648521E-1	2.856563330E-1
8.883381668E0	1.450989246E-1	-1.227427483E0	2.350583076E-1
8.891473207E0	3.050038815E-1	-1.442434311E0	1.878945827E-1
8.899588168E0	5.311739445E-1	-1.643710136E0	1.545031071E-1
8.907801822E0	8.515400887E-1	-1.490522861E0	7.092165947E-2
8.915889976E0	8.420777321E-1	-1.137654781E0	-6.295919418E-3
8.923999053E0	1.646008492E-1	-1.163611889E0	-3.277015686E-2
8.932092630E0	-2.719171047E-1	-1.267839909E0	-1.416976452E-1
8.940214207E0	-9.473562241E-3	-1.446137905E0	-6.706845760E-2
8.948445053E0	1.098411083E-1	-1.389822006E0	4.747915268E-2
8.956535976E0	-2.605438232E-2	-9.129271507E-1	7.865142822E-2
8.964625745E0	-2.920317650E-2	-2.907629013E-1	2.543803453E-1
8.972731976E0	3.142240047E-1	6.042242050E-1	5.734341145E-1
8.980826707E0	5.944097042E-1	1.759732246E0	7.696356773E-1
8.989039630E0	8.926773071E-1	2.835867882E0	6.629021168E-1
8.997141860E0	1.036931753E0	3.593173027E0	2.761528492E-1
9.005230591E0	7.183489799E-1	3.892292976E0	-2.168300748E-1
9.013345745E0	1.326069832E-1	3.993985176E0	-4.211613536E-1
9.021478783E0	-5.635023117E-1	3.874303818E0	-4.517018795E-1
9.029692591E0	-1.399556875E0	3.082829475E0	-5.542447567E-1
9.037782476E0	-1.948763132E0	1.657519341E0	-6.576808095E-1
9.045889437E0	-2.006573915E0	2.535600662E-1	-6.698243618E-1
9.054000629E0	-1.914943933E0	-6.519584656E-1	-7.290387750E-1
9.062131129E0	-1.867002249E0	-8.250980377E-1	-8.817597628E-1
9.070359283E0	-1.590216637E0	-4.659776688E-1	-9.695551991E-1
9.078448398E0	-7.800204754E-1	-4.041194916E-2	-1.018274188E0
9.086540937E0	-3.537654877E-2	3.221321106E-1	-9.892304540E-1
9.094633437E0	-4.173638821E-1	5.224103928E-1	-9.027846456E-1
9.102744091E0	-5.933892727E-1	3.506221771E-1	-9.902570248E-1
9.110959168E0	-6.284093857E-2	-2.326183319E-1	-1.288574934E0
9.119063898E0	4.985780716E-1	-8.265714645E-1	-1.605021954E0
9.127155629E0	6.111457348E-1	-1.229167461E0	-1.830576897E0
9.135248283E0	4.830973148E-1	-1.586188793E0	-2.105224609E0
9.143385821E0	5.776538849E-1	-1.700215340E0	-2.314917088E0
9.151602283E0	9.775087833E-1	-1.533612728E0	-2.352955103E0
9.159693590E0	1.470921993E0	-1.318307877E0	-2.264903545E0
9.167798513E0	1.976661682E0	-1.134919643E0	-1.954913378E0
9.175887090E0	2.297518253E0	-8.598651886E-1	-1.546896458E0
9.184009783E0	2.306317806E0	-5.299491882E-1	-1.131139636E0
9.192241244E0	2.174862862E0	-2.318935394E-1	-6.692333817E-1
9.200331898E0	1.943898916E0	-9.904003143E-2	-3.115816712E-1
9.208421244E0	1.809114933E0	-1.049232483E-2	-6.699815392E-3
9.216519090E0	1.837839127E0	7.988071442E-2	2.436155081E-1
9.224614783E0	1.741161823E0	5.543422699E-2	3.498155475E-1
9.232830898E0	1.487154484E0	-6.789207458E-2	3.039576411E-1
9.240934090E0	1.356439114E0	-9.984302521E-2	7.632881403E-2
9.249025859E0	1.219766140E0	-4.159164429E-2	-1.664910018E-1
9.257120321E0	7.584004402E-1	9.845924377E-2	-3.918793499E-1
9.265255975E0	2.232184410E-1	4.603967667E-1	-5.610449314E-1
9.273469475E0	-7.133388519E-2	7.919960022E-1	-5.220263004E-1
9.281556321E0	-4.022259712E-1	1.181096077E0	-4.490623474E-1
9.289660282E0	-7.501394749E-1	1.435913086E0	-1.953976154E-1
9.297750321E0	-7.896602154E-1	1.455878258E0	1.749412417E-1
9.305861205E0	-9.836888313E-1	1.206578255E0	5.850093365E-1
9.314090167E0	-4.533300400E-1	1.061286926E0	9.171411991E-1
9.322179705E0	-1.400184631E-1	8.155832291E-1	1.186569214E0
9.330270436E0	-2.709174156E-1	6.297082901E-1	1.321439981E0
9.338373974E0	-9.516811371E-2	7.460641861E-1	1.222620010E0
9.346468782E0	-2.587532997E-1	8.604307175E-1	1.079829335E0
9.354684590E0	-3.345375061E-1	1.143640518E0	8.488238454E-1
9.362788167E0	-3.624920845E-1	1.421991348E0	6.663180590E-1
9.370879820E0	-3.867592812E-1	1.770317078E0	5.143022537E-1
9.378972397E0	-3.533105850E-1	2.055150032E0	3.317668140E-1
9.387109513E0	-4.620442390E-1	1.972797394E0	2.568125427E-1
9.395325320E0	-7.548604012E-1	1.696188927E0	1.561563015E-1
9.403417628E0	-1.240875244E0	1.181017876E0	1.449240744E-1
9.411525666E0	-1.548615694E0	5.503692627E-1	1.052154005E-1
9.419640243E0	-1.492900133E0	3.524875641E-2	-1.584398746E-2
9.427766513E0	-1.279259682E0	-1.988048553E-1	-2.787263393E-1
9.436002282E0	-1.104272366E0	-3.690185547E-1	-4.495626390E-1
9.444094128E0	-9.201238155E-1	-4.989671707E-1	-6.267887950E-1
9.452187628E0	-7.121450901E-1	-3.541412354E-1	-8.015866876E-1
9.460295551E0	-5.349907875E-1	-2.271356583E-1	-7.412738800E-1
9.468394397E0	-2.520015240E-1	-3.951549530E-2	-6.848315001E-1
9.476610705E0	1.301753521E-1	1.359748840E-1	-5.295769572E-1
9.484715012E0	6.340076923E-1	4.178047180E-2	-2.832482457E-1
9.492808051E0	9.127206802E-1	-1.569271088E-2	5.920684338E-2
9.500907512E0	1.171051741E0	-1.146917343E-1	3.901908398E-1
9.509045435E0	1.359205961E0	-3.208732605E-2	5.347766280E-1
9.517262820E0	1.496854305E0	8.718013763E-2	4.918901026E-1
9.525354204E0	1.563643217E0	1.864728928E-1	4.364979863E-1
9.533463820E0	1.561037540E0	1.477966309E-1	3.195284605E-1
9.541558474E0	1.584131479E0	-9.722709656E-3	2.215526700E-1
9.549661089E0	1.455560684E0	-2.777862549E-2	2.204316258E-1
9.557894474E0	1.371130943E0	1.287231445E-1	1.428613663E-1
9.565986127E0	1.212193489E0	4.201765060E-1	6.542521715E-2
9.574079435E0	4.131674767E-1	6.742773056E-1	2.878021598E-1
9.582188704E0	8.007123470E-1	9.233551025E-1	2.645385265E-1
9.590285820E0	8.211681843E-1	9.415102005E-1	4.054191113E-1
9.598500012E0	6.113333702E-1	8.901910782E-1	6.055375338E-1
9.606602473E0	2.326118946E-1	6.677370071E-1	7.915683389E-1
9.614694743E0	7.202408314E-1	4.751348495E-1	6.311838031E-1
9.622787666E0	6.685600281E-1	3.299903870E-1	4.200330079E-1
9.630922973E0	5.185565948E-1	1.819572449E-1	1.837424040E-1
9.639140127E0	-3.501777649E-1	-2.785778046E-2	-7.257148623E-2
9.647231435E0	1.263544559E-1	-6.874370575E-2	-5.854503512E-1
9.655338242E0	3.469839096E-1	-1.309375763E-1	-7.056785822E-1
9.663437512E0	-2.448060513E-1	-4.232702255E-1	-4.793232679E-1
9.671560435E0	1.340913773E-2	-2.916030884E-1	-5.018944740E-1
9.679791550E0	-7.223725319E-2	-1.728553772E-1	-3.620831966E-1
9.687882242E0	-3.057732582E-1	1.333189011E-1	-1.984516382E-1
9.695974550E0	-4.458873272E-1	5.145807266E-1	-1.263654977E-1
9.704083127E0	-7.274510860E-1	7.642173767E-1	5.428047478E-2
9.712194781E0	-7.327232361E-1	1.198056221E0	-4.757866263E-2
9.720410588E0	-3.702685833E-1	1.447235107E0	-9.062831104E-2
9.728516204E0	-2.222142220E-1	1.334720612E0	2.349617332E-2
9.736610627E0	-8.228421211E-2	1.029621124E0	8.337890357E-2
9.744706434E0	-3.658754826E-1	2.658748627E-1	4.179816544E-1
9.752844011E0	-1.146516323E0	-9.472351074E-1	9.675391912E-1
9.761059627E0	-1.851553440E0	-2.337838173E0	1.333160520E0
9.769150857E0	-2.042422056E0	-4.080433846E0	1.662144899E0
9.777258165E0	-2.081839323E0	-5.426153183E0	1.577312827E0
9.785369396E0	-1.914182901E0	-6.499716282E0	1.351315260E0
9.793470319E0	-1.480461001E0	-7.275966644E0	1.009071350E0
9.801702550E0	-1.079071879E0	-7.136513710E0	4.782560170E-1
9.809794011E0	-1.190321922E0	-5.269072056E0	2.667942345E-1
9.817887511E0	-1.494457722E0	-3.393977165E0	3.231237233E-1
9.825987126E0	-1.396964073E0	-2.269616604E0	5.627906322E-1
9.834084703E0	-1.149885774E0	-1.452766895E0	8.599418402E-1
9.842300088E0	-1.037323236E0	-9.651832581E-1	1.322217345E0
9.850405472E0	-9.431421757E-1	-8.519563675E-1	1.540266633E0
9.858497857E0	-9.444081783E-1	-9.644861221E-1	1.661650419E0
9.866611934E0	-9.717161655E-1	-1.037028313E0	1.655330181E0
9.874752126E0	-1.132047176E0	-1.105826378E0	1.577677727E0
9.882969818E0	-1.316715121E0	-1.055512428E0	1.375083923E0
9.891060972E0	-1.543294430E0	-1.090172768E0	9.759830236E-1
9.899169126E0	-1.636391521E0	-1.010352135E0	4.645062685E-1
9.907258241E0	-1.611309528E0	-7.684640884E-1	-7.192781568E-2
9.915382857E0	-1.507231951E0	-3.567733765E-1	-6.425999403E-1
9.931705780E0	-2.072538137E0	-1.622200012E-3	-1.095996141E0
9.939802011E0	-2.411669493E0	-4.878234863E-1	-5.378701687E-1
9.947900703E0	-1.831077218E0	-1.343379498E0	-3.053138852E-1
9.955999318E0	-8.017494678E-1	-2.405643463E-2	-4.558734894E-1
9.964217087E0	-9.606087208E-1	5.784912109E-1	-7.830391824E-2
9.972322049E0	-7.086086273E-2	1.557907104E0	-3.487318754E-3
9.980414972E0	6.551105976E-1	2.676272392E0	1.833379269E-2
9.988533549E0	1.211750507E0	3.748219490E0	-2.156273872E-1
9.996670318E0	1.257941723E0	4.464060783E0	-3.342600763E-1
1.000488578E1	6.044821739E-1	4.804312706E0	-3.774310946E-1
1.001297597E1	6.978201866E-1	5.461916924E0	-4.577000439E-1
1.002108478E1	5.940690041E-1	5.862632751E0	-4.435391128E-1
1.002919628E1	2.679123878E-1	6.257518768E0	-3.106858432E-1
1.003732878E1	-4.845285416E-2	5.898522377E0	3.487531841E-2
1.004555901E1	-9.147620201E-1	4.631002426E0	2.160791904E-1
1.005364966E1	-1.791677952E0	3.215974808E0	4.061238766E-1
1.006174078E1	-2.355621815E0	1.824399948E0	6.280176640E-1
1.006983401E1	-2.711993217E0	8.573827744E-1	7.772191763E-1
1.007793016E1	-2.702018261E0	1.674270630E-1	8.837997317E-1
1.008614562E1	-2.534241915E0	-7.505798340E-2	9.822775126E-1
1.009425212E1	-2.369679928E0	2.268600464E-2	9.985899925E-1
1.010234316E1	-2.225765705E0	3.127794266E-1	9.859210849E-1
1.011045320E1	-2.139765024E0	6.090412140E-1	9.707453847E-1
1.011856774E1	-1.943696260E0	8.424873352E-1	8.594706059E-1
1.012678193E1	-1.763042927E0	1.025483131E0	7.276813984E-1
1.013487074E1	-1.813040257E0	1.150412560E0	6.537270546E-1
1.014297712E1	-1.846958399E0	1.121531487E0	5.055108666E-1
1.015106539E1	-1.863527536E0	1.133066177E0	4.361648560E-1
1.015918536E1	-1.749716043E0	1.091504097E0	3.250457048E-1
1.016741397E1	-1.728764534E0	1.049533844E0	2.884000540E-1
1.017550363E1	-1.737782478E0	9.151954651E-1	2.749547958E-1
1.018359732E1	-1.754747868E0	7.528448105E-1	3.175046444E-1
1.019170636E1	-1.850862741E0	6.511249542E-1	4.113658667E-1
1.019980297E1	-1.928811669E0	5.436725616E-1	5.376474857E-1
1.020801666E1	-1.873648167E0	3.973045349E-1	5.935779810E-1
1.021612047E1	-1.727364421E0	2.915620804E-1	6.711004972E-1
1.022421078E1	-1.633188128E0	1.733798981E-1	8.244118690E-1
1.023229639E1	-1.411406994E0	-3.162479401E-2	9.221057892E-1
1.024043289E1	-1.054638147E0	-1.953716278E-1	9.384486675E-1
1.024864778E1	-6.635754108E-1	-2.728252411E-1	9.892907143E-1
1.025673797E1	-3.444612026E-1	-3.663682938E-1	1.248684645E0
1.026484474E1	-3.043746948E-2	-3.182888031E-1	1.345837116E0
1.027292928E1	2.742359638E-1	-3.684358597E-1	1.400045395E0
1.028105997E1	5.836904049E-1	-4.100904465E-1	1.367935181E0
1.028928916E1	8.363900185E-1	-5.451803207E-1	1.172923565E0
1.029740378E1	1.066463470E0	-7.221355438E-1	8.431630135E-1
1.030549386E1	1.269774914E0	-9.196848869E-1	4.476029873E-1
1.031358966E1	1.482974052E0	-1.121393204E0	-1.843047142E-2
1.032168682E1	1.618062735E0	-1.237827301E0	-3.882532120E-1
1.032977770E1	1.614886761E0	-1.298248291E0	-6.265542507E-1
1.033788374E1	1.381402493E0	-1.346108437E0	-7.097060680E-1
1.034597589E1	1.163413048E0	-1.431627274E0	-7.687518597E-1
1.035406132E1	1.053645849E0	-1.511054993E0	-7.737212181E-1
1.036219955E1	1.043982983E0	-1.581289768E0	-7.710211277E-1
1.037041439E1	1.211611986E0	-1.508028507E0	-6.918313503E-1
1.037853374E1	1.278733969E0	-1.402643681E0	-6.853928566E-1
1.038666843E1	1.178810596E0	-1.369036674E0	-6.312053204E-1
1.039478070E1	8.456130028E-1	-1.462967396E0	-5.325374603E-1
1.040290343E1	4.447822571E-1	-1.613353729E0	-4.303631783E-1
1.041101001E1	5.990362167E-2	-1.774614334E0	-4.206260443E-1
1.041909878E1	-1.563653946E-1	-1.742239475E0	-5.144497156E-1
1.042718993E1	-3.979973793E-1	-1.586334705E0	-5.558531284E-1
1.043529539E1	-5.578606129E-1	-1.213678360E0	-5.356000662E-1
1.044339401E1	-7.923521996E-1	-9.193191528E-1	-4.330903292E-1
1.045160974E1	-1.017361641E0	-5.546855927E-1	-2.337160110E-1
1.045974178E1	-1.028111458E0	-1.176128387E-1	-5.016565323E-2
1.046785832E1	-9.712135792E-1	3.509349823E-1	1.169315577E-1
1.047595678E1	-1.207329512E0	7.511234283E-1	4.073276520E-1
1.048409439E1	-1.188826323E0	1.420450211E0	4.240916967E-1
1.049218543E1	-1.393804669E0	1.893847466E0	3.473232985E-1
1.050027582E1	-1.738320827E0	2.259737015E0	2.277324200E-1
1.050838358E1	-2.197320938E0	2.399860382E0	1.332682371E-1
1.051646928E1	-2.037673235E0	2.683222771E0	-1.535589695E-1
1.052457997E1	-1.946207285E0	2.689833641E0	-2.061376572E-1
1.053281074E1	-1.893849730E0	2.642482758E0	-9.537124634E-2
1.054092712E1	-1.712600946E0	2.476739883E0	9.391236305E-2
1.054904512E1	-1.624780416E0	2.394669533E0	2.026225328E-1
1.055713901E1	-1.566617012E0	2.291122437E0	2.384585142E-1
1.056523774E1	-1.528740406E0	2.108579636E0	1.929223537E-1
1.057333024E1	-1.489621162E0	2.034374237E0	1.151788235E-1
1.058143678E1	-1.451623440E0	1.831314087E0	4.010701180E-2
1.058953043E1	-1.471575022E0	1.741618156E0	-4.094374180E-2
1.059761839E1	-1.423703671E0	1.633846283E0	-6.270766258E-2
1.060575609E1	-1.343520641E0	1.462894440E0	-3.127121925E-2
1.061397324E1	-1.162324309E0	1.278530121E0	-8.055806160E-2
1.062209085E1	-7.802419662E-1	1.145944595E0	-2.469549179E-1
1.063022512E1	-3.515291214E-1	1.138092041E0	-4.185673594E-1
1.063830559E1	-2.487223148E-1	9.267263412E-1	-4.109418392E-1
1.064641639E1	-1.738083363E-1	6.887979507E-1	-3.774944544E-1
1.065452201E1	-1.556370258E-1	5.344676971E-1	-4.087882042E-1
1.066261116E1	3.817558289E-2	6.351909637E-1	-5.455991626E-1
1.067070185E1	2.022535801E-1	5.167636871E-1	-5.478418469E-1
1.067880801E1	4.215373993E-1	2.413396835E-1	-6.302914619E-1
1.068690701E1	6.135067940E-1	6.285762787E-2	-7.296579480E-1
1.069512312E1	6.687438488E-1	-1.572151184E-1	-6.610128880E-1
1.070325262E1	5.534317493E-1	-2.525644302E-1	-4.745427370E-1
1.071136874E1	5.316774845E-1	-4.784793854E-1	-2.187731266E-1
1.071946097E1	5.468982458E-1	-6.091499329E-1	1.052303314E-1
1.072759397E1	5.670281649E-1	-5.171146393E-1	3.292059898E-1
1.073568205E1	6.567625999E-1	-6.302270889E-1	5.708413124E-1
1.074376985E1	7.373107672E-1	-7.495384216E-1	7.226924896E-1
1.075187651E1	6.048433781E-1	-8.279571533E-1	7.817075253E-1
1.075996043E1	5.189350843E-1	-7.682676315E-1	7.831910849E-1
1.076809382E1	3.908421993E-1	-9.394254684E-1	6.739042997E-1
1.077632485E1	1.241775751E-1	-1.104966164E0	5.318011045E-1
1.078444708E1	-1.758563519E-1	-1.124221802E0	3.386036158E-1
1.079256501E1	2.886110544E-1	-1.098688126E0	3.496676683E-1
1.080068147E1	5.520905256E-1	-1.387703896E0	7.345477343E-1
1.080877624E1	5.533922911E-1	-1.661802769E0	1.073441267E0
1.081686720E1	6.247671843E-1	-2.317454815E0	1.254296184E0
1.082497389E1	1.017768264E0	-2.808285713E0	1.400781989E0
1.083306712E1	1.750801563E0	-3.254904270E0	1.405386806E0
1.084115239E1	2.444138765E0	-3.276288509E0	1.238921285E0
1.084928928E1	2.763113499E0	-2.151810646E0	7.117435932E-1
1.085750432E1	2.383706093E0	-8.432197571E-1	3.359166384E-1
1.086562074E1	1.591812849E0	1.360826492E-1	1.185092926E-1
1.087375551E1	1.463822365E0	5.739011765E-1	-8.961772919E-2
1.088184089E1	1.356171131E0	5.172472000E-1	-1.649888754E-1
1.088996289E1	1.224835157E0	1.717491150E-1	-2.024229765E-1
1.089806816E1	1.023493767E0	-2.358942032E-1	-2.695289850E-1
1.090615808E1	4.842483997E-1	-4.976587296E-1	-2.373695374E-1
1.091425062E1	-2.966222763E-1	-8.354043961E-1	-1.236958504E-1
1.092235039E1	-8.337407112E-1	-1.105899811E0	2.446055412E-2
1.093046185E1	-1.173496127E0	-1.513691425E0	2.422745228E-1
1.093867970E1	-1.254100442E0	-1.906068325E0	4.745914936E-1
1.094681239E1	-1.210079312E0	-2.069337368E0	6.455552578E-1
1.095490047E1	-1.224929214E0	-2.083205223E0	7.689206600E-1
1.096299247E1	-1.331912994E0	-2.110696793E0	8.095145226E-1
1.097112804E1	-1.495824099E0	-2.211139202E0	8.139164448E-1
1.097921793E1	-1.612595558E0	-2.379132748E0	8.026380539E-1
1.098730958E1	-1.628255367E0	-2.604669094E0	8.351469040E-1
1.099541720E1	-1.526281834E0	-2.938050747E0	8.498847485E-1
1.100352847E1	-1.469418645E0	-3.300286770E0	9.096045494E-1
1.101166104E1	-1.424111128E0	-3.607305050E0	9.249951839E-1
1.101989224E1	-1.442434311E0	-3.643677711E0	8.393899202E-1
1.102801570E1	-1.257870197E0	-3.289216995E0	5.978950262E-1
1.103613297E1	-1.106636405E0	-2.558198452E0	9.333062172E-2
1.104422778E1	-1.322464228E0	-2.100939751E0	-4.150332212E-1
1.105232620E1	-1.729959130E0	-2.241378784E0	-1.016688347E0
1.106041524E1	-2.180166245E0	-1.856772900E0	-1.738694429E0
1.106851885E1	-2.017576694E0	-1.181723595E0	-2.400105476E0
1.107660974E1	-7.153892517E-1	-2.734403610E-1	-2.839839935E0
1.108471839E1	8.545889854E-1	7.504005432E-1	-2.771631718E0
1.109285431E1	1.597179651E0	2.295649529E0	-2.753523350E0
1.110106924E1	2.042257786E0	4.608958244E0	-2.477473259E0
1.110918539E1	2.604237318E0	7.132641792E0	-1.669434071E0
1.111729262E1	2.018182278E0	9.183127403E0	-4.575829506E-1
1.112540020E1	1.035931587E0	1.048554897E1	7.990543842E-1
1.113352093E1	2.701137066E-1	1.079310703E1	1.705731273E0
1.114162647E1	-1.284270287E0	8.512259483E0	1.997836709E0
1.114971543E1	-1.734812498E0	5.019099236E0	1.956548214E0
1.115780743E1	-8.466656208E-1	2.139004707E0	1.498572946E0
1.116589831E1	-5.302956104E-1	3.324460983E-1	9.663535357E-1
1.117399662E1	-6.630356312E-1	-7.268028259E-1	5.550767183E-1
1.118221216E1	-1.004678249E0	-1.213191032E0	7.461631298E-2
1.119034374E1	-1.311437130E0	-1.427844524E0	-2.437329292E-2
1.119846312E1	-1.285007715E0	-1.584235668E0	-7.075214386E-2
1.120657731E1	-1.001145840E0	-1.449921608E0	6.986343861E-2
1.121471447E1	-4.723203182E-1	-1.483060837E0	2.009023428E-1
1.122280547E1	-1.950311661E-2	-1.264477253E0	2.862459421E-1
1.123089554E1	3.904080391E-1	-1.068688393E0	3.436206579E-1
1.123900266E1	7.068607807E-1	-8.717985153E-1	3.469079733E-1
1.124708593E1	8.644144535E-1	-6.042499542E-1	3.026372194E-1
1.125521962E1	9.141068459E-1	-3.423471451E-1	2.445516586E-1
1.126345201E1	8.686475754E-1	-1.789598465E-1	1.367291212E-1
1.127156962E1	8.677804470E-1	-1.825275421E-1	4.613757133E-2
1.127968889E1	7.094295025E-1	-2.776775360E-1	-4.142320156E-2
1.128780270E1	3.541955948E-1	-3.649520874E-1	-1.313903332E-1
1.129590178E1	3.950572014E-2	-3.671693802E-1	-2.901601791E-1
1.130399458E1	-1.658384800E-1	-3.191413879E-1	-4.156836271E-1
1.131210135E1	-2.784647942E-1	-2.030868530E-1	-5.218851566E-1
1.132019404E1	-4.054586887E-1	-7.093715668E-2	-5.619695783E-1
1.132828770E1	-5.516288280E-1	8.430671692E-2	-5.107680559E-1
1.133640324E1	-7.081413269E-1	2.163200378E-1	-3.976238966E-1
1.134461897E1	-8.450846672E-1	2.997150421E-1	-2.809077501E-1
1.135273647E1	-9.351685047E-1	3.679924011E-1	-1.817445755E-1
1.136087189E1	-8.718056679E-1	5.629129410E-1	-2.107236385E-1
1.136896758E1	-1.010440111E0	8.147335052E-1	-2.269937992E-1
1.137709008E1	-1.265452981E0	8.111791611E-1	-1.871259212E-1
1.138519350E1	-1.454011083E0	4.898204803E-1	-9.623348713E-2
1.139328381E1	-1.396710038E0	5.915927887E-2	1.417827606E-2
1.140137558E1	-1.134727120E0	-3.558788300E-1	2.136446238E-1
1.140948270E1	-7.203299999E-1	-7.986860275E-1	4.061881304E-1
1.141758008E1	-3.461682796E-1	-9.660625458E-1	4.029369354E-1
1.142579497E1	-9.587097168E-2	-8.327150345E-1	2.387572527E-1
1.143392493E1	1.192412376E-1	-4.898166656E-1	-2.559328079E-2
1.144204335E1	3.276124001E-1	-9.889030457E-2	-2.545757294E-1
1.145014127E1	3.236410618E-1	2.100572586E-1	-4.252158403E-1
1.145827950E1	1.779460907E-1	2.976818085E-1	-5.223363638E-1
1.146636789E1	1.541314125E-1	2.568016052E-1	-6.885371208E-1
1.147458289E1	3.385305405E-2	1.463079453E-1	-7.532312870E-1
1.148272177E1	-1.560740471E-1	-4.884052277E-2	-6.983353496E-1
1.149084608E1	-3.360059261E-1	-1.041469574E-1	-5.931941271E-1
1.149895954E1	-5.459508896E-1	1.815509796E-2	-4.620152712E-1
1.150709235E1	-6.924335957E-1	3.054389954E-1	-3.435901999E-1
1.151518131E1	-8.618396521E-1	5.896596909E-1	-2.295525670E-1
1.152327385E1	-1.032153368E0	7.465343475E-1	-5.509006977E-2
1.153138412E1	-1.183469772E0	7.968730927E-1	9.503579140E-2
1.153948120E1	-1.276289821E0	7.410631180E-1	2.232235670E-1
1.154769897E1	-1.258527637E0	5.770645142E-1	3.929846287E-1
1.155593039E1	-1.187151074E0	4.371204376E-1	5.110490322E-1
1.156404997E1	-1.017611027E0	2.839031219E-1	5.840187073E-1
1.157217647E1	-7.733598948E-1	1.298017502E-1	6.053482294E-1
1.158031854E1	-4.519329071E-1	-6.538200378E-2	5.779291391E-1
1.158844262E1	-1.349904537E-1	-1.575555801E-1	4.912166595E-1
1.159653397E1	9.991598129E-2	-2.855863571E-1	3.800497055E-1
1.160463997E1	2.759852409E-1	-4.279413223E-1	2.909795046E-1
1.161274116E1	4.489796162E-1	-5.175466537E-1	1.786179543E-1
1.162086408E1	5.985770226E-1	-5.102634430E-1	8.230996132E-2
1.162909497E1	6.721689701E-1	-4.183769226E-1	-3.147804737E-2
1.163730943E1	6.713659763E-1	-2.751798630E-1	-1.343719959E-1
1.164542670E1	5.602114201E-1	-1.047420502E-1	-2.037619352E-1
1.165351562E1	4.589433670E-1	-2.698040009E-2	-2.029584646E-1
1.166164585E1	4.282774925E-1	-1.102256775E-2	-1.938216686E-1
1.166976897E1	3.936228752E-1	1.811981201E-4	-1.433031559E-1
1.167787327E1	3.872132301E-1	-2.225589752E-2	-8.097279072E-2
1.168596766E1	3.954849243E-1	-2.810478210E-2	-1.039075851E-2
1.169406162E1	4.025111198E-1	8.788967133E-2	2.821564674E-3
1.170219758E1	3.852081299E-1	1.699953079E-1	2.480840683E-2
1.171041362E1	3.695790768E-1	1.585454941E-1	8.574724197E-2
1.171863054E1	3.600859642E-1	1.518096924E-1	1.590173244E-1
1.172676374E1	3.254709244E-1	9.476280212E-2	2.541087866E-1
1.173487212E1	2.369048595E-1	1.375865936E-2	3.494836092E-1
1.174298112E1	1.640417576E-1	-2.182292938E-2	4.067902565E-1
1.175111800E1	1.048893929E-1	-1.452064514E-2	3.928240538E-1
1.175920839E1	7.399249077E-2	-2.900600433E-2	3.840774298E-1
1.176729896E1	2.052545547E-3	-1.489868164E-1	4.130951166E-1
1.177537946E1	-8.423852921E-2	-2.500314713E-1	4.414316416E-1
1.178347931E1	-1.684648991E-1	-4.181890488E-1	4.783964157E-1
1.179169377E1	-2.158894539E-1	-2.520742416E-1	3.269686699E-1
1.179992423E1	-2.608416080E-1	-8.684730530E-2	2.159841061E-1
1.180804073E1	-1.967830658E-1	8.363723755E-3	1.669727564E-1
1.181614927E1	2.508807182E-2	9.138584137E-2	1.177679300E-1
1.182429158E1	2.543437481E-1	1.502361298E-1	1.322351694E-1
1.183241516E1	2.711834908E-1	1.799468994E-1	1.701381207E-1
1.184050723E1	3.454034328E-1	2.021532059E-1	7.893860340E-2
1.184861485E1	4.107105732E-1	3.028793335E-1	1.648437977E-2
1.185671273E1	4.329195023E-1	3.458328247E-1	-5.323171616E-3
1.186483731E1	4.615046978E-1	3.455877304E-1	3.864407539E-3
1.187307173E1	2.992784977E-1	1.419487000E-1	4.645323753E-2
1.188129085E1	2.725160122E-1	-4.902076721E-2	-7.023203373E-2
1.188941181E1	3.282144070E-1	-1.934413910E-1	-4.183995724E-2
1.189750258E1	1.171720028E-1	-3.773317337E-1	1.297466755E-1
1.190560208E1	-9.278321266E-2	-7.448711395E-1	1.549216509E-1
1.191372758E1	-2.255702019E-1	-9.708967209E-1	2.634265423E-1
1.192183462E1	-2.682538033E-1	-1.129336357E0	3.839244843E-1
1.192992793E1	-3.529422283E-1	-1.177144051E0	4.242310524E-1
1.193802612E1	-4.096696377E-1	-9.253902435E-1	4.759104252E-1
1.194616177E1	-5.263887644E-1	-6.256999969E-1	4.844590425E-1
1.195437750E1	-5.664430857E-1	-3.356809616E-1	3.763457537E-1
1.196259262E1	-5.337132215E-1	-1.225824356E-1	2.137012482E-1
1.197069262E1	-5.117191076E-1	2.290916443E-2	1.698732376E-2
1.197880112E1	-5.571061373E-1	1.339654922E-1	-1.745208502E-1
1.198693023E1	-6.111479998E-1	1.886100769E-1	-3.457880020E-1
1.199506693E1	-6.280133724E-1	2.272567749E-1	-5.767481327E-1
1.200315716E1	-5.585376024E-1	2.668619156E-1	-7.637470365E-1
1.201124973E1	-4.134197235E-1	2.981405258E-1	-9.281888008E-1
1.201935254E1	-1.554155350E-1	4.123544693E-1	-1.079496264E0
1.202745043E1	1.161918640E-1	5.356435776E-1	-1.103005409E0
1.203566566E1	2.158331871E-1	5.729560852E-1	-1.015857935E0
1.204389596E1	2.352614403E-1	5.016031265E-1	-8.126491308E-1
1.205201381E1	1.656346321E-1	2.689228058E-1	-4.760394692E-1
1.206012104E1	1.119656563E-1	3.284740448E-2	-1.941403151E-1
1.206826096E1	1.784639359E-1	-1.489315033E-1	2.129936218E-2
1.207638604E1	3.352639675E-1	-2.326288223E-1	1.309338808E-1
1.208447454E1	4.092206955E-1	-2.619924545E-1	1.607559919E-1
1.209258173E1	4.516973495E-1	-3.166389465E-1	1.567937136E-1
1.210068120E1	4.870514870E-1	-2.891950607E-1	5.670905113E-2
1.210880223E1	6.098392010E-1	-2.224655151E-1	-5.054867268E-2
1.211703250E1	5.602574348E-1	-2.435293198E-1	-1.010844707E-1
1.212524796E1	4.379169941E-1	-2.399978638E-1	-9.193956852E-2
1.213336777E1	3.334636688E-1	-2.026882172E-1	-8.898043633E-2
1.214145854E1	1.106104851E-1	-1.943216324E-1	-3.418648243E-2
1.214956839E1	-2.586390972E-1	-2.003602982E-1	1.101731062E-1
1.215768973E1	-4.301869869E-1	-1.434230804E-1	2.420537472E-1
1.216579577E1	-4.256389141E-1	1.593370438E-1	3.149840832E-1
1.217388789E1	-3.738827705E-1	5.037889481E-1	3.837532997E-1
1.218198635E1	-4.491500854E-1	7.866249084E-1	5.010468960E-1
1.219012527E1	-4.998745918E-1	1.003273964E0	6.103676558E-1
1.219834204E1	-5.815451145E-1	1.162126541E0	7.397520542E-1
1.220655893E1	-5.310134888E-1	1.267068863E0	8.446655273E-1
1.221469293E1	-8.348444700E-1	1.118969917E0	1.029638052E0
1.222280346E1	-9.732558727E-1	8.705978394E-1	1.190924883E0
1.223093589E1	-9.506862164E-1	5.819101334E-1	1.235522866E0
1.223907296E1	-9.197318554E-1	1.961212158E-1	1.261685848E0
1.224716293E1	-8.016284704E-1	-8.088207245E-2	1.279428959E0
1.225525535E1	-6.416347027E-1	-3.236141205E-1	1.274907827E0
1.226336392E1	-4.853167534E-1	-4.951047897E-1	1.224595308E0
1.227145996E1	-2.848186493E-1	-6.194448471E-1	1.159679413E0
1.227967685E1	-6.230640411E-2	-7.310914993E-1	1.096507549E0
1.228790746E1	1.864798069E-1	-7.829408646E-1	9.992599487E-1
1.229602885E1	4.981429577E-1	-8.198776245E-1	8.808832169E-1
1.230415519E1	7.798559666E-1	-8.594818115E-1	7.711079121E-1
1.231229750E1	9.981544018E-1	-9.202308655E-1	6.814038754E-1
1.232042077E1	1.183652163E0	-1.031560898E0	5.998435020E-1
1.232851250E1	1.355973721E0	-1.117919445E0	5.051355362E-1
1.233662058E1	1.536230803E0	-1.157218933E0	4.222581387E-1
1.234471716E1	1.761492252E0	-1.140213490E0	3.223514557E-1
1.235284200E1	1.883268356E0	-1.074072361E0	1.839389801E-1
1.236107473E1	1.931097269E0	-1.031351089E0	1.273393631E-3
1.236929204E1	1.882964134E0	-1.019607067E0	-1.855535507E-1
1.237741450E1	1.763053894E0	-1.047007084E0	-3.905670643E-1
1.238550408E1	1.599964619E0	-1.111884594E0	-6.090846062E-1
1.239363408E1	1.348741770E0	-1.183974743E0	-7.961475849E-1
1.240175750E1	1.046077967E0	-1.287921429E0	-9.435534477E-1
1.240990396E1	6.848981380E-1	-1.453054428E0	-9.948887825E-1
1.241811927E1	3.310925961E-1	-1.660358906E0	-9.870699644E-1
1.242630485E1	9.631109238E-2	-1.822983742E0	-9.113553762E-1
1.243445804E1	-5.008339882E-2	-1.915744305E0	-7.948305607E-1
1.244265146E1	-2.442979813E-1	-1.964639664E0	-6.464838982E-1
1.245074454E1	-5.053746700E-1	-1.916498184E0	-5.002682209E-1
1.245885400E1	-7.731382847E-1	-1.855658531E0	-3.367073536E-1
1.246696785E1	-1.116417646E0	-1.661369801E0	-2.378857136E-1
1.247506962E1	-1.382494688E0	-1.504610538E0	-1.856236458E-1
1.248330385E1	-1.593867660E0	-1.346868992E0	-1.829239130E-1
1.249149816E1	-1.687887907E0	-1.241179943E0	-1.928057671E-1
1.249969235E1	-1.692092061E0	-1.049385548E0	-1.305855513E-1
1.250778981E1	-1.517412424E0	-7.263517380E-1	-6.945872307E-2
1.251593704E1	-1.189218998E0	1.825714111E-2	-5.852425098E-2
1.252415466E1	-9.611587524E-1	1.067456245E0	-1.132638454E-1
1.254035808E1	-7.152378559E-1	3.856790543E0	5.571401119E-2
1.254847038E1	-6.430120468E-1	5.117856026E0	2.493416071E-1
1.255658942E1	-6.593246460E-1	6.110148430E0	2.962110043E-1
1.256480785E1	-6.757354736E-1	6.547889709E0	1.031192541E-1
1.257300104E1	-9.227464199E-1	6.071936607E0	-2.784973383E-2
1.258121108E1	-1.388369799E0	4.642642975E0	-1.307237148E-2
1.258945692E1	-1.751800537E0	2.950489998E0	8.883762360E-2
1.259759515E1	-1.875744581E0	1.325467110E0	2.439669967E-1
1.260582846E1	-2.037934780E0	3.328323364E-3	3.132852912E-1
1.261391950E1	-2.324713469E0	-1.043457508E0	2.727118731E-1
1.262201465E1	-2.613769770E0	-1.664524078E0	1.523683071E-1
1.263010796E1	-2.857414961E0	-1.931794643E0	-3.635019064E-2
1.263820700E1	-2.859992027E0	-2.029355049E0	-2.860249877E-1
1.264642512E1	-2.646080971E0	-2.163331985E0	-5.213990808E-1
1.265463319E1	-2.427731037E0	-2.153778076E0	-7.390240431E-1
1.266282473E1	-2.224595070E0	-1.984020233E0	-9.054706097E-1
1.267106365E1	-1.962382674E0	-1.627369404E0	-1.031188846E0
1.267931008E1	-1.769934177E0	-1.142886162E0	-1.103389621E0
1.268752623E1	-1.546844244E0	-5.501613617E-1	-1.094167709E0
1.269561731E1	-1.130981207E0	7.413959503E-2	-9.912734628E-1
1.270372492E1	-7.856900692E-1	6.554813385E-1	-8.493030667E-1
1.271183769E1	-2.364773750E-1	1.176200867E0	-7.801393270E-1
1.271993812E1	2.335643768E-1	1.750631332E0	-7.186605334E-1
1.272817031E1	8.006725311E-1	2.316432953E0	-1.246045947E0
1.273636254E1	1.330256462E0	2.739825249E0	-2.027492046E0
1.274455477E1	1.420403481E0	2.772719383E0	-2.802004099E0
1.275264138E1	1.384023428E0	2.624067307E0	-3.322405815E0
1.276078950E1	1.236671686E0	2.263343811E0	-3.609949589E0
1.276900550E1	5.689163208E-1	1.471181870E0	-3.448840380E0
1.277711169E1	-9.914255142E-2	4.104776382E-1	-2.557310820E0
1.278520604E1	-3.049054146E-1	-6.815748215E-1	-1.007790446E0
1.279331954E1	1.866097450E-1	-1.769414425E0	-1.791970432E-2
1.280145862E1	4.404998779E0	-3.197216988E0	6.630085707E-1
1.280967627E1	1.220433140E1	-1.060226536E1	1.259092927E0
1.281786788E1	-1.267783642E0	-4.182760715E0	6.911078095E-2
1.282607515E1	-2.296676397E0	-6.054134369E-1	-8.419847488E-2
1.283431662E1	6.106371880E-1	5.453691483E-1	6.035048962E-1
1.284254873E1	3.751883268E0	8.253393173E-1	4.199218154E-1
1.285078285E1	7.884754181E0	4.817867279E-2	-2.503793478E0
1.285887635E1	3.841675758E0	1.261399269E0	-2.062944174E0
1.286696762E1	-1.694183230E0	2.912168503E0	1.866399646E0
1.287505804E1	-1.315752506E0	2.339406013E0	2.520227909E0
1.288315462E1	3.824965954E-1	1.461997032E0	5.276250839E-1
1.289136915E1	2.035092115E0	6.112356186E-1	-5.812298059E-1
1.289957323E1	2.087755680E0	3.138170242E-1	-9.662766457E-1
1.290776377E1	6.437993050E-1	4.547481537E-1	-1.227272987E0
1.291597915E1	-7.083528042E-1	3.486623764E-1	-1.379078865E0
1.292409019E1	-1.004707575E0	1.678752899E-2	-1.414165854E0
1.293230542E1	-6.840417385E-1	-4.042062759E-1	-1.407330751E0
1.294039769E1	-2.043428421E-1	-7.513227463E-1	-1.335579395E0
1.294850581E1	1.637988091E-1	-9.763445854E-1	-1.060601830E0
1.295659311E1	2.849473953E-1	-1.114380836E0	-6.917051077E-1
1.296470281E1	3.527574539E0	-2.882697582E0	-9.328805923E0
1.297280815E1	6.959924698E-1	-1.494987011E0	3.735046864E0
1.298099931E1	8.148384094E-1	-1.456154823E0	1.517879605E0
1.298918777E1	-6.294851303E-1	-1.538400650E-1	2.876891136E0
1.299727138E1	-5.226564407E-2	1.054058075E-1	9.832053185E-1
1.300541442E1	-5.368661880E-2	2.037324905E-1	-1.273900867E-1
1.301360238E1	-9.798681736E-1	8.940496445E-1	-1.282204390E-1
1.302170650E1	-1.299164772E0	9.656534195E-1	6.148332953E-1
1.302979754E1	-1.154651403E0	5.394372940E-1	-3.833174706E-2
1.303787981E1	-8.061370850E-1	3.264522552E-1	-6.084887385E-1
1.304601696E1	-7.428936958E-1	2.708892822E-1	-6.501984596E-1
1.305423331E1	-6.280300617E-1	1.242122650E-1	-6.345653534E-1
1.306242327E1	-1.186323166E-2	-3.588018417E-1	-2.992436290E-1
1.307062819E1	2.636761665E-1	-4.254865646E-1	1.678164601E-1
1.307871411E1	5.781173706E-3	-5.270080566E-1	9.679504633E-1
1.308684846E1	5.219354630E-1	-7.116804123E-1	4.973281622E-1
1.309508123E1	1.018666267E0	-5.400314331E-1	-6.774318218E-1
1.310317208E1	1.489809036E0	-1.328706741E-1	-1.156191826E0
1.311126634E1	1.526943684E0	3.762493134E-1	-1.075584173E0
1.311937369E1	1.430786610E0	8.038740158E-1	-6.840934753E-1
1.312747123E1	1.242973804E0	7.782182693E-1	-2.238332629E-1
1.313568638E1	8.181152344E-1	3.172473907E-1	1.194579601E-1
1.314389238E1	3.998980522E-1	-3.055353165E-1	2.339761555E-1
1.315208415E1	2.226262093E-1	-8.503446579E-1	3.364282846E-2
1.316032354E1	2.471017838E-2	-1.195720196E0	-2.160423398E-1
1.316847269E1	-5.954408646E-2	-1.140869617E0	-4.723867178E-1
1.317668877E1	-1.215348244E-1	-7.738800049E-1	-6.013048291E-1
1.318477861E1	-2.528190613E-2	-2.253932953E-1	-6.373140216E-1
1.319288269E1	4.495320320E-1	2.113714218E-1	-6.539543867E-1
1.320097281E1	9.543609619E-1	2.451715469E-1	-7.285739779E-1
1.320910161E1	1.176705837E0	1.539354324E-1	-6.997261643E-1
1.321733092E1	1.085831165E0	1.087789536E-1	-6.001740694E-1
1.322552204E1	9.807319641E-1	6.442070007E-2	-5.483309031E-1
1.323371131E1	7.783174515E-1	1.020259857E-1	-4.127256870E-1
1.324181161E1	7.006258965E-1	5.447006226E-2	-2.728767395E-1
1.324995711E1	5.699954033E-1	-2.502059937E-2	-1.705745459E-1
1.325817415E1	3.905267715E-1	-9.754562378E-2	-7.194834948E-2
1.326627869E1	2.834191322E-1	-3.133182526E-1	3.867858648E-2
1.327437008E1	8.871126175E-2	-4.713573456E-1	-4.340052605E-2
1.328246231E1	4.969501495E-2	-6.358561516E-1	-1.783762574E-1
1.329059834E1	1.736068726E-2	-7.363009453E-1	-2.498724461E-1
1.329881292E1	-4.772663116E-2	-6.529259682E-1	-3.415717483E-1
1.330700119E1	-1.440243721E-1	-3.725481033E-1	-3.961164355E-1
1.331520569E1	-1.742992401E-1	-1.893682480E-1	-2.838522196E-1
1.332328596E1	-1.822857857E-1	2.385234833E-2	-2.201891541E-1
1.333142531E1	-2.313537598E-1	2.679004669E-1	-2.683515549E-1
1.333965604E1	-2.511076927E-1	3.686580658E-1	-1.138358116E-1
1.334774481E1	-2.357764244E-1	4.036474228E-1	8.137601614E-2
1.335583657E1	-2.733345032E-1	5.141582489E-1	1.506283283E-1
1.336394254E1	-3.572964668E-1	5.151414871E-1	-6.192409992E-2
1.337205277E1	-4.420952797E-1	4.782552719E-1	-1.842439175E-1
1.338026634E1	-4.871368408E-1	1.615524292E-1	-2.781800032E-1
1.338846823E1	-6.070303917E-1	-5.476570129E-2	-1.956220865E-1
1.339665427E1	-7.288556099E-1	-1.797962189E-1	-8.008146286E-2
1.340473830E1	-8.195643425E-1	-2.445154190E-1	5.546808243E-2
1.341288688E1	-9.161894321E-1	-2.961091995E-1	1.060633659E-1
1.342110127E1	-8.288333416E-1	-2.784185410E-1	1.761751771E-1
1.342918838E1	-6.532559395E-1	-2.521800995E-1	2.293595076E-1
1.343729277E1	-4.118051529E-1	-2.741985321E-1	2.008070946E-1
1.344538477E1	-1.487340927E-1	-3.581142426E-1	9.658014774E-2
1.345351619E1	1.072015762E-1	-4.907894135E-1	1.016499996E-1
1.346174704E1	3.235473633E-1	-5.662555695E-1	1.049506664E-2
1.346993592E1	4.062671661E-1	-5.458688736E-1	-6.986737251E-3
1.347812519E1	2.858805656E-1	-4.811296463E-1	-5.918431282E-2
1.348622050E1	2.596759796E-1	-3.711061478E-1	-1.561601162E-1
1.349436477E1	3.572840691E-1	-2.726545334E-1	-1.719646454E-1
1.350257838E1	4.632167816E-1	-1.665401459E-1	-1.223959923E-1
1.351068100E1	4.847021103E-1	-8.909893036E-2	1.323115826E-2
1.351877131E1	5.778555870E-1	-5.271911621E-2	1.833178997E-1
1.352686007E1	5.035281181E-1	1.651544571E-1	2.994004488E-1
1.353499357E1	6.088166237E-1	3.298149109E-1	4.728845954E-1
1.354320630E1	6.584572792E-1	4.992761612E-1	5.764262080E-1
1.355139469E1	7.762765884E-1	5.854492188E-1	6.280195713E-1
1.355959869E1	7.390961647E-1	5.193138123E-1	6.216042042E-1
1.356768446E1	7.044448853E-1	3.299121857E-1	5.815030336E-1
1.357581880E1	6.696882248E-1	1.250009537E-1	5.113732815E-1
1.358404661E1	6.092190742E-1	-5.756378174E-2	4.245584309E-1
1.359213415E1	5.243196487E-1	-1.825351715E-1	3.997993171E-1
1.360022404E1	4.585294724E-1	-2.428970337E-1	3.728508651E-1
1.360832961E1	4.415173531E-1	-1.887722015E-1	2.391615510E-1
1.361642369E1	4.468932152E-1	-9.202861786E-2	1.295769811E-1
1.362463584E1	5.686674118E-1	-3.984880447E-1	2.841271460E-1
1.364102754E1	3.822741508E-1	-4.048719406E-1	5.140944123E-1
1.364910688E1	1.092348099E-1	-7.769298553E-2	4.030432105E-1
1.365725527E1	-2.257585526E-2	1.816787720E-1	2.020234466E-1
1.366547000E1	-8.243751526E-2	3.407487869E-1	1.647613943E-1
1.367355969E1	-8.867692947E-2	3.273115158E-1	7.927492261E-2
1.368166577E1	-1.698002815E-1	3.168249130E-1	7.193776965E-2
1.368975861E1	-2.407135963E-1	2.475528717E-1	5.755949020E-2
1.369789038E1	-2.774677277E-1	1.792774200E-1	8.412003517E-3
1.370611976E1	-3.828530312E-1	2.076292038E-1	-3.120070696E-2
1.371430873E1	-5.587430000E-1	2.892036438E-1	-1.268824339E-1
1.372249800E1	-6.870837212E-1	3.589172363E-1	-1.794502735E-1
1.373059750E1	-7.466163635E-1	4.073228836E-1	-2.522899508E-1
1.373874042E1	-7.124128342E-1	4.411392212E-1	-3.335346580E-1
1.374695457E1	-6.059794426E-1	4.089059830E-1	-3.860917091E-1
1.375505753E1	-4.586715698E-1	2.868852615E-1	-4.028264284E-1
1.376314869E1	-3.383936882E-1	8.969974518E-2	-3.118249774E-1
1.377124019E1	-3.010525703E-1	-9.848880768E-2	-1.899106503E-1
1.377935580E1	-2.921729088E-1	-2.391538620E-1	-2.821749449E-2
1.378754850E1	-2.424125671E-1	-3.058624268E-1	9.267151356E-3
1.379573711E1	-1.554551125E-1	-3.516902924E-1	-3.171175718E-2
1.380394076E1	-1.109590530E-1	-3.677673340E-1	-1.362527907E-1
1.381212284E1	-8.706378937E-2	-3.373336792E-1	-2.148783207E-1
1.382035030E1	-3.201627731E-2	-2.850732803E-1	-2.866351902E-1
1.382855265E1	-2.239131927E-2	-2.037391663E-1	-3.709622622E-1
1.383664180E1	-1.504802704E-2	-1.364040375E-1	-4.619805217E-1
1.384473311E1	-1.220893860E-2	-3.524112701E-2	-5.640504360E-1
1.385283923E1	-1.117515564E-2	7.561397552E-2	-6.811631918E-1
1.386093573E1	-2.389860153E-2	1.745405197E-1	-7.456037998E-1
1.386915234E1	-7.162046432E-2	2.326192856E-1	-7.157125473E-1
1.387735815E1	-2.164835930E-1	2.041425705E-1	-6.234149933E-1
1.388554861E1	-4.387352467E-1	1.509389877E-1	-5.261331797E-1
1.389373084E1	-6.572089195E-1	8.497333527E-2	-4.709966183E-1
1.390197465E1	-9.100654125E-1	3.474903107E-2	-4.027152658E-1
1.391016565E1	-1.021280289E0	-2.563285828E-2	-2.840595245E-1
1.391825473E1	-9.994835854E-1	-6.918907166E-2	-1.318629980E-1
1.392636038E1	-8.970506191E-1	-1.695156097E-2	-1.645964384E-2
1.393445246E1	-6.885542870E-1	3.102397919E-2	8.015292883E-2
1.394258492E1	-4.027602673E-1	8.683872223E-2	1.286257803E-1
1.395081511E1	-1.427807808E-1	1.745071411E-1	1.863166094E-1
1.395900661E1	-2.065443993E-2	2.675256729E-1	1.654856205E-1
1.396719757E1	1.919484138E-2	3.571004868E-1	1.657239199E-1
1.397538211E1	-6.535768509E-2	4.140853882E-1	1.799569130E-1
1.398069207E1	-1.510803699E-1	4.092950821E-1	1.848512590E-1
1.398358753E1	-1.893875599E-1	4.045066833E-1	1.944280565E-1
1.399177896E1	-3.577179909E-1	4.039516449E-1	2.520025671E-1
1.399988596E1	-5.650897026E-1	3.681030273E-1	3.383975625E-1
1.400798246E1	-7.922387123E-1	3.352031708E-1	4.161793590E-1
1.401607719E1	-9.452970028E-1	3.170251846E-1	4.839497209E-1
1.402421365E1	-1.175061464E0	3.006219864E-1	6.000560522E-1
1.403242876E1	-1.460440159E0	3.571414948E-1	7.410587668E-1
1.404061950E1	-1.695487976E0	6.685781479E-1	9.451279640E-1
1.404882388E1	-1.973323107E0	1.032661438E0	1.240755081E0
1.405700650E1	-2.116072178E0	1.505047798E0	1.439996839E0
1.406523388E1	-2.256026268E0	2.031476021E0	1.709779739E0
1.407343861E1	-2.379014015E0	2.507824898E0	1.987937689E0
1.408152692E1	-2.384561777E0	2.829677582E0	2.281100035E0
1.408961696E1	-2.267949581E0	2.882696152E0	2.569493294E0
1.409770665E1	-2.092447042E0	2.628973007E0	2.641561508E0
1.410580203E1	-1.907218933E0	2.019230843E0	2.469786644E0
1.411401523E1	-1.685503483E0	1.314441681E0	2.125915527E0
1.412222046E1	-1.467449903E0	5.839872360E-1	1.768052220E0
1.413041153E1	-1.110960722E0	-4.439926147E-2	1.420710087E0
1.413862057E1	-7.461981773E-1	-5.103807449E-1	1.197402954E0
1.414686457E1	-2.996106148E-1	-8.325586319E-1	1.001105309E0
1.415505422E1	1.388335228E-1	-9.834213257E-1	8.366966248E-1
1.416314699E1	5.744421482E-1	-9.965467453E-1	7.198094726E-1
1.417125323E1	1.009330511E0	-8.758554459E-1	6.514252424E-1
1.417933576E1	1.366366863E0	-7.265243530E-1	6.450669765E-1
1.418744834E1	1.703674793E0	-5.347423553E-1	6.695190668E-1
1.419567907E1	2.009273529E0	-3.319463730E-1	7.065670490E-1
1.420386942E1	2.252000570E0	-1.104211807E-1	7.218439579E-1
1.421205992E1	2.297347784E0	1.571922302E-1	7.264491320E-1
1.422024342E1	2.128102541E0	4.297580719E-1	6.523908377E-1
1.422834123E1	1.727528095E0	6.342992783E-1	5.060833693E-1
1.423653088E1	1.099078178E0	7.649030685E-1	2.658241987E-1
1.424463442E1	4.401705265E-1	7.084503174E-1	4.424273968E-2
1.425272461E1	-1.978092194E-1	5.015411377E-1	-1.010248661E-1
1.426081538E1	-7.761857510E-1	1.346416473E-1	-1.663856506E-1
1.426895180E1	-1.105202913E0	-2.029123306E-1	-9.583377838E-2
1.427716746E1	-1.307190180E0	-5.336246490E-1	6.657075882E-2
1.428535796E1	-1.288361549E0	-8.318815231E-1	2.809755802E-1
1.429356265E1	-1.298773766E0	-1.094168663E0	5.307481289E-1
1.430174642E1	-1.256947994E0	-1.311172009E0	7.460808754E-1
1.430997592E1	-1.188734293E0	-1.588041306E0	9.404830933E-1
1.431818142E1	-9.695091248E-1	-1.723469257E0	1.055890799E0
1.432627084E1	-7.756407261E-1	-1.893265247E0	1.062318563E0
1.433436276E1	-5.006353855E-1	-1.954805374E0	9.875419140E-1
1.434245984E1	-2.194099426E-1	-1.959192276E0	7.816846371E-1
1.435055657E1	-2.339124680E-3	-1.876293659E0	5.238924026E-1
1.435877296E1	1.337158680E-1	-1.760431767E0	3.122339249E-1
1.436697946E1	2.886791229E-1	-1.613008976E0	1.487646103E-1
1.437517046E1	5.060188770E-1	-1.490896225E0	5.726861954E-2
1.438335507E1	7.263438702E-1	-1.375154018E0	-7.398366928E-3
1.439159772E1	9.201085567E-1	-1.225417614E0	-1.957416534E-2
1.439978811E1	1.045227289E0	-1.073496819E0	5.332517624E-2
1.440787688E1	1.066400528E0	-8.559684753E-1	2.380449772E-1
1.441598546E1	9.818470478E-1	-6.676168442E-1	3.896641731E-1
1.442407819E1	8.874783516E-1	-4.874362946E-1	4.434037209E-1
1.443217684E1	7.452769279E-1	-3.173627853E-1	4.437735081E-1
1.444040765E1	5.233292580E-1	-1.878089905E-1	3.643510342E-1
1.444859746E1	1.994869709E-1	-5.699539185E-2	2.114171982E-1
1.445678784E1	-1.920967102E-1	4.517841339E-2	-1.737773418E-2
1.446497126E1	-6.471529007E-1	1.510477066E-1	-1.739041805E-1
1.447317476E1	-1.062118769E0	2.131490707E-1	-2.732049227E-1
1.448136446E1	-1.361146927E0	2.049169540E-1	-3.247935772E-1
1.448946853E1	-1.539307952E0	1.105575562E-1	-2.787610292E-1
1.449755892E1	-1.605442524E0	-9.359359741E-3	-1.425178051E-1
1.450564980E1	-1.573364973E0	-2.399082184E-1	-4.024410248E-2
1.451378649E1	-1.377735615E0	-3.608388901E-1	-5.216336250E-2
1.452200084E1	-1.124884129E0	-3.362150192E-1	-1.043947935E-1
1.453018988E1	-9.785978794E-1	-2.091150284E-1	-2.070742846E-1
1.453839434E1	-8.252251148E-1	4.649257660E-2	-2.076889277E-1
1.454657469E1	-5.519094467E-1	3.860292435E-1	-1.103333235E-1
1.455480092E1	-8.345317841E-2	8.661689758E-1	1.319491863E-2
1.456300445E1	1.936242580E-1	1.288852692E0	2.232356071E-1
1.457109299E1	3.419213295E-1	1.557765961E0	4.062682390E-1
1.457918272E1	4.118077755E-1	1.621157646E0	5.561102629E-1
1.458728795E1	3.392922878E-1	1.473383904E0	6.425337791E-1
1.459539826E1	1.862111092E-1	1.154537201E0	7.033429146E-1
1.460361426E1	6.137609482E-3	6.888246536E-1	6.912879944E-1
1.461181899E1	-1.143190861E-1	8.891582489E-2	6.455366611E-1
1.462000742E1	-2.144107819E-1	-2.790508270E-1	6.401921511E-1
1.462818853E1	-2.832489014E-1	-6.091461182E-1	5.965433121E-1
1.463643303E1	-3.981008530E-1	-7.655973434E-1	5.734453201E-1
1.464462361E1	-6.497468948E-1	-7.688875198E-1	4.792079926E-1
1.465271499E1	-9.024541378E-1	-6.704635620E-1	2.784855366E-1
1.466082049E1	-1.905595422E0	-3.369464874E-1	-9.833341241E-1
1.466890222E1	-3.666014671E0	-1.587419510E-1	-2.493538380E0
1.467703442E1	-1.928711534E0	-4.514579773E-1	-1.111238241E0
1.468526449E1	4.572911263E-1	-9.329824448E-1	1.032534242E0
1.469345553E1	9.058964252E-1	-9.774618149E-1	1.545063019E0
1.470164549E1	1.872584820E-1	-6.474704742E-1	1.048555732E0
1.470982934E1	-4.749495983E-1	-8.635711670E-2	-1.384744644E-1
1.471792972E1	-3.234581947E-1	1.045484543E-1	-8.463757634E-1
1.472612015E1	-1.535108089E-1	1.118888855E-1	-1.219498038E0
1.473422445E1	1.384377480E-2	2.356033325E-1	-1.339195132E0
1.474231480E1	2.626626492E-1	5.412158966E-1	-1.164795637E0
1.475039876E1	7.430143356E-1	1.108534813E0	-8.958513737E-1
1.475853434E1	1.362200975E0	1.831502914E0	-8.885011673E-1
1.476674707E1	2.050930500E0	2.500686646E0	-1.188785911E0
1.477493580E1	2.469753265E0	2.770128250E0	-1.435962677E0
1.478314192E1	2.705301523E0	2.625276566E0	-1.520658016E0
1.479135180E1	2.674786806E0	2.086718559E0	-1.467688322E0
1.479957845E1	2.224217892E0	1.221197128E0	-1.346032262E0
1.480778342E1	1.419379234E0	2.171535492E-1	-1.177774191E0
1.481587180E1	8.651561737E-1	-5.894975662E-1	-1.001641273E0
1.482396345E1	6.125731468E-1	-1.248806953E0	-8.155134916E-1
1.483205284E1	4.816765785E-1	-1.759967804E0	-6.578450203E-1
1.484014942E1	4.347474575E-1	-2.054063320E0	-4.993245602E-1
1.484836476E1	3.359713554E-1	-2.067707062E0	-2.583059072E-1
1.485657011E1	2.797205448E-1	-1.786744595E0	-1.613104343E-2
1.486476084E1	3.024303913E-1	-1.352577686E0	2.370077968E-1
1.487294426E1	4.581089020E-1	-9.888496399E-1	3.613232374E-1
1.488119118E1	6.177756786E-1	-5.961332321E-1	4.098231196E-1
1.488938330E1	7.048883438E-1	-2.509250641E-1	3.747609854E-1
1.489747484E1	7.405781746E-1	4.626464844E-2	2.767807245E-1
1.490558334E1	6.691646576E-1	2.899780273E-1	6.931185722E-2
1.491367768E1	5.278723240E-1	4.491643906E-1	-1.984304786E-1
1.492177811E1	3.737754822E-1	5.314607620E-1	-4.476801753E-1
1.493000953E1	1.659340858E-1	5.891637802E-1	-6.366573572E-1
1.493820118E1	-7.460832596E-2	5.848321915E-1	-7.582395077E-1
1.494639303E1	-3.940334320E-1	5.805482864E-1	-8.134017587E-1
1.495457872E1	-6.755447388E-1	4.892110825E-1	-7.771043181E-1
1.496278322E1	-9.283387661E-1	3.226795197E-1	-6.932976246E-1
1.497097526E1	-9.949417114E-1	1.097650528E-1	-5.402706861E-1
1.497908057E1	-9.753947258E-1	-1.200513840E-1	-4.194917381E-1
1.498717503E1	-9.052295685E-1	-3.024396896E-1	-3.965712488E-1
1.499526891E1	-8.241126537E-1	-3.569011688E-1	-4.707871079E-1
1.500338780E1	-6.079847813E-1	-4.236249924E-1	-5.789198279E-1
1.501160699E1	-3.450753689E-1	-4.993953705E-1	-6.088937521E-1
1.501979918E1	-1.348090172E-2	-5.466480255E-1	-5.880159140E-1
1.502800653E1	2.199778557E-1	-5.920419693E-1	-5.066689849E-1
1.503619095E1	3.910195827E-1	-6.681852341E-1	-4.039152265E-1
1.504442022E1	5.237805843E-1	-7.895803452E-1	-2.647102475E-1
1.505262826E1	6.180899143E-1	-9.681596756E-1	-8.423611522E-2
1.506071984E1	6.603510380E-1	-1.197011948E0	7.831323147E-2
1.506881430E1	6.655273438E-1	-1.441257954E0	2.033887506E-1
1.507692241E1	6.484780312E-1	-1.567773342E0	2.536888719E-1
1.508502057E1	6.377611160E-1	-1.609760284E0	1.951614469E-1
1.509323811E1	9.656033516E-1	-1.551073551E0	-1.285833865E-1
1.510144438E1	9.755024910E-1	-1.141556740E0	-3.252628446E-1
1.510963638E1	9.841115475E-1	-4.532022476E-1	-4.498977661E-1
1.511781895E1	1.023636580E0	4.853610992E-1	-5.700787306E-1
1.512606311E1	1.147505045E0	1.210202217E0	-6.531959176E-1
1.513425357E1	1.251173258E0	1.826057434E0	-7.660320997E-1
1.514234257E1	1.226782560E0	2.339050293E0	-7.187442780E-1
1.515855838E1	6.789135933E-1	2.924798012E0	-2.643180490E-1
1.516665672E1	5.370750427E-1	2.506370544E0	-4.442444444E-2
1.517488703E1	3.942656517E-1	1.411811829E0	1.170459241E-1
1.518307914E1	4.554593563E-1	3.838253021E-1	1.699716449E-1
1.519127064E1	6.529538631E-1	-4.910144806E-1	1.542684138E-1
1.519945522E1	9.119534492E-1	-1.140610695E0	8.971327543E-2
1.520755457E1	1.120268583E0	-1.513657093E0	4.506856203E-2
1.521574607E1	1.216908693E0	-1.683994293E0	-5.510926247E-3
1.522385264E1	1.471695662E0	-1.770377636E0	-1.116545573E-1
1.523194541E1	1.773570776E0	-1.807294846E0	-1.462105364E-1
1.524006291E1	1.827884912E0	-1.610404015E0	-1.475229859E-1
1.524820084E1	1.814533234E0	-1.534198761E0	-3.140700161E-1
1.525641699E1	1.631770849E0	-1.298120975E0	-4.026730359E-1
1.526460918E1	1.411762476E0	-1.014873505E0	-3.896468878E-1
1.527281645E1	1.149723291E0	-7.179498672E-1	-2.889119685E-1
1.528099938E1	4.570038319E-1	-4.134159088E-1	-2.530344725E-1
1.528922772E1	-3.553354740E-1	-1.428375244E-1	-2.638123035E-1
1.529743395E1	-8.008224964E-1	-8.588409424E-2	-3.024741411E-1
1.530552418E1	-1.109136581E0	-1.652107239E-1	-3.190726042E-1
1.531361664E1	-1.510706425E0	-1.828145981E-1	-4.083940387E-1
1.532981164E1	-2.080734730E0	-5.441474915E-2	-4.782760143E-1
1.534623322E1	-1.904827833E0	3.143854141E-1	-1.621986926E-1
1.535442422E1	-1.625342607E0	5.508413315E-1	1.570829600E-1
1.536260614E1	-1.257164717E0	7.561655045E-1	4.546518028E-1
1.537084926E1	-8.422777653E-1	9.550399780E-1	7.339507341E-1
1.537904014E1	-3.799047470E-1	1.030529022E0	9.073375463E-1
1.538712880E1	-2.737522125E-3	9.911355972E-1	9.538405538E-1
1.539523418E1	2.362558842E-1	9.225425720E-1	8.726588488E-1
1.540332718E1	2.878501415E-1	8.263473511E-1	7.323305607E-1
1.541143845E1	2.606430054E-1	7.106885910E-1	6.287707090E-1
1.541966730E1	1.965954304E-1	5.796766281E-1	5.550636053E-1
1.543604718E1	-5.239796638E-2	3.432931900E-1	5.987951756E-1
1.544423176E1	-1.115725040E-1	2.246980667E-1	6.169770360E-1
1.545243295E1	1.485681534E-2	9.155273438E-2	6.298209429E-1
1.546062210E1	7.912969589E-2	-6.204605103E-3	5.673619509E-1
1.546872634E1	9.860992432E-2	-6.870174408E-2	4.175597429E-1
1.547681668E1	1.002871990E-1	-1.152868271E-1	2.256840020E-1
1.548490772E1	1.124522686E-1	-1.361942291E-1	5.738313496E-2
1.549304572E1	1.667022705E-1	-1.579999924E-1	-1.400494277E-1
1.550126018E1	1.712975502E-1	-1.646022797E-1	-3.200079203E-1
1.550944991E1	1.373975277E-1	-1.590099335E-1	-4.927299619E-1
1.551765568E1	8.224940300E-2	-1.878776550E-1	-6.148534417E-1
1.552583757E1	-6.171512604E-2	-1.969661713E-1	-6.509105563E-1
1.553406807E1	-1.975805759E-1	-2.131404877E-1	-6.497457027E-1
1.554227380E1	-3.237602711E-1	-2.274637222E-1	-5.980747938E-1
1.555036268E1	-3.701012135E-1	-2.631683350E-1	-5.775743723E-1
1.555845399E1	-3.372170925E-1	-2.984352112E-1	-5.226038098E-1
1.556656160E1	-2.969319820E-1	-3.045043945E-1	-4.675737619E-1
1.557465641E1	-2.589135170E-1	-2.956686020E-1	-3.855258524E-1
1.558287095E1	-2.110848427E-1	-2.135553360E-1	-2.679989934E-1
1.559107537E1	-1.559257507E-1	-1.203794479E-1	-1.421276182E-1
1.559926599E1	-7.840943336E-2	-1.787281036E-2	-4.607492313E-2
1.561569284E1	2.393078804E-2	1.298274994E-1	1.030733138E-1
1.562388253E1	7.245111465E-2	1.583442688E-1	1.765260398E-1
1.563197026E1	1.359808445E-1	1.588258743E-1	2.391635180E-1
1.564007564E1	1.624603271E-1	1.454019547E-1	2.847576737E-1
1.564816584E1	1.673691273E-1	8.501434326E-2	3.007331491E-1
1.565629649E1	1.514449120E-1	4.289150238E-2	3.027656376E-1
1.567271226E1	6.852936745E-2	-8.853912354E-3	2.358936667E-1
1.568090203E1	7.501101494E-2	-3.737068176E-2	2.408485115E-1
1.568908337E1	7.121849060E-2	-7.195758820E-2	2.912743390E-1
1.569718103E1	-2.115225792E-2	-1.511669159E-1	3.897096217E-1
1.570536864E1	7.314419746E-2	-1.289100647E-1	4.568162560E-1
1.571347203E1	-3.010749817E-3	-1.088609695E-1	4.861678779E-1
1.572156141E1	-5.978369713E-2	-2.422618866E-2	4.523106813E-1
1.572965226E1	-9.450078011E-2	4.588603973E-2	4.486411214E-1
1.573778964E1	-1.494309902E-1	1.083536148E-1	4.295533001E-1
1.574600372E1	-1.711282730E-1	1.844358444E-1	3.553384542E-1
1.575419226E1	-2.547240257E-1	2.571220398E-1	2.327551693E-1
1.576239587E1	-3.547251225E-1	3.790779114E-1	1.496430188E-1
1.577057668E1	-4.527156353E-1	4.323749542E-1	1.570681930E-1
1.577880299E1	-5.244116783E-1	4.695816040E-1	2.198043466E-1
1.578700668E1	-5.257077217E-1	4.146223068E-1	3.094887733E-1
1.580318626E1	-1.490895748E-1	2.390537262E-1	2.246954888E-1
1.581129295E1	-1.648368835E-1	2.408971786E-1	-1.939192414E-3
1.581940307E1	-2.112870216E-1	2.043237686E-1	-2.393629849E-1
1.582761776E1	-2.397415638E-1	6.441307068E-2	-4.767009616E-1
1.583582260E1	-1.851437092E-1	-1.717967987E-1	-6.562350988E-1
1.584401322E1	-8.882856369E-2	-4.275398254E-1	-6.979662180E-1
1.585219510E1	6.333589554E-3	-6.349868774E-1	-6.557584405E-1
1.586043830E1	1.081688404E-1	-8.079071045E-1	-6.085548401E-1
1.586862799E1	2.728769779E-1	-9.410581589E-1	-5.744432211E-1
1.587671576E1	4.598619938E-1	-1.012979507E0	-5.258885622E-1
1.588482014E1	6.745204926E-1	-1.043063164E0	-3.906990886E-1
1.589291164E1	8.423433304E-1	-1.035285950E0	-2.599854171E-1
1.590100991E1	9.614055157E-1	-9.977970123E-1	-2.160767317E-1
1.590923899E1	9.578485489E-1	-9.322910309E-1	-3.068372011E-1
1.591742826E1	8.356850147E-1	-8.129005432E-1	-3.154934645E-1
1.592561541E1	6.457283497E-1	-6.158008575E-1	-3.362866640E-1
1.593379603E1	3.619310856E-1	-4.007720947E-1	-3.543077409E-1
1.594199614E1	1.096560955E-1	-2.167882919E-1	-4.096971750E-1
1.595018256E1	-1.120529175E-1	-5.466461182E-2	-4.216929078E-1
1.595828233E1	-2.895791531E-1	1.090135574E-1	-3.967099786E-1
1.596637022E1	-4.760603905E-1	2.344102859E-1	-3.222850561E-1
1.597445814E1	-6.492729187E-1	3.554458618E-1	-2.190156579E-1
1.599080606E1	-8.952326775E-1	5.266752243E-1	-4.544982314E-2
1.599899426E1	-9.474012852E-1	5.963888168E-1	1.248624921E-2
1.600719772E1	-1.050760508E0	6.955404282E-1	2.004346400E-1
1.601537714E1	-9.662504196E-1	7.597036362E-1	4.260501266E-1
1.602360187E1	-9.446325302E-1	8.205156326E-1	7.912535667E-1
1.603180433E1	-7.025463581E-1	8.314094543E-1	1.188039303E0
1.603989064E1	-4.713392258E-1	7.977743149E-1	1.334192038E0
1.604798260E1	-3.173990250E-1	7.433376312E-1	1.276050568E0
1.605608649E1	-2.761421204E-1	7.158489227E-1	1.026222229E0
1.606417960E1	-2.824730873E-1	6.241626740E-1	7.372007370E-1
1.607239245E1	-2.707643509E-1	4.942731857E-1	4.599724412E-1
1.608059522E1	-2.553856373E-1	3.766059875E-1	2.555326223E-1
1.608878318E1	-2.026519775E-1	3.048152924E-1	5.225303769E-2
1.609696472E1	-1.867861748E-1	2.599544525E-1	-2.118807882E-1
1.610520764E1	-1.197223663E-1	2.422714233E-1	-3.509959280E-1
1.611339841E1	4.636669159E-2	2.245874405E-1	-4.612560272E-1
1.612148795E1	2.457206249E-1	1.274166107E-1	-5.279812813E-1
1.612959430E1	4.107687473E-1	-9.251594543E-3	-5.748198032E-1
1.613768572E1	5.126998425E-1	-1.974020004E-1	-5.574554205E-1
1.614581726E1	5.206904411E-1	-3.358335495E-1	-6.460395455E-1
1.615404691E1	4.951801300E-1	-4.670619965E-1	-8.535634279E-1
1.617042910E1	1.967337132E-1	-5.683956146E-1	-1.130302548E0
1.617861433E1	-5.371809006E-3	-5.379800797E-1	-1.111431122E0
1.618671426E1	-1.489520073E-1	-4.094562531E-1	-8.909081817E-1
1.619490326E1	-2.312200069E-1	-2.771492004E-1	-5.537832379E-1
1.620300633E1	-2.931716442E-1	-1.338129044E-1	-1.874857247E-1
1.621109799E1	-3.500874043E-1	4.731178284E-3	1.426356584E-1
1.621919018E1	-3.843383789E-1	1.348943710E-1	3.720040321E-1
1.622730572E1	-3.927333355E-1	2.277240753E-1	4.939494729E-1
1.623552026E1	-2.329792976E-1	2.397966385E-1	5.073056817E-1
1.624371087E1	-1.150603294E-1	2.088556290E-1	4.174873233E-1
1.625191499E1	2.076053619E-1	8.389472961E-2	2.258483768E-1
1.626009722E1	3.947324753E-1	-5.369663239E-2	1.533993781E-1
1.626832491E1	5.316777229E-1	-1.606569290E-1	1.745816171E-1
1.627652960E1	5.748136044E-1	-1.690196991E-1	2.404772341E-1
1.628461818E1	5.195038319E-1	-9.710216522E-2	2.926766574E-1
1.629270683E1	4.609880447E-1	-6.764411926E-3	2.964762151E-1
1.630081199E1	4.549088478E-1	3.015327454E-2	2.142823040E-1
1.630890660E1	3.812878132E-1	5.376720428E-2	1.230056584E-1
1.631712249E1	2.331693172E-1	4.407691956E-2	-4.412233829E-4
1.632532779E1	7.424354553E-2	4.130077362E-2	-4.055067897E-2
1.633351968E1	-2.161335945E-2	4.791927338E-2	-5.050861835E-2
1.634170226E1	-1.174128056E-1	1.152324677E-2	-8.740237355E-2
1.634994418E1	-1.755244732E-1	-2.458572388E-2	-4.643759131E-2
1.635813433E1	-2.058253288E-1	-4.351711273E-2	2.535900474E-2
1.636622514E1	-2.063519955E-1	-5.470085144E-2	9.464474022E-2
1.637433106E1	-2.319307327E-1	-4.622650146E-2	1.645878553E-1
1.638242033E1	-2.184243202E-1	-4.508399963E-2	2.186911404E-1
1.639055022E1	-2.129337788E-1	-1.566791534E-2	2.369278520E-1
1.639878172E1	-1.723952293E-1	-3.502845764E-3	2.323953509E-1
1.640697095E1	-1.184127331E-1	-2.537441254E-2	2.373139113E-1
1.641516214E1	-6.557917595E-2	-3.335189819E-2	2.219198346E-1
1.642334822E1	-5.888962746E-2	-3.481483459E-2	1.999127269E-1
1.643155210E1	-7.667565346E-2	-3.221511841E-2	1.995067149E-1
1.643974345E1	-2.039136887E-1	-1.400947571E-2	1.824095547E-1
1.644784952E1	-2.088294029E-1	3.250122070E-3	2.096733749E-1
1.645594168E1	-1.926035881E-1	-1.369380951E-2	1.293189824E-1
1.646403564E1	-3.192329407E-2	-3.328990936E-2	6.855762005E-2
1.647217483E1	1.032721996E-1	-2.921772003E-2	1.286652684E-2
1.648039229E1	2.420489788E-1	-2.316761017E-2	9.292513132E-3
1.648858352E1	3.561820984E-1	-2.489280701E-2	-1.689402759E-2
1.649678806E1	4.072444439E-1	-1.672935486E-2	-8.128508925E-2
1.650497126E1	4.487380981E-1	-1.966953278E-2	-9.196276963E-2
1.651320033E1	4.930140972E-1	-3.299999237E-2	-1.170216054E-1
1.652140622E1	5.291423798E-1	-5.863285065E-2	-1.312987506E-1
1.652949552E1	5.356035233E-1	-6.784915924E-2	-1.085433513E-1
1.653758702E1	5.034656525E-1	-7.762145996E-2	-6.589020789E-2
1.654569468E1	5.029792786E-1	-8.344841003E-2	-4.530909657E-2
