"Time (s)"	"Acceleration x (m/s^2)"	"Acceleration y (m/s^2)"	"Acceleration z (m/s^2)"
7.548077000E-3	4.668693244E-1	4.668693244E-1	9.334992409E0
1.053821000E-2	4.979939461E-1	4.836287498E-1	9.390059471E0
1.174303900E-2	5.363011956E-1	5.123591423E-1	9.433155060E0
1.462997900E-2	5.889736414E-1	5.434837937E-1	9.442731857E0
1.595603900E-2	6.368576288E-1	5.674257874E-1	9.428366661E0
1.872144100E-2	6.871358752E-1	5.985504389E-1	9.402029991E0
1.997476900E-2	7.445967197E-1	6.344634295E-1	9.380482674E0
2.281359500E-2	8.092401624E-1	6.536170840E-1	9.346963882E0
2.405773100E-2	8.619126081E-1	6.655880809E-1	9.320627213E0
2.690563300E-2	8.882488012E-1	6.679822803E-1	9.306262016E0
2.858119200E-2	9.097966552E-1	6.775590777E-1	9.318233490E0
3.096078700E-2	9.169792533E-1	6.847416759E-1	9.325415611E0
3.212530800E-2	9.385270476E-1	7.062895298E-1	9.334992409E0
3.501801800E-2	9.888052940E-1	7.326257229E-1	9.346963882E0
3.659350000E-2	1.106121182E0	7.829039693E-1	9.346963882E0
3.908732600E-2	1.177947283E0	8.188169599E-1	9.301473618E0
4.026115400E-2	1.259350061E0	8.571242094E-1	9.210494041E0
4.314463300E-2	1.335964561E0	9.169792533E-1	9.097966194E0
4.444730800E-2	1.393425345E0	9.696516991E-1	8.961497307E0
4.728986400E-2	1.436521053E0	1.010353088E0	8.825027466E0
4.849673100E-2	1.467645645E0	1.051054597E0	8.688557625E0
5.138140200E-2	1.498770237E0	1.086967587E0	8.561665535E0
5.293284600E-2	1.532289028E0	1.110909581E0	8.444349289E0
5.541840200E-2	1.561019540E0	1.120486379E0	8.348581314E0
5.658350000E-2	1.565807939E0	1.120486379E0	8.295908928E0
5.947501800E-2	1.544260144E0	1.118092179E0	8.276755333E0
6.105376900E-2	1.505952835E0	1.113303781E0	8.300697327E0
6.354378700E-2	1.465251446E0	1.094150186E0	8.355764389E0
6.471534600E-2	1.493981838E0	1.082179189E0	8.425195694E0
6.760036400E-2	2.003946781E0	1.115697980E0	8.523358345E0
6.930238500E-2	2.882618904E0	1.058237195E0	8.683769226E0
7.163790200E-2	2.851494312E0	9.696516991E-1	8.717288017E0
7.281850000E-2	2.463633537E0	7.374141216E-1	8.726864815E0
7.569459500E-2	1.958456993E0	5.027823448E-1	8.690952301E0
7.725857700E-2	1.388636947E0	2.346317619E-1	8.676587105E0
7.976282500E-2	1.276109457E0	1.771709323E-1	8.688557625E0
8.095161600E-2	1.110909581E0	9.576806426E-2	8.729259491E0
8.381955600E-2	1.012747288E0	4.070143029E-2	8.827422142E0
8.519911600E-2	9.888052940E-1	5.027823523E-2	8.963891029E0
8.777065400E-2	1.003170490E0	1.556231081E-1	9.040505409E0
8.923396200E-2	1.000776291E0	3.303998411E-1	9.045293808E0
9.204109500E-2	1.350329757E0	5.099649429E-1	9.129091263E0
9.363153900E-2	2.293645144E0	3.495534360E-1	9.284713745E0
9.609201800E-2	2.901772499E0	1.795651317E-1	9.519346237E0
9.728019200E-2	2.973598480E0	1.364694983E-1	9.816226959E0
1.001490560E-1	2.844311714E0	1.939303428E-1	1.012747288E1
1.017202310E-1	2.827552319E0	2.992752194E-1	1.036928749E1
1.042176710E-1	2.839523315E0	3.998316824E-1	1.053927612E1
1.054066150E-1	2.782062292E0	5.051765442E-1	1.067335129E1
1.082746710E-1	2.674323320E0	6.081272364E-1	1.075235939E1
1.099459620E-1	2.437297344E0	7.278373241E-1	1.076193619E1
1.123505560E-1	2.145204782E0	8.667010069E-1	1.073081207E1
1.135402310E-1	1.939303398E0	9.888052940E-1	1.070447540E1
1.164075940E-1	1.836352706E0	1.084573388E0	1.072362900E1
1.179889620E-1	1.678335428E0	1.165976286E0	1.068532181E1
1.204915940E-1	1.455674648E0	1.228225470E0	1.062786102E1
1.216709230E-1	1.321599364E0	1.266532660E0	1.068053341E1
1.245487480E-1	1.137245774E0	1.285686255E0	1.064462090E1
1.258535000E-1	8.954314590E-1	1.261744261E0	1.057279491E1
1.286785560E-1	7.445967197E-1	1.209071875E0	1.057518864E1
1.298887690E-1	7.805097699E-1	1.187524080E0	1.053448772E1
1.327709410E-1	1.278503656E0	1.254561663E0	1.041717148E1
1.343494230E-1	3.552995205E0	1.474828243E0	1.039322948E1
1.368072870E-1	4.022258759E0	1.431732655E0	1.049857426E1
1.380019230E-1	4.118026733E0	1.077390790E0	1.080503273E1
1.408651330E-1	3.533841610E0	5.027823448E-1	1.103008747E1
1.424577690E-1	2.643198729E0	-2.777273953E-1	1.104924107E1
1.449486330E-1	2.509123325E0	-4.357447028E-1	1.097502041E1
1.461705000E-1	2.698265314E0	-5.195417404E-1	1.076911926E1
1.490059790E-1	2.990357876E0	-4.453215301E-1	1.080024433E1
1.507175770E-1	2.758120298E0	-3.399766386E-1	1.105881786E1
1.530855560E-1	2.346317768E0	-3.447650373E-1	1.108515358E1
1.543554230E-1	1.970427990E0	-3.830722570E-1	1.100614548E1
1.571429020E-1	1.766920805E0	-4.165911078E-1	1.090798283E1
1.587436150E-1	1.731007814E0	-4.046200812E-1	1.083615685E1
1.612132100E-1	1.786074519E0	-3.519476354E-1	1.078587818E1
1.624034230E-1	1.900996208E0	-2.657563984E-1	1.072362900E1
1.652701710E-1	2.094926596E0	-1.628057212E-1	1.060391903E1
1.665904230E-1	2.341529369E0	-6.943184882E-2	1.041956615E1
1.692506540E-1	2.557007313E0	-1.197100803E-2	1.017056847E1
1.706466150E-1	2.717418909E0	2.154781483E-2	9.907206535E0
1.735073630E-1	2.827552319E0	2.873042040E-2	9.643844604E0
1.750760000E-1	2.916137695E0	2.394201607E-2	9.368511200E0
1.775445560E-1	2.966415882E0	2.394201700E-3	9.085995674E0
1.787826540E-1	2.944868088E0	-1.915361360E-2	8.827422142E0
1.816025560E-1	2.904166698E0	-1.197100803E-2	8.595184326E0
1.831705770E-1	2.880224705E0	9.576806799E-3	8.396465302E0
1.856724790E-1	2.904166698E0	4.309562966E-2	8.202534676E0
1.869012690E-1	2.985569477E0	1.029506698E-1	8.010998726E0
1.897305560E-1	3.301604033E0	2.298433632E-1	7.738059998E0
1.914399620E-1	3.974374771E0	4.237737060E-1	7.328651428E0
1.937613250E-1	4.005499363E0	4.381389022E-1	7.321468830E0
1.949492310E-1	3.833117008E0	4.381389022E-1	7.381323814E0
1.978196710E-1	3.648763418E0	4.477157295E-1	7.429207802E0
1.994038850E-1	3.564966440E0	5.195417404E-1	7.407660007E0
2.018883630E-1	3.569754839E0	5.578489900E-1	7.374141216E0
2.030688080E-1	3.555389643E0	6.129156351E-1	7.285555840E0
2.059466710E-1	3.529053211E0	6.751648784E-1	7.228095055E0
2.072638850E-1	3.464409828E0	7.781155705E-1	7.228095055E0
2.100775170E-1	3.332728863E0	7.829039693E-1	7.264008045E0
2.113071920E-1	3.248931646E0	7.900865674E-1	7.369352818E0
2.141703250E-1	3.208230257E0	8.331822157E-1	7.431602001E0
2.157459620E-1	3.198653460E0	9.026140571E-1	7.462726593E0
2.182217860E-1	3.229778051E0	1.003170490E0	7.489062786E0
2.194118850E-1	3.236960649E0	1.137245774E0	7.505822182E0
2.222789790E-1	3.062183857E0	1.283292055E0	7.522581577E0
2.238505000E-1	2.868253708E0	1.376665950E0	7.534552574E0
2.263482860E-1	2.782062292E0	1.434126854E0	7.553706169E0
2.275498080E-1	2.650381327E0	1.458068848E0	7.548917770E0
2.304057090E-1	2.451662540E0	1.453280449E0	7.541735172E0
2.320863460E-1	2.236184359E0	1.465251446E0	7.584830761E0
2.344888250E-1	2.056619167E0	1.482010841E0	7.608773232E0
2.356844620E-1	1.848323703E0	1.484405041E0	7.560888767E0
2.385459020E-1	1.525106430E0	1.426944256E0	7.644686222E0
2.401293080E-1	1.027112484E0	1.352723956E0	7.726089001E0
2.426303630E-1	5.027823448E-1	1.266532660E0	7.757213593E0
2.438156920E-1	1.005564705E-1	1.158793569E0	7.934384346E0
2.466868250E-1	-5.530605912E-1	1.082179189E0	8.128314972E0
2.479844620E-1	-1.261744261E0	1.041477680E0	8.401253700E0
2.507153460E-1	-1.766920805E0	1.003170490E0	8.705317497E0
2.521040380E-1	-2.185906172E0	9.457096457E-1	8.935160637E0
2.549080170E-1	-2.523488522E0	8.762778044E-1	9.184157372E0
2.565454620E-1	-3.045424461E0	7.350199223E-1	9.696516991E0
2.589453630E-1	-3.172317266E0	6.751648784E-1	9.883264542E0
2.601388080E-1	-3.088520288E0	7.374141216E-1	1.016817474E1
2.630021710E-1	-2.803610086E0	8.020575643E-1	1.026394272E1
2.645786920E-1	-2.853888512E0	6.607996821E-1	1.040280628E1
2.670857480E-1	-3.007117271E0	5.626373887E-1	1.060152531E1
2.682830000E-1	-3.169923067E0	5.243301988E-1	1.085770512E1
2.711421710E-1	-3.344699860E0	4.932055473E-1	1.108994198E1
2.728252310E-1	-3.478775024E0	4.525041282E-1	1.115219116E1
2.752178250E-1	-3.387795448E0	3.591302633E-1	1.107797146E1
2.764528850E-1	-2.975992680E0	2.106897533E-1	1.095347309E1
2.792747860E-1	-2.319981337E0	5.027823523E-2	1.080742645E1
2.808386150E-1	-1.546654344E0	-1.149216816E-1	1.052969933E1
2.833440170E-1	-7.326257229E-1	-2.920926213E-1	1.016338634E1
2.845268460E-1	1.292868853E-1	-4.716577232E-1	9.830592155E0
2.874015940E-1	1.053448796E0	-6.440402865E-1	9.631873131E0
2.887383850E-1	1.929726601E0	-8.020575643E-1	9.512163162E0
2.915465170E-1	2.765302896E0	-9.720458984E-1	9.538499832E0
2.928443460E-1	3.517082214E0	-1.189918280E0	9.672574997E0
2.956382090E-1	4.153939724E0	-1.417367458E0	9.840168953E0
2.972587310E-1	4.659116745E0	-1.628057122E0	9.976638794E0
2.996736710E-1	5.015852451E0	-1.819593310E0	1.002931118E1
3.008666540E-1	5.185841084E0	-1.984793186E0	9.998186111E0
3.037310940E-1	5.185841084E0	-2.128445387E0	9.880870819E0
3.052957310E-1	4.996698856E0	-2.281674147E0	9.674968719E0
3.078002860E-1	4.910507679E0	-2.312798738E0	9.615114212E0
3.089985000E-1	4.776432514E0	-2.291250944E0	9.548076630E0
3.118578250E-1	4.726154327E0	-2.152387381E0	9.493009567E0
3.135673460E-1	4.422090530E0	-2.123656988E0	9.607931137E0
3.158938630E-1	4.280832767E0	-2.128445387E0	9.689333916E0
3.172104230E-1	4.000710964E0	-2.133233786E0	9.852140427E0
3.199504010E-1	3.749319792E0	-2.106897593E0	9.981427193E0
3.215215380E-1	3.450044632E0	-2.039859772E0	1.010592556E1
3.239869780E-1	3.399766445E0	-2.001552582E0	1.013704967E1
3.252332310E-1	3.383007050E0	-1.915361404E0	1.017775154E1
3.280441320E-1	3.500322819E0	-1.790862918E0	1.020648193E1
3.294177690E-1	3.648763418E0	-1.692700624E0	1.020408726E1
3.319803850E-1	3.845088005E0	-1.577778935E0	1.019690514E1
3.333864610E-1	4.079719543E0	-1.450886250E0	1.017535686E1
3.362672470E-1	4.321534157E0	-1.280897856E0	1.016099167E1
3.378813080E-1	4.515464306E0	-1.079784989E0	1.015380955E1
3.403180170E-1	4.620809078E0	-8.547300100E-1	1.015620327E1
3.415959610E-1	4.649539471E0	-6.153098345E-1	1.013944435E1
3.443754400E-1	4.601655483E0	-3.926490843E-1	1.009634876E1
3.460180770E-1	4.496310711E0	-1.963245422E-1	1.002691650E1
3.484445170E-1	4.364629745E0	-2.873042040E-2	9.959878922E0
3.497233460E-1	4.223371983E0	1.101332754E-1	9.916783333E0
3.525017090E-1	4.091690540E0	2.178723514E-1	9.897629738E0
3.542403080E-1	3.988739967E0	3.040636182E-1	9.878476143E0
3.565524400E-1	3.919308186E0	3.878606856E-1	9.828198433E0
3.577530000E-1	3.895366192E0	4.740519226E-1	9.718064308E0
3.606097860E-1	3.890577793E0	5.458779931E-1	9.603142738E0
3.624449610E-1	3.751713991E0	6.272808313E-1	9.631873131E0
3.646935170E-1	3.526659012E0	7.206547260E-1	9.782708168E0
3.660025380E-1	3.280056238E0	7.948749661E-1	9.986215591E0
3.687506700E-1	3.007117271E0	8.212111592E-1	1.011071396E1
3.700978460E-1	2.662352324E0	7.924807668E-1	1.016817474E1
3.728807090E-1	2.236184359E0	7.445967197E-1	1.013465595E1
3.741087310E-1	1.795651317E0	6.943184733E-1	1.006522369E1
3.769724400E-1	1.472434044E0	6.679822803E-1	1.012986755E1
3.786435000E-1	1.070208192E0	7.206547260E-1	1.054406452E1
3.810092860E-1	9.097966552E-1	8.020575643E-1	1.088882923E1
3.822382310E-1	9.648633003E-1	9.433154464E-1	1.114979744E1
3.850663240E-1	9.337386489E-1	1.113303781E0	1.138442898E1
3.868300770E-1	6.488286853E-1	1.137245774E0	1.142513084E1
3.891504400E-1	7.589619160E-1	1.082179189E0	1.122401714E1
3.905666540E-1	1.551442742E0	1.031900883E0	1.076433086E1
3.932076320E-1	2.576161146E0	9.504981041E-1	1.017296314E1
3.949106540E-1	3.409343243E0	8.810662031E-1	9.684545517E0
3.972579400E-1	3.871424198E0	8.667010069E-1	9.385271072E0
3.984781150E-1	3.866635799E0	9.289502501E-1	9.208099365E0
4.013152860E-1	3.459621429E0	1.070208192E0	9.191340446E0
4.030362310E-1	2.760514498E0	1.242590666E0	9.327810287E0
4.053845550E-1	1.996764183E0	1.340752959E0	9.521739960E0
4.066111540E-1	1.436521053E0	1.295263171E0	9.636661530E0
4.094419010E-1	1.199495077E0	1.120486379E0	9.641449928E0
4.108180000E-1	1.235408068E0	8.523358107E-1	9.560047150E0
4.134703840E-1	1.431732655E0	5.219359994E-1	9.418789864E0
4.148043460E-1	1.671152830E0	1.675941199E-1	9.260771751E0
4.176793240E-1	1.872265697E0	-1.388636976E-1	9.117119789E0
4.192854230E-1	2.063801765E0	-4.596867263E-1	9.026140213E0
4.217160930E-1	2.104503393E0	-5.410895944E-1	9.038111687E0
4.229013460E-1	2.126051188E0	-6.584054828E-1	9.081207275E0
4.257734390E-1	2.104503393E0	-7.086837292E-1	9.112331390E0
4.274580380E-1	2.049436569E0	-7.733271718E-1	9.066842079E0
4.298426320E-1	2.030282974E0	-8.188169599E-1	9.035717010E0
4.310382690E-1	1.999158382E0	-9.313444495E-1	8.975862503E0
4.339006700E-1	1.999158382E0	-1.053448796E0	8.937555313E0
4.356143840E-1	2.039859772E0	-1.230619669E0	8.944737434E0
4.379436320E-1	2.056619167E0	-1.273715258E0	8.961497307E0
4.391366540E-1	2.094926596E0	-1.321599364E0	9.002198219E0
4.420009390E-1	2.140416384E0	-1.288080573E0	9.076418877E0
4.435754230E-1	2.135627985E0	-1.221042871E0	9.145850182E0
4.460381320E-1	2.087743998E0	-1.122880578E0	9.217676163E0
4.472167310E-1	2.008735180E0	-9.935936928E-1	9.287108421E0
4.500954390E-1	1.920149803E0	-8.499416113E-1	9.351752281E0
4.515223840E-1	1.831564307E0	-7.038952708E-1	9.380482674E0
4.542279010E-1	1.757344007E0	-5.650315881E-1	9.361329079E0
4.555518460E-1	1.707065821E0	-4.501099288E-1	9.306262016E0
4.583203620E-1	1.695094824E0	-3.591302633E-1	9.246406555E0
4.599032310E-1	1.704671621E0	-2.920926213E-1	9.193734169E0
4.623722850E-1	1.726219416E0	-2.394201756E-1	9.150638580E0
4.636054230E-1	1.757344007E0	-2.011129409E-1	9.124302864E0
4.664300160E-1	1.771709204E0	-1.747767180E-1	9.102754593E0
4.681130000E-1	1.762132406E0	-1.628057212E-1	9.083600998E0
4.704994780E-1	1.740584612E0	-1.532289088E-1	9.076418877E0
4.719972690E-1	1.716642618E0	-1.484405100E-1	9.069235802E0
4.745566700E-1	1.695094824E0	-1.436520964E-1	9.064447403E0
4.762853840E-1	1.654393315E0	-1.651999205E-1	9.057265282E0
4.786089010E-1	1.635239720E0	-1.867477298E-1	9.059659004E0
4.800402690E-1	1.596932530E0	-2.513911724E-1	9.052476883E0
4.826665160E-1	1.584961534E0	-3.112462163E-1	9.040505409E0
4.847794610E-1	1.580173135E0	-4.285621047E-1	9.026140213E0
4.867043620E-1	1.580173135E0	-4.692635238E-1	9.021351814E0
4.878946920E-1	1.587355733E0	-5.386953950E-1	8.997409821E0
4.907613240E-1	1.618480325E0	-6.081272364E-1	8.963891029E0
4.920671540E-1	1.647210717E0	-6.703764796E-1	8.932766914E0
4.947398840E-1	1.651999116E0	-7.374141216E-1	8.889671326E0
4.961135000E-1	1.628057122E0	-7.996633649E-1	8.834604263E0
4.989845550E-1	1.572990537E0	-8.690952063E-1	8.748413086E0
5.006926540E-1	1.556231141E0	-9.121908545E-1	8.707711220E0
5.030207470E-1	1.544260144E0	-9.409212470E-1	8.669404030E0
5.043035770E-1	1.532289028E0	-9.672574997E-1	8.626308441E0
5.070776310E-1	1.532289028E0	-9.959878922E-1	8.583212852E0
5.086631540E-1	1.541865945E0	-1.036689281E0	8.528146744E0
5.111598620E-1	1.553836942E0	-1.072602391E0	8.477868080E0
5.123407690E-1	1.582567334E0	-1.106121182E0	8.437167168E0
5.152167080E-1	1.616086125E0	-1.156399369E0	8.396465302E0
5.168970380E-1	1.647210717E0	-1.213860273E0	8.367734909E0
5.192686310E-1	1.671152830E0	-1.280897856E0	8.358158112E0
5.204550380E-1	1.685518026E0	-1.367089152E0	8.367734909E0
5.233255540E-1	1.692700624E0	-1.453280449E0	8.403648376E0
5.248939230E-1	1.687912226E0	-1.515529633E0	8.458714485E0
5.273936700E-1	1.668758631E0	-1.553836942E0	8.494627953E0
5.285945000E-1	1.644816518E0	-1.572990537E0	8.485051155E0
5.314503620E-1	1.618480325E0	-1.580173135E0	8.437167168E0
5.327734610E-1	1.594538331E0	-1.584961534E0	8.367734909E0
5.355957470E-1	1.572990537E0	-1.604115129E0	8.310274124E0
5.369692690E-1	1.556231141E0	-1.644816518E0	8.276755333E0
5.396877470E-1	1.546654344E0	-1.702277422E0	8.259995461E0
5.412488460E-1	1.525106430E0	-1.817199111E0	8.228871346E0
5.437233240E-1	1.520318031E0	-1.857900500E0	8.212111473E0
5.449776150E-1	1.517923832E0	-1.941697598E0	8.178592682E0
5.477804770E-1	1.522712231E0	-2.011129379E0	8.149862289E0
5.494021920E-1	1.556231141E0	-2.078166962E0	8.097189903E0
5.518477850E-1	1.568202138E0	-2.094926596E0	8.080430984E0
5.530315770E-1	1.572990537E0	-2.118868589E0	8.054094315E0
5.559047080E-1	1.561019540E0	-2.133233786E0	8.049305916E0
5.576870000E-1	1.525106430E0	-2.149993181E0	8.080430984E0
5.599495160E-1	1.508347034E0	-2.154781580E0	8.104372978E0
5.613176540E-1	1.486799240E0	-2.157175779E0	8.166622162E0
5.640056700E-1	1.460463047E0	-2.166752577E0	8.281543732E0
5.656545380E-1	1.434126854E0	-2.173935175E0	8.355764389E0
5.680738620E-1	1.410184860E0	-2.171540976E0	8.427590370E0
5.693502310E-1	1.403002143E0	-2.178723574E0	8.497021675E0
5.721314390E-1	1.417367458E0	-2.200271368E0	8.542511940E0
5.736220380E-1	1.453280449E0	-2.231395960E0	8.559270859E0
5.761741920E-1	1.505952835E0	-2.267308950E0	8.554482460E0
5.775418070E-1	1.565807939E0	-2.312798738E0	8.516175270E0
5.803542080E-1	1.618480325E0	-2.367865562E0	8.468291283E0
5.819776150E-1	1.649604917E0	-2.430114746E0	8.415618896E0
5.844052470E-1	1.668758631E0	-2.489969730E0	8.382100105E0
5.856545770E-1	1.685518026E0	-2.533065319E0	8.401253700E0
5.884616700E-1	1.707065821E0	-2.568978310E0	8.468291283E0
5.900297310E-1	1.731007814E0	-2.602497339E0	8.559270859E0
5.925310160E-1	1.745373011E0	-2.633621931E0	8.635885239E0
5.937642690E-1	1.738190413E0	-2.657563925E0	8.683769226E0
5.965885930E-1	1.714248419E0	-2.679111719E0	8.705317497E0
5.985115380E-1	1.671152830E0	-2.710236311E0	8.702922821E0
6.006430540E-1	1.668758631E0	-2.719813108E0	8.702922821E0
6.018930380E-1	1.683123827E0	-2.743755102E0	8.705317497E0
6.047003620E-1	1.719036818E0	-2.765302896E0	8.710105896E0
6.064437310E-1	1.793257117E0	-2.784456491E0	8.724471092E0
6.087846310E-1	1.817199111E0	-2.791639090E0	8.731653214E0
6.099718840E-1	1.855506301E0	-2.794033289E0	8.746018410E0
6.128425540E-1	1.874659896E0	-2.784456491E0	8.765172005E0
6.141828070E-1	1.886630893E0	-2.772485495E0	8.784325600E0
6.169727460E-1	1.905784607E0	-2.772485495E0	8.817844391E0
6.183552310E-1	1.924938202E0	-2.784456491E0	8.832210541E0
6.210649770E-1	1.944091797E0	-2.789244890E0	8.841787338E0
6.226329610E-1	1.960851192E0	-2.794033289E0	8.860940933E0
6.251013620E-1	1.987187386E0	-2.796427488E0	8.892065048E0
6.264622690E-1	2.020706177E0	-2.798821688E0	8.937555313E0
6.291587080E-1	2.056619167E0	-2.798821688E0	8.992621422E0
6.306945770E-1	2.090138197E0	-2.794033289E0	9.050082207E0
6.332424390E-1	2.123656988E0	-2.791639090E0	9.093177795E0
6.344187690E-1	2.152387381E0	-2.796427488E0	9.129091263E0
6.373000920E-1	2.183511972E0	-2.803610086E0	9.157821655E0
6.390365000E-1	2.219424963E0	-2.813186884E0	9.176975250E0
6.413536310E-1	2.267308950E0	-2.808398485E0	9.179368973E0
6.425581540E-1	2.312798738E0	-2.791639090E0	9.176975250E0
6.454110540E-1	2.351106167E0	-2.772485495E0	9.179368973E0
6.469874610E-1	2.389413357E0	-2.734178305E0	9.179368973E0
6.494802460E-1	2.432508945E0	-2.676717520E0	9.176975250E0
6.507046150E-1	2.477998734E0	-2.624045134E0	9.157821655E0
6.535375920E-1	2.497152328E0	-2.571372509E0	9.136273384E0
6.548379610E-1	2.494758129E0	-2.513911724E0	9.102754593E0
6.575210770E-1	2.489969730E0	-2.454056740E0	9.059659004E0
6.588896920E-1	2.485181332E0	-2.413355350E0	8.999804497E0
6.617752850E-1	2.497152328E0	-2.382230759E0	8.927978516E0
6.634056540E-1	2.547430515E0	-2.327163935E0	8.848969460E0
6.658117460E-1	2.573766708E0	-2.300827742E0	8.829815865E0
6.670013070E-1	2.638410330E0	-2.236184359E0	8.796297073E0
6.698688620E-1	2.681505919E0	-2.152387381E0	8.774748802E0
6.714726920E-1	2.686294317E0	-2.013523579E0	8.757989883E0
6.739378230E-1	2.679111719E0	-1.968033791E0	8.755595207E0
6.752492300E-1	2.655169725E0	-1.879448295E0	8.746018410E0
6.779949770E-1	2.621650934E0	-1.778891921E0	8.762778282E0
6.797163840E-1	2.607285738E0	-1.738190413E0	8.781931877E0
6.820389770E-1	2.621650934E0	-1.707065821E0	8.805873871E0
6.833491540E-1	2.650381327E0	-1.692700624E0	8.813055992E0
6.860964000E-1	2.669534922E0	-1.699883223E0	8.798690796E0
6.878583460E-1	2.681505919E0	-1.711854219E0	8.786720276E0
6.901652850E-1	2.700659513E0	-1.714248419E0	8.781931877E0
6.913492690E-1	2.726995707E0	-1.707065821E0	8.796297073E0
6.942225150E-1	2.760514498E0	-1.692700624E0	8.832210541E0
6.957017300E-1	2.798821688E0	-1.671152830E0	8.875306129E0
6.983534000E-1	2.825158119E0	-1.651999116E0	8.918401718E0
6.996046540E-1	2.834734917E0	-1.632845521E0	8.951920509E0
7.024454380E-1	2.837129116E0	-1.618480325E0	8.983044624E0
7.040213840E-1	2.820369720E0	-1.601720929E0	9.023746490E0
7.064985920E-1	2.810792685E0	-1.575384736E0	9.064447403E0
7.076803070E-1	2.810792685E0	-1.539471745E0	9.088389397E0
7.105565540E-1	2.813186884E0	-1.505952835E0	9.100360870E0
7.121773840E-1	2.841917515E0	-1.479616642E0	9.119514465E0
7.146273610E-1	2.880224705E0	-1.453280449E0	9.145850182E0
7.161317300E-1	2.899378300E0	-1.429338455E0	9.169792175E0
7.186852460E-1	2.904166698E0	-1.391031146E0	9.198522568E0
7.203668840E-1	2.894589901E0	-1.352723956E0	9.236829758E0
7.227396690E-1	2.892195702E0	-1.340752959E0	9.244012833E0
7.239210770E-1	2.889801502E0	-1.314416766E0	9.244012833E0
7.267978610E-1	2.906560898E0	-1.283292055E0	9.234436035E0
7.283888070E-1	2.947262287E0	-1.264138460E0	9.236829758E0
7.308827840E-1	2.954444885E0	-1.256955862E0	9.239224434E0
7.320633840E-1	2.959233284E0	-1.247379065E0	9.227252960E0
7.349405920E-1	2.973598480E0	-1.235408068E0	9.193734169E0
7.362512690E-1	3.011905670E0	-1.225831270E0	9.133879662E0
7.389067690E-1	3.043030262E0	-1.221042871E0	9.088389397E0
7.403493840E-1	3.071760893E0	-1.204283476E0	9.045293808E0
7.431627460E-1	3.093308687E0	-1.199495077E0	9.026140213E0
7.447328840E-1	3.107673883E0	-1.201889277E0	9.021351814E0
7.471997460E-1	3.117250681E0	-1.216254473E0	9.028534889E0
7.483910770E-1	3.131615877E0	-1.230619669E0	9.038111687E0
7.512572840E-1	3.174711466E0	-1.247379065E0	9.042900085E0
7.528966920E-1	3.217807055E0	-1.256955862E0	9.059659004E0
7.553424770E-1	3.265691042E0	-1.261744261E0	9.102754593E0
7.565640770E-1	3.320757866E0	-1.261744261E0	9.157821655E0
7.594001690E-1	3.366247654E0	-1.259350061E0	9.220070839E0
7.611829230E-1	3.385401249E0	-1.254561663E0	9.277531624E0
7.634535540E-1	3.390189648E0	-1.233013868E0	9.323021889E0
7.646350000E-1	3.397372246E0	-1.194706678E0	9.356540680E0
7.675114380E-1	3.390189648E0	-1.151610970E0	9.387664795E0
7.692805770E-1	3.375824451E0	-1.110909581E0	9.402029991E0
7.715812840E-1	3.373430252E0	-1.077390790E0	9.409213066E0
7.727573840E-1	3.378218651E0	-1.039083481E0	9.414001465E0
7.756390150E-1	3.402160645E0	-1.007958889E0	9.430760384E0
7.774593460E-1	3.454833031E0	-9.600749016E-1	9.485827446E0
7.796861690E-1	3.473986626E0	-9.433154464E-1	9.516951561E0
7.808742300E-1	3.509899616E0	-9.050082564E-1	9.579200745E0
7.837442460E-1	3.545812607E0	-8.595184088E-1	9.631873131E0
7.853124610E-1	3.581725836E0	-8.068459630E-1	9.698910713E0
7.877818610E-1	3.588908434E0	-7.900865674E-1	9.720458984E0
7.889528070E-1	3.617638826E0	-7.613561153E-1	9.761159897E0
7.918395530E-1	3.660734415E0	-7.517793179E-1	9.789890289E0
7.934219230E-1	3.739742994E0	-7.350199223E-1	9.806650162E0
7.959090150E-1	3.768473387E0	-7.278373241E-1	9.804255486E0
7.972593070E-1	3.821146011E0	-7.182605267E-1	9.797073364E0
7.999665530E-1	3.888183594E0	-6.967126727E-1	9.753977776E0
8.017074230E-1	3.924096584E0	-6.775590777E-1	9.727641106E0
8.040087840E-1	3.948038578E0	-6.607996821E-1	9.701305389E0
8.053403460E-1	3.969586372E0	-6.392518282E-1	9.689333916E0
8.080656300E-1	3.988739967E0	-6.248866320E-1	9.698910713E0
8.096286920E-1	4.005499363E0	-6.033388376E-1	9.732429504E0
8.121356300E-1	4.010287762E0	-5.817909837E-1	9.777919769E0
8.134371530E-1	4.000710964E0	-5.578489900E-1	9.830592155E0
8.161922840E-1	3.995922565E0	-5.363011956E-1	9.888052940E0
8.175094610E-1	3.995922565E0	-5.339069963E-1	9.935936928E0
8.201192690E-1	3.986345768E0	-5.554547906E-1	9.974244118E0
8.216693840E-1	3.979163170E0	-5.793967843E-1	1.001015759E1
8.244147070E-1	3.998316765E0	-6.057330370E-1	1.003409958E1
8.260016530E-1	4.053383350E0	-6.464344859E-1	1.005804157E1
8.284657460E-1	4.122815132E0	-6.895300746E-1	1.010113716E1
8.297036150E-1	4.180276394E0	-7.230489254E-1	1.015620327E1
8.325232070E-1	4.225766182E0	-7.493851185E-1	1.021127033E1
8.340821150E-1	4.259284973E0	-7.637503147E-1	1.028070164E1
8.365593990E-1	4.297592163E0	-7.661445141E-1	1.035971069E1
8.377327690E-1	4.335899353E0	-7.398083210E-1	1.043153667E1
8.406163220E-1	4.376600742E0	-6.991068721E-1	1.050096893E1
8.424713840E-1	4.429273129E0	-6.177040339E-1	1.054885292E1
8.446735920E-1	4.443638325E0	-5.817909837E-1	1.054885292E1
8.458565000E-1	4.469974518E0	-5.123591423E-1	1.054885292E1
8.487313220E-1	4.486733913E0	-4.572925270E-1	1.052969933E1
8.507457690E-1	4.489128113E0	-3.758896589E-1	1.044829655E1
8.527819380E-1	4.489128113E0	-3.471592367E-1	1.040759468E1
8.539850000E-1	4.489128113E0	-2.849099934E-1	1.032140350E1
8.568396300E-1	4.481945515E0	-2.035071403E-1	1.025436592E1
8.581314610E-1	4.465186119E0	-4.548983276E-2	1.019929886E1
8.609703220E-1	4.460397720E0	7.900865376E-2	1.018253994E1
8.622569230E-1	4.446032524E0	1.963245422E-1	1.016099167E1
8.650616690E-1	4.434061527E0	3.040636182E-1	1.013944435E1
8.666731530E-1	4.412513733E0	4.285621047E-1	1.011789608E1
8.690994380E-1	4.369418144E0	5.458779931E-1	1.009874249E1
8.703723460E-1	4.321534157E0	6.416460276E-1	1.008437729E1
8.731566690E-1	4.283226967E0	7.326257229E-1	1.009634876E1
8.747798460E-1	4.259284973E0	8.212111592E-1	1.012747288E1
8.772422070E-1	4.240131378E0	9.026140571E-1	1.016817474E1
8.786017300E-1	4.223371983E0	9.696516991E-1	1.019451046E1
8.813000150E-1	4.220977783E0	1.036689281E0	1.021127033E1
8.829930380E-1	4.220977783E0	1.086967587E0	1.022084713E1
8.853583990E-1	4.235342979E0	1.106121182E0	1.022324085E1
8.866182300E-1	4.264073372E0	1.101332784E0	1.020408726E1
8.894156300E-1	4.283226967E0	1.086967587E0	1.014183807E1
8.910037690E-1	4.295197964E0	1.067813993E0	1.007001209E1
8.934831300E-1	4.304774761E0	1.046266198E0	9.983820915E0
8.947150000E-1	4.295197964E0	1.015141487E0	9.904812813E0
8.975403610E-1	4.271255970E0	9.911994934E-1	9.818621635E0
8.988383070E-1	4.244919777E0	9.672574997E-1	9.722852707E0
9.015981530E-1	4.235342979E0	9.313444495E-1	9.634267807E0
9.029141150E-1	4.249708176E0	8.906430602E-1	9.583989143E0
9.057783220E-1	4.288015366E0	8.547300100E-1	9.564835548E0
9.073426920E-1	4.376600742E0	8.307880163E-1	9.588777542E0
9.098143220E-1	4.407725334E0	8.236053586E-1	9.605537415E0
9.110550000E-1	4.467580318E0	8.164227605E-1	9.639056206E0
9.138718610E-1	4.517858505E0	8.164227605E-1	9.672574997E0
9.154573070E-1	4.563348293E0	8.212111592E-1	9.734824181E0
9.179405910E-1	4.582501888E0	8.236053586E-1	9.792284966E0
9.191828460E-1	4.589684486E0	8.331822157E-1	9.844957352E0
9.219978990E-1	4.572925091E0	8.643068075E-1	9.878476143E0
9.237710380E-1	4.544194698E0	8.906430602E-1	9.888052940E0
9.260412840E-1	4.520252705E0	9.121908545E-1	9.876082420E0
9.273948840E-1	4.508281708E0	9.337386489E-1	9.859322548E0
9.300984380E-1	4.517858505E0	9.361328483E-1	9.840168953E0
9.317025380E-1	4.537012100E0	9.217676520E-1	9.804255486E0
9.341676680E-1	4.563348293E0	9.002198577E-1	9.763554573E0
9.354065760E-1	4.584896088E0	8.810662031E-1	9.727641106E0
9.382248220E-1	4.589684486E0	8.595184088E-1	9.701305389E0
9.395958070E-1	4.584896088E0	8.331822157E-1	9.686940193E0
9.423543220E-1	4.580107689E0	8.044517636E-1	9.670180321E0
9.435805000E-1	4.568136692E0	7.876923680E-1	9.646238327E0
9.464458990E-1	4.560954094E0	7.685387731E-1	9.617507935E0
9.480281920E-1	4.570530891E0	7.469909191E-1	9.586383820E0
9.504955910E-1	4.568136692E0	7.326257229E-1	9.550470352E0
9.517032690E-1	4.572925091E0	7.158663273E-1	9.495404243E0
9.545525910E-1	4.594472885E0	7.015010715E-1	9.452308655E0
9.561943840E-1	4.620809078E0	7.015010715E-1	9.435548782E0
9.586207070E-1	4.654327869E0	6.967126727E-1	9.449913979E0
9.601966920E-1	4.702212334E0	6.871358752E-1	9.497797966E0
9.626775140E-1	4.733336926E0	6.607996821E-1	9.562441826E0
9.643656530E-1	4.771644115E0	5.937620401E-1	9.653421402E0
9.667299760E-1	4.790797710E0	5.650315881E-1	9.682151794E0
9.679230380E-1	4.838681698E0	5.051765442E-1	9.722852707E0
9.707873990E-1	4.898536682E0	4.548983276E-1	9.744400978E0
9.724419610E-1	5.013458252E0	4.022258818E-1	9.753977776E0
9.748712070E-1	5.058948040E0	3.950432837E-1	9.751583099E0
9.761810380E-1	5.128379822E0	3.974374831E-1	9.751583099E0
9.789281680E-1	5.164293289E0	4.237737060E-1	9.765948296E0
9.803028840E-1	5.152322292E0	4.525041282E-1	9.789890289E0
9.828617300E-1	5.147533417E0	4.836287498E-1	9.809044838E0
9.842833070E-1	5.149928093E0	5.123591423E-1	9.809044838E0
9.871492830E-1	5.173870087E0	5.363011956E-1	9.794678688E0
9.888091920E-1	5.195417881E0	5.698199868E-1	9.775525093E0
9.911847450E-1	5.219359875E0	6.129156351E-1	9.751583099E0
9.923835380E-1	5.216965675E0	6.655880809E-1	9.725247383E0
9.952414760E-1	5.200206280E0	7.158663273E-1	9.696516991E0
9.968571530E-1	5.178658485E0	7.661445141E-1	9.689333916E0
9.993247060E-1	5.154716492E0	8.355764151E-1	9.691728592E0
1.000573115E0	5.121197224E0	9.050082564E-1	9.684545517E0
1.003382322E0	5.094861031E0	9.888052940E-1	9.674968719E0
1.005440923E0	5.090072632E0	1.072602391E0	9.670180321E0
1.007436437E0	5.094861031E0	1.146822572E0	9.667786598E0
1.008657884E0	5.094861031E0	1.211466074E0	9.662998199E0
1.011494514E0	5.082890034E0	1.288080573E0	9.651026726E0
1.013416576E0	5.063736439E0	1.362300754E0	9.622296333E0
1.015564245E0	5.032611847E0	1.434126854E0	9.581595421E0
1.016850038E0	4.996698856E0	1.503558636E0	9.519346237E0
1.019622476E0	4.972756863E0	1.575384736E0	9.461885452E0
1.020936192E0	4.953603268E0	1.637633920E0	9.411606789E0
1.023766937E0	4.936843872E0	1.683123827E0	9.366117477E0
1.024985423E0	4.912901878E0	1.728613615E0	9.315838814E0
1.027858591E0	4.881777287E0	1.771709204E0	9.263166428E0
1.029579999E0	4.829104900E0	1.805228114E0	9.208099365E0
1.031895745E0	4.809951305E0	1.817199111E0	9.191340446E0
1.033461576E0	4.771644115E0	1.833958507E0	9.167398453E0
1.035952899E0	4.714183331E0	1.829170108E0	9.131484985E0
1.037668499E0	4.680664539E0	1.819593310E0	9.085995674E0
1.040020899E0	4.654327869E0	1.802833915E0	9.040505409E0
1.041397461E0	4.644751072E0	1.786074519E0	8.995016098E0
1.044078245E0	4.627991676E0	1.762132406E0	8.959102631E0
1.045872846E0	4.601655483E0	1.733402014E0	8.927978516E0
1.048122014E0	4.575319290E0	1.699883223E0	8.906430244E0
1.049357807E0	4.541800499E0	1.663970232E0	8.882488251E0
1.052179322E0	4.510675907E0	1.616086125E0	8.868123055E0
1.053726884E0	4.486733913E0	1.565807939E0	8.872911453E0
1.056248206E0	4.479551315E0	1.522712231E0	8.884882927E0
1.057445384E0	4.493916512E0	1.477222443E0	8.906430244E0
1.060305360E0	4.498704910E0	1.426944256E0	8.935160637E0
1.061629692E0	4.503493309E0	1.376665950E0	8.961497307E0
1.064246346E0	4.508281708E0	1.323993564E0	8.995016098E0
1.065666884E0	4.510675907E0	1.283292055E0	9.018958092E0
1.068527168E0	4.491522312E0	1.249773264E0	9.040505409E0
1.070143038E0	4.441244125E0	1.204283476E0	9.050082207E0
1.072577937E0	4.386177540E0	1.149216771E0	9.038111687E0
1.073962346E0	4.352658749E0	1.103726983E0	9.004592896E0
1.076635245E0	4.333505154E0	1.063025594E0	8.961497307E0
1.078221269E0	4.319139957E0	1.010353088E0	8.896853447E0
1.080703591E0	4.314351559E0	9.935936928E-1	8.872911453E0
1.081876307E0	4.302380562E0	9.600749016E-1	8.815450668E0
1.084760706E0	4.285621166E0	9.313444495E-1	8.757989883E0
1.086544269E0	4.268861771E0	8.930372596E-1	8.702922821E0
1.088815245E0	4.266467571E0	8.762778044E-1	8.688557625E0
1.090061307E0	4.259284973E0	8.379706144E-1	8.657433510E0
1.092872706E0	4.244919777E0	8.092401624E-1	8.645462036E0
1.094512846E0	4.209006786E0	7.517793179E-1	8.674192429E0
1.096956975E0	4.180276394E0	7.038952708E-1	8.705317497E0
1.098141307E0	4.146757126E0	6.655880809E-1	8.746018410E0
1.101015129E0	4.118026733E0	6.344634295E-1	8.786720276E0
1.102423346E0	4.084507942E0	6.009446383E-1	8.820239067E0
1.105146398E0	4.058171749E0	5.674257874E-1	8.839392662E0
1.106389615E0	4.046200752E0	5.195417404E-1	8.822632790E0
1.109238706E0	4.041412354E0	4.716577232E-1	8.774748802E0
1.110811922E0	4.043806553E0	4.285621047E-1	8.683769226E0
1.113276129E0	4.043806553E0	3.782838583E-1	8.559270859E0
1.114632038E0	4.050989151E0	3.256114423E-1	8.415618896E0
1.117333706E0	4.074931145E0	2.896983922E-1	8.271966934E0
1.118915576E0	4.098873138E0	2.753331959E-1	8.157045364E0
1.121416821E0	4.144362926E0	2.681505978E-1	8.075642586E0
1.122598846E0	4.177882195E0	2.609679997E-1	8.034940720E0
1.125474244E0	4.194641590E0	2.633621991E-1	8.032546997E0
1.127158076E0	4.230554581E0	2.561795712E-1	8.058882713E0
1.129527898E0	4.244919777E0	2.585737705E-1	8.068459511E0
1.130745846E0	4.278438568E0	2.513911724E-1	8.082824707E0
1.133583360E0	4.314351559E0	2.274491638E-1	8.101978302E0
1.135168807E0	4.359841347E0	1.843535304E-1	8.135497093E0
1.137618129E0	4.371812344E0	1.723825186E-1	8.142680168E0
1.138787346E0	4.395754337E0	1.484405100E-1	8.161833763E0
1.141674783E0	4.424484730E0	1.316810995E-1	8.200140953E0
1.142995422E0	4.443638325E0	1.292868853E-1	8.240841866E0
1.145606115E0	4.465186119E0	1.340752989E-1	8.279149055E0
1.147056807E0	4.493916512E0	1.436520964E-1	8.303091049E0
1.149910321E0	4.539406300E0	1.556231081E-1	8.293514252E0
1.151473884E0	4.570530891E0	1.436520964E-1	8.259995461E0
1.153946475E0	4.599261284E0	1.268926859E-1	8.204929352E0
1.155169461E0	4.642356873E0	1.005564705E-1	8.149862289E0
1.158003475E0	4.702212334E0	7.900865376E-2	8.109161377E0
1.159669884E0	4.786009312E0	5.746084079E-2	8.082824707E0
1.162072744E0	4.884171486E0	5.746084079E-2	8.075642586E0
1.163420422E0	4.967968464E0	7.422025502E-2	8.111555099E0
1.166129937E0	5.023035049E0	1.029506698E-1	8.176198959E0
1.167833884E0	5.044582844E0	1.508347094E-1	8.243236542E0
1.170173321E0	5.037400246E0	2.130839527E-1	8.288725853E0
1.171369269E0	5.018246651E0	2.681505978E-1	8.303091049E0
1.174230706E0	4.999093056E0	2.968810201E-1	8.281543732E0
1.175797269E0	4.996698856E0	2.968810201E-1	8.226476669E0
1.178300052E0	5.027823448E0	2.585737705E-1	8.149862289E0
1.179529269E0	5.087678432E0	1.963245422E-1	8.070854187E0
1.182358129E0	5.164293289E0	1.197100878E-1	7.996633530E0
1.183653730E0	5.257667065E0	3.351882473E-2	7.939172745E0
1.186488706E0	5.341464043E0	-5.267243832E-2	7.886500359E0
1.187700115E0	5.389348030E0	-1.364694983E-1	7.862558365E0
1.190581398E0	5.413290024E0	-2.011129409E-1	7.867346764E0
1.192318961E0	5.403713226E0	-3.016694188E-1	7.922413349E0
1.194634283E0	5.394136429E0	-3.423708379E-1	7.946355343E0
1.195882999E0	5.377377033E0	-4.213795066E-1	7.982268333E0
1.198692052E0	5.365406036E0	-5.027823448E-1	7.996633530E0
1.200323961E0	5.382165432E0	-6.392518282E-1	8.006210327E0
1.202761206E0	5.396530628E0	-6.823474765E-1	8.003816605E0
1.203937461E0	5.413290024E0	-7.541735172E-1	7.989450932E0
1.206818090E0	5.427655220E0	-8.283938169E-1	7.963114738E0
1.208536461E0	5.430049419E0	-9.193734527E-1	7.898471355E0
1.210872975E0	5.430049419E0	-9.481038451E-1	7.876923561E0
1.212196730E0	5.444414616E0	-1.003170490E0	7.843404770E0
1.214930590E0	5.494692802E0	-1.084573388E0	7.812280178E0
1.216523807E0	5.549759388E0	-1.139639974E0	7.797914982E0
1.219014321E0	5.607220173E0	-1.187524080E0	7.781155586E0
1.220201999E0	5.659893036E0	-1.233013868E0	7.752425194E0
1.223071244E0	5.710171223E0	-1.261744261E0	7.709329605E0
1.224355615E0	5.736507416E0	-1.280897856E0	7.639897823E0
1.227031345E0	5.755661011E0	-1.276109457E0	7.565677166E0
1.228419038E0	5.765237808E0	-1.276109457E0	7.498639584E0
1.231293129E0	5.767632008E0	-1.278503656E0	7.450755596E0
1.232858422E0	5.781997204E0	-1.276109457E0	7.431602001E0
1.235331283E0	5.810727596E0	-1.273715258E0	7.410054207E0
1.236521807E0	5.844246387E0	-1.268926859E0	7.381323814E0
1.239389321E0	5.894524574E0	-1.254561663E0	7.354987621E0
1.241026653E0	5.961562157E0	-1.247379065E0	7.328651428E0
1.243473167E0	6.033388138E0	-1.249773264E0	7.299921036E0
1.244644422E0	6.117185116E0	-1.249773264E0	7.278373241E0
1.247530590E0	6.196194172E0	-1.256955862E0	7.268796444E0
1.249354730E0	6.277596951E0	-1.295263171E0	7.268796444E0
1.251586936E0	6.296750546E0	-1.312022567E0	7.268796444E0
1.252754192E0	6.342240334E0	-1.355118155E0	7.268796444E0
1.255644590E0	6.399701118E0	-1.400607944E0	7.278373241E0
1.257220345E0	6.497863293E0	-1.467645645E0	7.290344238E0
1.259714282E0	6.526593685E0	-1.486799240E0	7.292738438E0
1.260907961E0	6.569689274E0	-1.522712231E0	7.292738438E0
1.263772282E0	6.593631268E0	-1.556231141E0	7.278373241E0
1.265580269E0	6.622362137E0	-1.601720929E0	7.211335659E0
1.267822205E0	6.629544735E0	-1.606509328E0	7.173028469E0
1.269234845E0	6.639121532E0	-1.608903527E0	7.079654217E0
1.271880513E0	6.651092529E0	-1.623268723E0	6.979097843E0
1.273455576E0	6.689399719E0	-1.668758631E0	6.854599476E0
1.275917321E0	6.722918510E0	-1.707065821E0	6.775590897E0
1.277214384E0	6.773196697E0	-1.745373011E0	6.706159115E0
1.279975052E0	6.842628479E0	-1.790862918E0	6.672640324E0
1.281626153E0	6.912060261E0	-1.843535304E0	6.691793919E0
1.284045128E0	6.981492043E0	-1.893813491E0	6.773196697E0
1.285263115E0	7.038952827E0	-1.924938202E0	6.888118267E0
1.288102475E0	7.060500622E0	-1.960851192E0	7.015010834E0
1.289912192E0	7.041347027E0	-2.001552582E0	7.125144482E0
1.292147782E0	6.986280441E0	-2.027888775E0	7.196970463E0
1.293363692E0	6.892906666E0	-2.032677174E0	7.230489254E0
1.296205090E0	6.792350292E0	-2.042253971E0	7.218518257E0
1.297789268E0	6.703764915E0	-2.070984364E0	7.161057472E0
1.300273859E0	6.653486729E0	-2.094926596E0	7.062894821E0
1.301575345E0	6.643909931E0	-2.121262789E0	6.916848660E0
1.304331282E0	6.670246124E0	-2.149993181E0	6.737283707E0
1.305694230E0	6.722918510E0	-2.173935175E0	6.560112476E0
1.308276884E0	6.792350292E0	-2.197877169E0	6.392518520E0
1.309711153E0	6.864176273E0	-2.209848166E0	6.229712963E0
1.312553551E0	6.931213856E0	-2.219424963E0	6.076483727E0
1.314171422E0	6.988674641E0	-2.250549555E0	5.918466568E0
1.316605975E0	6.991068840E0	-2.257732153E0	5.892130375E0
1.317815422E0	6.991068840E0	-2.272097349E0	5.856217384E0
1.320663282E0	6.974309444E0	-2.276885748E0	5.829881191E0
1.322216345E0	6.928819656E0	-2.257732153E0	5.825092793E0
1.324732244E0	6.919242859E0	-2.252943754E0	5.825092793E0
1.325931307E0	6.924031258E0	-2.264914751E0	5.810727596E0
1.328790013E0	6.900089264E0	-2.257732153E0	5.803544998E0
1.330560422E0	6.828263283E0	-2.221819162E0	5.779603004E0
1.332853244E0	6.806715488E0	-2.224213362E0	5.770026207E0
1.334050576E0	6.751648903E0	-2.226607561E0	5.748478413E0
1.336910474E0	6.679822922E0	-2.185906172E0	5.686229229E0
1.338558961E0	6.687005520E0	-2.171540976E0	5.592854977E0
1.340994513E0	6.737283707E0	-2.185906172E0	5.463568211E0
1.342168345E0	6.825869083E0	-2.231395960E0	5.310339451E0
1.345052205E0	6.945579052E0	-2.322375536E0	5.149928093E0
1.346408192E0	7.050923824E0	-2.406172752E0	5.025429249E0
1.349184590E0	7.094019413E0	-2.432508945E0	4.939238071E0
1.350559807E0	7.089231014E0	-2.427720547E0	4.867412090E0
1.353277782E0	7.058106422E0	-2.398990154E0	4.845864296E0
1.355099192E0	7.024587631E0	-2.341529369E0	4.886565685E0
1.357315628E0	6.993463039E0	-2.262520552E0	4.979939461E0
1.358512268E0	6.971915245E0	-2.183511972E0	5.114014626E0
1.361373513E0	6.952761650E0	-2.092532396E0	5.267243862E0
1.362960268E0	6.945579052E0	-2.003946781E0	5.384559631E0
1.365458051E0	6.933608055E0	-1.936909199E0	5.468356609E0
1.366642153E0	6.902483463E0	-1.862688899E0	5.549759388E0
1.369516474E0	6.878541470E0	-1.798045516E0	5.604825974E0
1.371243576E0	6.825869083E0	-1.683123827E0	5.679046631E0
1.373576474E0	6.806715488E0	-1.647210717E0	5.700594425E0
1.374746576E0	6.785167694E0	-1.589749932E0	5.702988625E0
1.377634667E0	6.797138691E0	-1.544260144E0	5.664681435E0
1.379176191E0	6.873753071E0	-1.513135433E0	5.542576790E0
1.381704667E0	6.916848660E0	-1.505952835E0	5.497087002E0
1.382885807E0	7.007828236E0	-1.489193439E0	5.425261021E0
1.385762090E0	7.096413612E0	-1.455674648E0	5.391742229E0
1.387058922E0	7.216124058E0	-1.391031146E0	5.437232018E0
1.389701461E0	7.283161640E0	-1.374271750E0	5.513846397E0
1.391133999E0	7.314286232E0	-1.345541358E0	5.616796970E0
1.394000128E0	7.326257229E0	-1.288080573E0	5.736507416E0
1.395647153E0	7.309497833E0	-1.187524080E0	5.901707172E0
1.398037013E0	7.266402245E0	-1.070208192E0	6.066906929E0
1.399224499E0	7.213729858E0	-9.481038451E-1	6.169857979E0
1.402094705E0	7.184999466E0	-8.714894056E-1	6.184223175E0
1.403655884E0	7.196970463E0	-8.499416113E-1	6.131550789E0
1.406163936E0	7.235277653E0	-8.499416113E-1	6.054935932E0
1.407500922E0	7.299921036E0	-8.882488012E-1	5.923254967E0
1.410221628E0	7.364564419E0	-9.481038451E-1	5.755661011E0
1.411971691E0	7.429207802E0	-1.051054597E0	5.578489780E0
1.414273090E0	7.496245384E0	-1.199495077E0	5.442020416E0
1.415459653E0	7.570465565E0	-1.386242747E0	5.365406036E0
1.418330705E0	7.647080421E0	-1.601720929E0	5.358223438E0
1.419910345E0	7.654263020E0	-1.798045516E0	5.427655220E0
1.422399974E0	7.580042362E0	-1.948880196E0	5.509057999E0
1.423590345E0	7.486668587E0	-2.104503393E0	5.583278179E0
1.426457705E0	7.407660007E0	-2.312798738E0	5.652710438E0
1.427728884E0	7.326257229E0	-2.540247917E0	5.726930618E0
1.430587820E0	7.287950039E0	-2.810792685E0	5.750872612E0
1.431794691E0	7.271190643E0	-3.095702887E0	5.707777023E0
1.434680974E0	7.211335659E0	-3.323152065E0	5.676652431E0
1.436294730E0	7.113173485E0	-3.572149038E0	5.688623428E0
1.438733589E0	7.086836815E0	-3.653551817E0	5.688623428E0
1.440108538E0	7.005434036E0	-3.809175014E0	5.693411827E0
1.442791743E0	6.919242859E0	-3.950432777E0	5.691017628E0
1.444348807E0	6.825869083E0	-4.134786129E0	5.635950565E0
1.446862397E0	6.797138691E0	-4.182670593E0	5.600037575E0
1.448052730E0	6.739677906E0	-4.252102375E0	5.523423195E0
1.450919705E0	6.730101109E0	-4.393360138E0	5.351040840E0
1.452600730E0	6.727706909E0	-4.493916512E0	5.252878666E0
1.454970974E0	6.684611320E0	-4.537012100E0	5.226542473E0
1.456191076E0	6.612784863E0	-4.544194698E0	5.255272865E0
1.459028166E0	6.526593685E0	-4.548983097E0	5.295974255E0
1.460589499E0	6.428431511E0	-4.572925091E0	5.339069843E0
1.463111282E0	6.347028732E0	-4.608838081E0	5.386953831E0
1.464339038E0	6.311115742E0	-4.678270340E0	5.408501625E0
1.467168897E0	6.335057735E0	-4.771644115E0	5.408501625E0
1.468523345E0	6.416460514E0	-4.855441093E0	5.406107426E0
1.471089268E0	6.557718277E0	-4.941632271E0	5.394136429E0
1.472516653E0	6.701370716E0	-5.020640850E0	5.341464043E0
1.475392666E0	6.806715488E0	-5.061342239E0	5.224148273E0
1.476978845E0	6.883329868E0	-5.070919037E0	5.070919037E0
1.479429166E0	6.971915245E0	-5.106832027E0	4.898536682E0
1.480778461E0	7.070077419E0	-5.221754074E0	4.757278919E0
1.483487705E0	7.168240070E0	-5.339069843E0	4.697423935E0
1.485072807E0	7.297526836E0	-5.322310448E0	4.678270340E0
1.487573012E0	7.455543995E0	-5.178658485E0	4.668693542E0
1.488762576E0	7.582436562E0	-4.975151062E0	4.675876141E0
1.491630897E0	7.611167431E0	-4.793191910E0	4.728548527E0
1.493391076E0	7.450755596E0	-4.568136692E0	4.891354084E0
1.495686897E0	7.371747017E0	-4.498704910E0	4.941632271E0
1.496895307E0	7.225700855E0	-4.357447147E0	5.020640850E0
1.499745282E0	7.113173485E0	-4.216189384E0	5.051765442E0
1.501365191E0	7.094019413E0	-4.015076160E0	5.054159641E0
1.503783589E0	7.134721279E0	-3.940855980E0	5.037400246E0
1.504970691E0	7.302315235E0	-3.818751812E0	4.965574265E0
1.507841974E0	7.558494568E0	-3.763684988E0	4.869806290E0
1.509248076E0	8.025363922E0	-3.711012602E0	4.568136692E0
1.511988474E0	8.281543732E0	-3.684676409E0	4.350264549E0
1.513360038E0	8.456320763E0	-3.624821424E0	4.039018154E0
1.516081705E0	8.561665535E0	-3.495534420E0	3.687070608E0
1.517650538E0	8.468291283E0	-3.342305660E0	3.768473387E0
1.520119205E0	8.365341187E0	-3.138798475E0	3.967192173E0
1.521314499E0	8.298302650E0	-2.949656487E0	4.108449936E0
1.524176974E0	8.245630264E0	-2.839523315E0	4.228160381E0
1.525774268E0	8.269572258E0	-2.748543501E0	4.168305397E0
1.528212858E0	8.353369713E0	-2.614468336E0	4.055777550E0
1.529440845E0	8.492233276E0	-2.449268341E0	4.568136692E0
1.532271320E0	8.544905663E0	-2.367865562E0	5.027823448E0
1.533985076E0	8.465897560E0	-2.406172752E0	5.185841084E0
1.536309858E0	8.372523308E0	-2.506729126E0	5.066130638E0
1.537487653E0	8.322244644E0	-2.621650934E0	4.924872875E0
1.540367628E0	8.327033043E0	-2.774879694E0	5.137956619E0
1.541973114E0	8.350975990E0	-2.973598480E0	5.501875401E0
1.544436974E0	8.384494781E0	-3.217807055E0	5.585672379E0
1.545618961E0	8.463502884E0	-3.481169224E0	5.293580055E0
1.548495204E0	8.628703117E0	-3.725377798E0	4.934449673E0
1.549815230E0	8.851364136E0	-3.948038578E0	4.809951305E0
1.552580691E0	9.109937668E0	-4.144362926E0	4.802768707E0
1.553879730E0	9.385271072E0	-4.328716755E0	4.635174274E0
1.556717935E0	9.641449928E0	-4.572925091E0	4.390965939E0
1.558413653E0	1.009395409E1	-5.020640850E0	4.434061527E0
1.560769127E0	1.028309631E1	-5.159504890E0	4.486733913E0
1.561982999E0	1.066856289E1	-5.420472622E0	4.513070107E0
1.564826320E0	1.095586681E1	-5.693411827E0	4.592078686E0
1.566608153E0	1.107557678E1	-6.160281181E0	4.934449673E0
1.568896512E0	1.101811600E1	-6.502651691E0	5.286397457E0
1.570075191E0	1.092713642E1	-6.868964672E0	5.686229229E0
1.572953858E0	1.083376312E1	-7.264008045E0	6.112396717E0
1.574738768E0	1.077869606E1	-7.656657219E0	6.555324078E0
1.577029435E0	1.078348446E1	-7.991845131E0	6.974309444E0
1.578200345E0	1.084812832E1	-8.283937454E0	7.285555840E0
1.581086627E0	1.095586681E1	-8.518569946E0	7.536946774E0
1.582696922E0	1.107318306E1	-8.681375504E0	7.785943985E0
1.585170935E0	1.114979744E1	-8.777143478E0	8.032546997E0
1.586364614E0	1.112346077E1	-8.829815865E0	8.200140953E0
1.589228281E0	1.093192482E1	-8.887276649E0	8.259995461E0
1.590530191E0	1.081939793E1	-8.856152534E0	8.245630264E0
1.593358397E0	1.088404083E1	-8.652645111E0	8.173804283E0
1.594668422E0	1.097262669E1	-8.343792915E0	8.137891769E0
1.597451781E0	1.101093388E1	-7.987056732E0	8.173804283E0
1.599134691E0	1.093671322E1	-7.692570210E0	8.267178535E0
1.601487820E0	1.073799419E1	-7.505822182E0	8.315062523E0
1.602693961E0	1.050336266E1	-7.386112213E0	8.281543732E0
1.605545512E0	1.029027843E1	-7.285555840E0	8.140285492E0
1.607296768E0	1.011310768E1	-7.038952827E0	7.826645374E0
1.609629166E0	1.009395409E1	-6.947973251E0	7.733271599E0
1.610828884E0	1.008437729E1	-6.840234280E0	7.522581577E0
1.613686435E0	1.017775154E1	-6.756437302E0	7.321468830E0
1.615405114E0	1.045547867E1	-6.483498096E0	7.165845871E0
1.617764973E0	1.053688145E1	-6.373364925E0	7.151480675E0
1.618964384E0	1.064462090E1	-6.198588371E0	7.139509678E0
1.621823050E0	1.066616821E1	-6.121973515E0	7.132327080E0
1.623427230E0	1.060391903E1	-5.975927353E0	7.192182064E0
1.625892627E0	1.060870743E1	-5.911283970E0	7.223306656E0
1.627093191E0	1.064222622E1	-5.911283970E0	7.211335659E0
1.629950243E0	1.066856289E1	-5.916072369E0	7.168240070E0
1.631311384E0	1.069729328E1	-5.896918774E0	7.086836815E0
1.633925076E0	1.072841740E1	-5.839457989E0	6.969521046E0
1.635363461E0	1.069968700E1	-5.755661011E0	6.813898087E0
1.638188819E0	1.071405220E1	-5.686229229E0	6.600813866E0
1.639895807E0	1.077151299E1	-5.640739441E0	6.394912720E0
1.642225550E0	1.080263805E1	-5.568912983E0	6.193799973E0
1.643535153E0	1.077869606E1	-5.492298603E0	5.966350555E0
1.646282896E0	1.071165848E1	-5.418078423E0	5.679046631E0
1.647870768E0	1.065419769E1	-5.341464043E0	5.389348030E0
1.650351627E0	1.060391903E1	-5.257667065E0	5.149928093E0
1.651624537E0	1.051772785E1	-5.238513470E0	4.958391666E0
1.654409473E0	1.038125896E1	-5.269638062E0	4.793191910E0
1.656138461E0	1.004367638E1	-5.372588634E0	4.424484730E0
1.658441127E0	9.888052940E0	-5.406107426E0	4.252102375E0
1.659629730E0	9.545681953E0	-5.415684223E0	3.842693806E0
1.662498050E0	9.241618156E0	-5.137956619E0	3.313575268E0
1.664063537E0	9.169792175E0	-4.639962673E0	2.839523315E0
1.666566665E0	9.311050415E0	-4.192247391E0	2.463633537E0
1.667781384E0	9.485827446E0	-3.780444384E0	2.149993181E0
1.670622973E0	9.641449928E0	-3.371036053E0	1.946485996E0
1.672059230E0	9.804255486E0	-2.959233284E0	1.881842494E0
1.674752242E0	1.001494598E1	-2.552218914E0	1.910573006E0
1.676013961E0	1.025436592E1	-2.149993181E0	1.948880196E0
1.678843742E0	1.041717148E1	-1.745373011E0	1.939303398E0
1.680632422E0	1.042674828E1	-1.185129881E0	1.829170108E0
1.682893896E0	1.032619190E1	-8.355764151E-1	1.747767210E0
1.684089922E0	1.021366405E1	-5.363011956E-1	1.673547029E0
1.686951319E0	1.013465595E1	-2.585737705E-1	1.613691926E0
1.688519191E0	1.012507915E1	-9.576806799E-3	1.577778935E0
1.691020665E0	1.019211674E1	1.891419291E-1	1.568202138E0
1.692262307E0	1.026873112E1	3.495534360E-1	1.575384736E0
1.695078435E0	1.033816338E1	4.979939461E-1	1.565807939E0
1.696888999E0	1.038844109E1	6.392518282E-1	1.544260144E0
1.699127973E0	1.042674828E1	7.805097699E-1	1.594538331E0
1.700331460E0	1.036689377E1	8.690952063E-1	1.769315004E0
1.703185050E0	1.042914295E1	8.738836050E-1	2.015917778E0
1.704951037E0	1.062067890E1	8.092401624E-1	2.286462545E0
1.707269358E0	1.068532181E1	7.350199223E-1	2.588132143E0
1.708458422E0	1.060631371E1	7.254431248E-1	2.868253708E0
1.711326781E0	1.052969933E1	7.709329724E-1	3.040636063E0
1.712623730E0	1.043632507E1	6.344634295E-1	3.076549292E0
1.715266076E0	1.009634876E1	1.244984865E-1	3.110068083E0
1.716695384E0	1.011071396E1	-1.580173075E-1	3.165134668E0
1.719549704E0	1.047942066E1	-6.464344263E-2	3.172317266E0
1.721118960E0	1.068292809E1	4.548983276E-2	3.232172251E0
1.723586319E0	1.060631371E1	-1.436521020E-2	3.320757866E0
1.724900230E0	1.035971069E1	-2.489969730E-1	3.564966440E0
1.727643819E0	1.013226128E1	-6.153098345E-1	3.773261786E0
1.729185922E0	9.945513725E0	-1.266532660E0	3.840299606E0
1.731727973E0	9.914389610E0	-1.486799240E0	3.790021181E0
1.732990460E0	9.897629738E0	-1.850717902E0	3.610456228E0
1.735785396E0	9.919178009E0	-2.056619167E0	3.332728863E0
1.737437153E0	9.895236015E0	-2.312798738E0	2.911349297E0
1.739836473E0	9.840168953E0	-2.403778553E0	2.827552319E0
1.741009884E0	9.667786598E0	-2.674323320E0	2.887407303E0
1.743893704E0	9.521739960E0	-3.153163671E0	3.165134668E0
1.745434884E0	9.545681953E0	-3.191470861E0	3.150769472E0
1.747963319E0	9.387664795E0	-3.064578056E0	3.126827478E0
1.749152922E0	9.035717010E0	-2.971204281E0	3.229778051E0
1.752020434E0	8.700529099E0	-2.913743496E0	3.502717018E0
1.753324268E0	8.554482460E0	-2.908955097E0	3.806780815E0
1.756166165E0	8.609549522E0	-3.028665066E0	4.010287762E0
1.757479307E0	8.695740700E0	-3.134010077E0	4.120420933E0
1.760258011E0	8.719682693E0	-3.141192675E0	4.216189384E0
1.761873307E0	8.621520042E0	-3.069366693E0	4.288015366E0
1.764295242E0	8.508993149E0	-3.047818661E0	4.311957359E0
1.765533537E0	8.453926086E0	-3.160346270E0	4.319139957E0
1.768352242E0	8.372523308E0	-3.323152065E0	4.321534157E0
1.769971037E0	8.092401505E0	-3.469198227E0	4.352658749E0
1.772420473E0	7.936778545E0	-3.586514235E0	4.496310711E0
1.773603345E0	7.814674377E0	-3.643975019E0	4.599261284E0
1.776477857E0	7.539340973E0	-3.734954596E0	4.709394932E0
1.778703576E0	7.089231014E0	-3.907337189E0	5.080495834E0
1.781571127E0	6.813898087E0	-4.019864559E0	5.408501625E0
1.782792614E0	6.605602264E0	-4.151545525E0	5.767632008E0
1.785663050E0	6.562506676E0	-4.280832767E0	6.196194172E0
1.787222037E0	6.519411087E0	-4.431667328E0	6.562506676E0
1.789732242E0	6.481103897E0	-4.446032524E0	6.591237068E0
1.790918691E0	6.363788128E0	-4.355052948E0	6.560112476E0
1.793789819E0	6.220136166E0	-4.118026733E0	6.481103897E0
1.795074768E0	6.064512730E0	-3.627215624E0	6.349422932E0
1.797785268E0	6.071695328E0	-3.303998232E0	6.414066315E0
1.799266537E0	6.083666325E0	-3.011905670E0	6.457161903E0
1.802012088E0	6.155492783E0	-2.782062292E0	6.447585106E0
1.803595999E0	6.354211330E0	-2.576161146E0	6.773196697E0
1.806064088E0	6.588842869E0	-2.303221941E0	7.378929615E0
1.807276768E0	6.806715488E0	-1.956062794E0	7.989450932E0
1.810122011E0	7.058106422E0	-1.558625340E0	8.480262756E0
1.811808230E0	7.371747017E0	-1.168370485E0	8.848969460E0
1.814191280E0	7.685387611E0	-7.685387731E-1	9.095572472E0
1.815390191E0	7.661445618E0	-6.057330370E-1	9.193734169E0
1.818248819E0	6.861782074E0	-1.070208192E0	9.018958092E0
1.820021807E0	6.189011574E0	-1.594538331E0	8.487444878E0
1.822326934E0	6.030993938E0	-1.807622313E0	7.996633530E0
1.823498076E0	6.169857979E0	-1.714248419E0	7.795520782E0
1.826384819E0	6.418854713E0	-1.534683347E0	7.833827972E0
1.828175153E0	6.667851925E0	-1.417367458E0	8.020575523E0
1.830468973E0	6.991068840E0	-1.553836942E0	8.228871346E0
1.831662230E0	7.417236805E0	-1.944091797E0	8.341399193E0
1.834526088E0	7.706935406E0	-2.363077164E0	8.224082947E0
1.835998307E0	7.879317760E0	-2.791639090E0	7.824251175E0
1.838656203E0	8.049305916E0	-3.260902643E0	7.376535416E0
1.840059845E0	8.137891769E0	-3.588908434E0	7.070077419E0
1.842748049E0	8.243236542E0	-3.790021181E0	6.794744492E0
1.844370499E0	8.427590370E0	-3.993528366E0	6.447585106E0
1.846783626E0	8.468291283E0	-4.048594952E0	6.375759125E0
1.848205345E0	8.513781548E0	-4.127603531E0	6.227318764E0
1.850841049E0	8.437167168E0	-4.074931145E0	6.004657745E0
1.852413922E0	8.238448143E0	-3.957615376E0	5.966350555E0
1.854925088E0	8.015787125E0	-3.849876404E0	5.923254967E0
1.856222499E0	7.718906403E0	-3.730166197E0	5.906495571E0
1.858982549E0	7.419631004E0	-3.620033026E0	5.899312973E0
1.860654730E0	7.153874874E0	-3.514688015E0	5.911283970E0
1.863065511E0	6.794744492E0	-3.375824451E0	5.911283970E0
1.864309537E0	4.070142746E0	-2.726995707E0	4.541800499E0
1.867123203E0	-2.806004286E0	-1.010353088E0	8.930372596E-1
1.868823537E0	-1.114740276E1	1.333570361E0	-2.707842112E0
1.871193126E0	-1.856464005E1	3.667917013E0	-5.444414616E0
1.872391191E0	-2.373611641E1	5.779603004E0	-7.457938194E0
1.875250011E0	-2.608961678E1	7.644686222E0	-8.707711220E0
1.876587576E0	-2.571372604E1	9.313444138E0	-9.299078941E0
1.879276653E0	-2.290772247E1	1.053688145E1	-9.143456459E0
1.880734191E0	-1.853112030E1	1.135569859E1	-8.013393402E0
1.883488395E0	-1.417367363E1	1.153526402E1	-6.150704384E0
1.885234768E0	-1.032140350E1	1.106360626E1	-3.983951569E0
1.887524472E0	-6.670246124E0	1.057279491E1	-1.951274395E0
1.888741922E0	-3.533841610E0	1.030943298E1	-2.298433632E-1
1.891581472E0	-9.026140571E-1	1.007480049E1	1.285686255E0
1.893166345E0	2.154781580E0	9.507374763E0	3.205836058E0
1.895650857E0	2.920926094E0	9.313444138E0	3.679888010E0
1.896840499E0	4.247313976E0	8.980650902E0	4.398148537E0
1.899707665E0	5.487510204E0	8.781931877E0	4.826710701E0
1.901917845E0	6.658275127E0	8.765172005E0	4.752490520E0
1.904797088E0	6.849811077E0	8.896853447E0	4.335899353E0
1.906047499E0	6.797138691E0	9.006986618E0	3.809175014E0
1.908889588E0	6.691793919E0	8.927978516E0	3.303998232E0
1.910431191E0	6.880935669E0	8.674192429E0	3.366247654E0
1.912958511E0	7.568071365E0	8.166622162E0	3.845088005E0
1.914162037E0	8.774748802E0	7.438784599E0	4.730942726E0
1.917016049E0	1.029267311E1	6.706159115E0	5.784391403E0
1.918566153E0	1.183932781E1	6.141127586E0	6.861782074E0
1.921148088E0	1.303164005E1	5.770026207E0	7.675810814E0
1.922381537E0	1.413536644E1	5.353435040E0	8.092401505E0
1.925240665E0	1.554794598E1	4.826710701E0	8.183381081E0
1.926785922E0	1.687672806E1	4.316745758E0	8.092401505E0
1.929292664E0	1.732683754E1	3.837905407E0	7.936778545E0
1.930558037E0	1.642182922E1	3.275267839E0	7.685387611E0
1.933349626E0	1.478419590E1	2.597708941E0	7.398083210E0
1.934944230E0	1.311304283E1	1.963245392E0	7.170634270E0
1.937419511E0	1.172440529E1	1.453280449E0	7.074865818E0
1.938713845E0	1.089601231E1	9.457096457E-1	6.902483463E0
1.941477972E0	1.072362900E1	5.123591423E-1	6.528987885E0
1.943159345E0	1.071884060E1	3.519476354E-1	5.336675644E0
1.945556088E0	1.063743782E1	3.854664862E-1	4.944026470E0
1.946774345E0	1.016578007E1	5.626373887E-1	4.484339714E0
1.949613203E0	9.433155060E0	8.283938169E-1	4.400542736E0
1.951450191E0	8.250418663E0	1.501164436E0	4.144362926E0
1.953695434E0	7.807491779E0	1.781286120E0	3.995922565E0
1.954952576E0	6.880935669E0	2.315192938E0	3.804386616E0
1.957753164E0	5.932831764E0	2.631227732E0	3.828328609E0
1.959059383E0	4.367023945E0	2.523488522E0	4.086902142E0
1.961768806E0	3.394978046E0	2.403778553E0	4.168305397E0
1.963452268E0	2.724601507E0	2.272097349E0	4.122815132E0
1.965976241E0	2.219424963E0	2.039859772E0	3.933673382E0
1.967616114E0	1.539471745E0	1.860294700E0	3.641580820E0
1.970013395E0	5.626373887E-1	1.908178806E0	3.406949043E0
1.971400460E0	-4.189853072E-1	2.015917778E0	3.268085241E0
1.974070241E0	-1.436521053E0	2.135627985E0	3.081337690E0
1.975726306E0	-2.360682964E0	2.274491549E0	2.858676910E0
1.978153472E0	-3.050212860E0	2.387019157E0	2.339135170E0
1.979356960E0	-3.761290789E0	2.501940727E0	1.644816518E0
1.982210241E0	-4.426878929E0	2.573766708E0	1.235408068E0
1.983881037E0	-4.996698856E0	2.664746523E0	8.523358107E-1
1.986286549E0	-5.568912983E0	2.858676910E0	3.878606856E-1
1.987518653E0	-6.047753334E0	3.055001259E0	-3.830722719E-2
1.990343126E0	-6.457161903E0	3.277662039E0	-4.165911078E-1
1.991885230E0	-6.883329868E0	3.598485231E0	-7.757213712E-1
1.994412357E0	-7.316680431E0	3.988739967E0	-1.086967587E0
1.995653614E0	-7.764396191E0	4.446032524E0	-1.369483352E0
1.998469280E0	-8.262390137E0	4.996698856E0	-1.663970232E0
2.000325153E0	-8.959102631E0	5.999869347E0	-2.054224968E0
2.002464422E0	-9.105149269E0	6.330269337E0	-2.114080191E0
2.003674230E0	-9.124302864E0	6.890512466E0	-2.121262789E0
2.006576241E0	-9.145850182E0	7.383718014E0	-2.229001760E0
2.008111576E0	-9.583989143E0	8.149862289E0	-2.554613113E0
2.010611703E0	-9.674968719E0	8.394071579E0	-2.600103140E0
2.011760922E0	-9.406818390E0	8.834604263E0	-2.525882721E0
2.014668587E0	-8.662221909E0	9.248801231E0	-2.523488522E0
2.016187153E0	-8.576030731E0	1.003170490E1	-3.141192675E0
2.018737164E0	-8.817844391E0	1.033576870E1	-3.363853455E0
2.019884653E0	-9.560047150E0	1.108515358E1	-3.684676409E0
2.022794626E0	-1.023521233E1	1.201889229E1	-4.024652958E0
2.024454076E0	-1.085770512E1	1.364694977E1	-4.201824188E0
2.026826318E0	-1.112106705E1	1.478898430E1	-4.242525578E0
2.027984691E0	-1.139640045E1	1.593580627E1	-4.422090530E0
2.030882856E0	-1.170285797E1	1.702756310E1	-4.623203278E0
2.032426037E0	-1.199016190E1	1.800918579E1	-4.716577530E0
2.034951318E0	-1.222958183E1	1.888785744E1	-4.726154327E0
2.036145422E0	-1.240435886E1	1.967794418E1	-4.666299343E0
2.039007626E0	-1.252167511E1	2.039381027E1	-4.510675907E0
2.040340076E0	-1.264377880E1	2.115037727E1	-4.235342979E0
2.042978229E0	-1.271321106E1	2.195722389E1	-3.804386616E0
2.044373460E0	-1.261983681E1	2.263478279E1	-3.203441858E0
2.047228510E0	-1.236126328E1	2.319023705E1	-2.473210335E0
2.048814768E0	-1.195664310E1	2.364274216E1	-1.565807939E0
2.051279356E0	-1.143949604E1	2.394680595E1	-6.105214357E-1
2.052563229E0	-1.081460953E1	2.406891060E1	2.106897533E-1
2.055336356E0	-1.005325317E1	2.397074699E1	8.595184088E-1
2.056880153E0	-9.153033257E0	2.365471268E1	1.431732655E0
2.059405049E0	-8.116343498E0	2.321178627E1	2.138022184E0
2.060632614E0	-7.000645638E0	2.269703293E1	2.925714493E0
2.063462049E0	-5.940014362E0	2.218946075E1	3.641580820E0
2.065137537E0	-4.410119534E0	2.152626801E1	4.417302132E0
2.067538164E0	-3.881000996E0	2.130121231E1	4.608838081E0
2.068893999E0	-2.806004286E0	2.081040192E1	4.891354084E0
2.071594779E0	-1.745373011E0	2.028128242E1	5.011064053E0
2.073162845E0	-3.423708379E-1	1.955344582E1	4.781220913E0
2.075677395E0	7.661445439E-2	1.931163025E1	4.630385876E0
2.076958229E0	8.714894056E-1	1.877293587E1	4.290409565E0
2.079734395E0	1.606509328E0	1.821748161E1	3.926490784E0
2.081059191E0	2.518700123E0	1.744894218E1	3.344699860E0
2.083863664E0	3.057395458E0	1.693658257E1	2.916137695E0
2.085076499E0	3.596091032E0	1.641464615E1	2.466027737E0
2.087954972E0	4.110844135E0	1.588313389E1	2.006340981E0
2.089498845E0	4.594472885E0	1.534204483E1	1.563413739E0
2.091990702E0	4.987122059E0	1.479377270E1	1.175553083E0
2.093207499E0	5.291185856E0	1.425028896E1	8.403648138E-1
2.096047895E0	5.516240597E0	1.370680428E1	5.937620401E-1
2.097642768E0	5.734113216E0	1.315135002E1	4.572925270E-1
2.100132048E0	5.904101372E0	1.261265469E1	3.447650373E-1
2.101293768E0	5.875370979E0	1.211705494E1	1.963245422E-1
2.104190279E0	5.571307182E0	1.168130970E1	8.858546615E-2
2.105821768E0	5.281609058E0	1.125274754E1	6.464344263E-2
2.108267433E0	5.161899090E0	1.078348446E1	7.422025502E-2
2.109602499E0	5.097255230E0	1.030224991E1	1.221042871E-1
2.112325202E0	5.056553841E0	9.847352028E0	2.011129409E-1
2.113886076E0	5.054159641E0	9.425971985E0	3.112462163E-1
2.116395241E0	5.078101635E0	9.026140213E0	4.716577232E-1
2.117577268E0	5.111620426E0	8.643068314E0	6.512228847E-1
2.120453356E0	5.123591423E0	8.262390137E0	7.972691655E-1
2.121944691E0	5.106832027E0	7.908048153E0	9.074024558E-1
2.124419999E0	5.073313236E0	7.584830761E0	1.000776291E0
2.125819076E0	5.011064053E0	7.297526836E0	1.070208192E0
2.128691894E0	4.927267075E0	7.024587631E0	1.144428372E0
2.130441229E0	4.759673119E0	6.672640324E0	1.209071875E0
2.132728587E0	4.704606533E0	6.560112476E0	1.223437071E0
2.133933422E0	4.604049683E0	6.344634533E0	1.244984865E0
2.136786356E0	4.515464306E0	6.160281181E0	1.237802267E0
2.138417999E0	4.443638325E0	5.911283970E0	1.194706678E0
2.140856664E0	4.417302132E0	5.758055210E0	1.185129881E0
2.142082268E0	4.422090530E0	5.602431774E0	1.211466074E0
2.144914856E0	4.529829502E0	5.449203014E0	1.367089152E0
2.146645999E0	4.649539471E0	5.322310448E0	1.498770237E0
2.148946894E0	4.733336926E0	5.228936672E0	1.486799240E0
2.150177460E0	4.783615112E0	5.169081688E0	1.398213744E0
2.153004433E0	4.790797710E0	5.157110691E0	1.290474772E0
2.154581537E0	4.745307922E0	5.207388878E0	1.209071875E0
2.157073356E0	4.616020679E0	5.295974255E0	1.082179189E0
2.158314614E0	4.469974518E0	5.379771233E0	8.403648138E-1
2.161130779E0	4.350264549E0	5.456385612E0	6.655880809E-1
2.162525691E0	4.333505154E0	5.590460777E0	6.272808313E-1
2.165225268E0	4.374206543E0	5.743690014E0	6.344634295E-1
2.166554460E0	4.402936935E0	5.880159378E0	6.823474765E-1
2.169352356E0	4.395754337E0	6.035782337E0	7.757213712E-1
2.170934960E0	4.362235546E0	6.229712963E0	8.451532125E-1
2.173403779E0	4.333505154E0	6.445190907E0	8.595184088E-1
2.174581922E0	4.283226967E0	6.665457726E0	8.595184088E-1
2.177460779E0	4.209006786E0	6.897695065E0	8.595184088E-1
2.179037691E0	4.065354347E0	7.242460251E0	9.026140571E-1
2.181529625E0	4.003105164E0	7.350199223E0	9.241618514E-1
2.182692960E0	3.873818398E0	7.558494568E0	9.911994934E-1
2.185586548E0	3.778050184E0	7.762001991E0	1.058237195E0
2.187224460E0	3.715801001E0	8.051700592E0	1.158793569E0
2.189643114E0	3.703830004E0	8.125920296E0	1.194706678E0
2.190884229E0	3.679888010E0	8.240841866E0	1.266532660E0
2.193726548E0	3.658340216E0	8.329427719E0	1.321599364E0
2.195312191E0	3.900154591E0	8.360552788E0	1.395819545E0
2.197811010E0	4.771644115E0	8.133103371E0	1.520318031E0
2.198964191E0	4.865017891E0	8.101978302E0	1.520318031E0
2.201868356E0	4.484339714E0	8.207323074E0	1.462857246E0
2.203161037E0	4.252102375E0	8.212111473E0	1.434126854E0
2.205857229E0	4.240131378E0	8.147468567E0	1.482010841E0
2.207202576E0	4.395754337E0	8.087613106E0	1.582567334E0
2.210090240E0	4.661510944E0	8.027758598E0	1.663970232E0
2.211618729E0	4.915296078E0	7.948749542E0	1.568202138E0
2.214116383E0	5.200206280E0	7.850587368E0	1.376665950E0
2.215266960E0	5.442020416E0	7.754819393E0	1.144428372E0
2.218184356E0	5.590460777E0	7.735665798E0	9.600749016E-1
2.219723845E0	5.770026207E0	7.771578789E0	9.050082564E-1
2.222267586E0	6.045359135E0	7.809885979E0	8.858546019E-1
2.223403152E0	6.337451935E0	7.855375767E0	8.762778044E-1
2.226324971E0	6.643909931E0	7.915230751E0	8.690952063E-1
2.227973422E0	7.019799232E0	8.027758598E0	8.475474119E-1
2.230387883E0	7.465120792E0	8.180987358E0	7.972691655E-1
2.231557229E0	8.176198959E0	8.283937454E0	6.177040339E-1
2.234464433E0	9.325415611E0	8.300697327E0	4.094084799E-1
2.235998037E0	1.115697956E1	8.288725853E0	3.519476354E-1
2.238533548E0	1.152568722E1	8.348581314E0	4.141969085E-1
2.239681460E0	1.154244614E1	8.650250435E0	7.206547260E-1
2.242590856E0	1.073799419E1	9.136273384E0	1.211466074E0
2.243868614E0	9.686940193E0	9.742006302E0	1.747767210E0
2.246687922E0	8.865729332E0	1.041717148E1	2.233790159E0
2.247914306E0	8.324639320E0	1.104924107E1	2.573766708E0
2.250828317E0	7.467514992E0	1.179144382E1	2.636016130E0
2.252355268E0	6.758831501E0	1.208353615E1	2.437297344E0
2.254864548E0	6.102819920E0	1.224873543E1	2.106897593E0
2.256040229E0	5.540182590E0	1.228464890E1	1.687912226E0
2.258921240E0	5.090072632E0	1.221042824E1	1.237802267E0
2.260486345E0	4.697423935E0	1.204762268E1	7.948749661E-1
2.262990279E0	4.319139957E0	1.180580902E1	3.639186621E-1
2.264204729E0	3.938461781E0	1.147062016E1	-1.675941236E-2
2.267047125E0	3.672705412E0	1.106599998E1	-3.591302633E-1
2.268748460E0	3.505111217E0	1.067574501E1	-6.560112834E-1
2.271076740E0	3.320757866E0	1.033337498E1	-9.026140571E-1
2.272250614E0	3.064578056E0	1.002691650E1	-1.072602391E0
2.275133394E0	2.774879694E0	9.761159897E0	-1.223437071E0
2.276705037E0	2.489969730E0	9.550470352E0	-1.398213744E0
2.279201394E0	2.248155355E0	9.368511200E0	-1.541865945E0
2.280423729E0	2.049436569E0	9.188945770E0	-1.613691926E0
2.283258125E0	1.857900500E0	9.035717010E0	-1.637633920E0
2.284663460E0	1.690306425E0	8.920795441E0	-1.604115129E0
2.287196614E0	1.613691926E0	8.805873871E0	-1.462857246E0
2.288759229E0	1.675941229E0	8.700529099E0	-1.206677675E0
2.291478163E0	1.805228114E0	8.611943245E0	-9.026140571E-1
2.293070999E0	2.066195965E0	8.511386871E0	-4.405331016E-1
2.295529663E0	2.159569979E0	8.494627953E0	-2.825157940E-1
2.296735306E0	2.348711967E0	8.480262756E0	3.351882473E-2
2.299587009E0	2.525882721E0	8.468291283E0	3.519476354E-1
2.301158422E0	2.734178305E0	8.480262756E0	7.924807668E-1
2.303656240E0	2.791639090E0	8.487444878E0	9.337386489E-1
2.304870152E0	2.880224705E0	8.532935143E0	1.213860273E0
2.307713548E0	2.870647907E0	8.633491516E0	1.496376038E0
2.309486729E0	2.983175278E0	8.750806808E0	1.877054095E0
2.311792345E0	3.131615877E0	8.808267593E0	2.087743998E0
2.312944960E0	3.282450438E0	8.865729332E0	2.255337954E0
2.315850317E0	3.423708439E0	8.935160637E0	2.363077164E0
2.317423768E0	3.538630009E0	9.018958092E0	2.430114746E0
2.319934971E0	3.622427225E0	9.133879662E0	2.461239338E0
2.321137845E0	3.588908434E0	9.299078941E0	2.482787132E0
2.323993086E0	3.632004023E0	9.416395187E0	2.437297344E0
2.325276537E0	3.746925592E0	9.461885452E0	2.346317768E0
2.328083999E0	3.878606796E0	9.478644371E0	2.257732153E0
2.329372229E0	4.024652958E0	9.466673851E0	2.159569979E0
2.332215971E0	4.149151325E0	9.447520256E0	2.035071373E0
2.333777114E0	4.220977783E0	9.433155060E0	1.900996208E0
2.336254240E0	4.252102375E0	9.416395187E0	1.754949808E0
2.337404229E0	4.292803764E0	9.387664795E0	1.611297727E0
2.340312163E0	4.367023945E0	9.342175484E0	1.474828243E0
2.341862422E0	4.429273129E0	9.299078941E0	1.347935557E0
2.344395383E0	4.450820923E0	9.265560150E0	1.254561663E0
2.345549037E0	4.398148537E0	9.220070839E0	1.230619669E0
2.348453663E0	4.359841347E0	9.181763649E0	1.213860273E0
2.350146075E0	4.503493309E0	9.071630478E0	1.017535686E0
2.352504778E0	4.541800499E0	9.028534889E0	9.409212470E-1
2.353669729E0	4.551377296E0	8.956708908E0	8.212111592E-1
2.356561586E0	4.529829502E0	8.896853447E0	7.158663273E-1
2.358151806E0	4.599261284E0	8.801085472E0	5.123591423E-1
2.360629278E0	4.654327869E0	8.762778282E0	4.381389022E-1
2.361819806E0	4.759673119E0	8.690952301E0	3.112462163E-1
2.364686278E0	4.843470097E0	8.614337921E0	2.513911724E-1
2.366026306E0	4.963180065E0	8.465897560E0	1.987187415E-1
2.368658883E0	5.020640850E0	8.360552788E0	1.915361285E-1
2.370010922E0	5.030217648E0	8.264783859E0	1.963245422E-1
2.372924817E0	5.032611847E0	8.171410561E0	2.274491638E-1
2.374456768E0	5.094861031E0	8.085219383E0	2.968810201E-1
2.376962855E0	5.173870087E0	8.006210327E0	4.094084799E-1
2.378115883E0	5.209783077E0	7.929595947E0	5.267243981E-1
2.381021047E0	5.212177277E0	7.864952564E0	6.248866320E-1
2.382540114E0	5.231330872E0	7.833827972E0	6.991068721E-1
2.385087883E0	5.252878666E0	7.793126583E0	7.541735172E-1
2.386235268E0	5.394136429E0	7.644686222E0	1.046266198E0
2.389148932E0	5.935225964E0	7.335834026E0	1.956062794E0
2.390832229E0	5.877765179E0	7.211335659E0	2.025494576E0
2.393189240E0	5.372588634E0	7.230489254E0	1.596932530E0
2.394353652E0	4.967968464E0	7.249642849E0	1.242590666E0
2.397247278E0	4.716577530E0	7.256825447E0	1.017535686E0
2.398781191E0	4.496310711E0	7.249642849E0	9.145850539E-1
2.401317663E0	4.249708176E0	7.240066051E0	8.954314590E-1
2.402616306E0	3.979163170E0	7.249642849E0	9.433154464E-1
2.405375470E0	3.687070608E0	7.285555840E0	1.012747288E0
2.406697537E0	3.426102638E0	7.350199223E0	1.036689281E0
2.409493460E0	3.313575268E0	7.429207802E0	1.003170490E0
2.410847460E0	3.335123062E0	7.501033783E0	9.433154464E-1
2.413599393E0	3.428496838E0	7.587224960E0	8.810662031E-1
2.415177883E0	3.620033026E0	7.728483200E0	8.834604025E-1
2.417651740E0	3.687070608E0	7.752425194E0	9.002198577E-1
2.418879806E0	3.823540211E0	7.797914982E0	8.810662031E-1
2.421709047E0	3.962403774E0	7.852981567E0	8.475474119E-1
2.423245422E0	4.153939724E0	7.943961143E0	8.283938169E-1
2.425779932E0	4.288015366E0	8.099584579E0	7.254431248E-1
2.427141729E0	4.364629745E0	8.183381081E0	6.919242740E-1
2.429837124E0	4.563348293E0	8.422801971E0	6.655880809E-1
2.431553883E0	4.671087742E0	8.552088737E0	7.038952708E-1
2.433887345E0	4.733336926E0	8.669404030E0	7.685387731E-1
2.435070883E0	4.786009312E0	8.808267593E0	8.116343617E-1
2.437944355E0	4.900930882E0	8.892065048E0	9.337386489E-1
2.439482614E0	4.982333660E0	8.901641846E0	1.077390790E0
2.442028201E0	4.982333660E0	8.916007042E0	1.113303781E0
2.443194422E0	4.953603268E0	8.959102631E0	1.096544385E0
2.446084701E0	4.975151062E0	9.042900085E0	1.063025594E0
2.447367383E0	5.032611847E0	9.143456459E0	1.043871999E0
2.450172729E0	5.118803024E0	9.227252960E0	1.079784989E0
2.451500383E0	5.149928093E0	9.282320023E0	1.072602391E0
2.454307316E0	5.185841084E0	9.356540680E0	1.063025594E0
2.455856037E0	5.207388878E0	9.414001465E0	1.098938584E0
2.458344893E0	5.173870087E0	9.452308655E0	1.118092179E0
2.459528614E0	5.075707436E0	9.445125580E0	1.113303781E0
2.462402047E0	5.011064053E0	9.447520256E0	1.125274777E0
2.463944537E0	5.068524837E0	9.519346237E0	1.201889277E0
2.466484739E0	5.068524837E0	9.598354340E0	1.271321058E0
2.467670306E0	5.018246651E0	9.631873131E0	1.295263171E0
2.470541932E0	4.917690277E0	9.639056206E0	1.276109457E0
2.472191306E0	4.673481941E0	9.574412346E0	1.230619669E0
2.474600162E0	4.577713490E0	9.540893555E0	1.197100878E0
2.475777729E0	4.376600742E0	9.485827446E0	1.094150186E0
2.478656893E0	4.216189384E0	9.411606789E0	9.935936928E-1
2.480317729E0	3.991134167E0	9.299078941E0	8.283938169E-1
2.482725470E0	3.909731388E0	9.263166428E0	8.068459630E-1
2.483916691E0	3.763684988E0	9.181763649E0	7.900865674E-1
2.486782355E0	3.663128614E0	9.083600998E0	8.116343617E-1
2.488296460E0	3.675099611E0	9.016563416E0	8.499416113E-1
2.490890614E0	3.763684988E0	8.937555313E0	9.074024558E-1
2.492234114E0	3.835511208E0	8.860940933E0	9.385270476E-1
2.495017855E0	3.936067581E0	8.781931877E0	9.265560508E-1
2.496554037E0	4.101267338E0	8.717288017E0	9.648633003E-1
2.499053393E0	4.323928356E0	8.702922821E0	1.079784989E0
2.500492998E0	4.558559895E0	8.710105896E0	1.144428372E0
2.503110855E0	4.771644115E0	8.690952301E0	1.163581967E0
2.504669498E0	4.982333660E0	8.626308441E0	1.187524080E0
2.507179739E0	5.159504890E0	8.537723541E0	1.204283476E0
2.508457575E0	5.272032261E0	8.463502884E0	1.206677675E0
2.511236970E0	5.360617638E0	8.456320763E0	1.204283476E0
2.512922229E0	5.430049419E0	8.482656479E0	1.216254473E0
2.515284355E0	5.473145008E0	8.525752068E0	1.259350061E0
2.516488152E0	5.485116005E0	8.568847656E0	1.333570361E0
2.519342162E0	5.499481201E0	8.633491516E0	1.431732655E0
2.520930652E0	5.509057999E0	8.695740700E0	1.529894829E0
2.523409508E0	5.468356609E0	8.769960403E0	1.577778935E0
2.524588883E0	5.367800236E0	8.834604263E0	1.517923832E0
2.527467470E0	5.250484467E0	8.868123055E0	1.520318031E0
2.528746768E0	5.195417881E0	8.875306129E0	1.575384736E0
2.531430575E0	5.142745018E0	8.877699852E0	1.616086125E0
2.532836152E0	5.049371243E0	8.853757858E0	1.608903527E0
2.535690931E0	4.910507679E0	8.810662270E0	1.537077546E0
2.537280921E0	4.661510944E0	8.765172005E0	1.467645645E0
2.539741854E0	4.577713490E0	8.760383606E0	1.443703651E0
2.540909575E0	4.429273129E0	8.769960403E0	1.453280449E0
2.543799816E0	4.273650169E0	8.755595207E0	1.721431017E0
2.545343345E0	4.228160381E0	8.750806808E0	1.886630893E0
2.547870816E0	4.118026733E0	8.793902397E0	1.812410712E0
2.549023191E0	3.612850428E0	8.927978516E0	1.577778935E0
2.551928662E0	2.880224705E0	9.109937668E0	1.616086125E0
2.553593421E0	3.064578056E0	9.141061783E0	1.601720929E0
2.556012114E0	3.536235809E0	9.071630478E0	1.357512355E0
2.557203075E0	3.670311213E0	8.949525833E0	1.187524080E0
2.560069893E0	3.404554844E0	8.825027466E0	1.249773264E0
2.561665383E0	3.418920040E0	8.722076416E0	1.328781962E0
2.564154508E0	3.878606796E0	8.662221909E0	1.510741234E0
2.565347152E0	4.082113743E0	8.628703117E0	1.594538331E0
2.568212124E0	4.103661537E0	8.592789650E0	1.565807939E0
2.569496575E0	4.012681961E0	8.609549522E0	1.829170108E0
2.572333691E0	3.730166197E0	8.662221909E0	2.044648170E0
2.573540268E0	3.663128614E0	8.655038834E0	2.166752577E0
2.576435739E0	3.773261786E0	8.664615631E0	2.267308950E0
2.578002537E0	3.780444384E0	8.702922821E0	1.996764183E0
2.580473085E0	3.782838583E0	8.700529099E0	1.886630893E0
2.581640729E0	3.770867586E0	8.662221909E0	1.584961534E0
2.584531124E0	3.684676409E0	8.590395927E0	1.230619669E0
2.586081344E0	3.665522814E0	8.463502884E0	8.690952063E-1
2.588616316E0	3.739742994E0	8.408436775E0	7.900865674E-1
2.589831421E0	3.928884983E0	8.276755333E0	7.134721279E-1
2.592674431E0	4.137180328E0	8.130708694E0	7.278373241E-1
2.594370537E0	4.529829502E0	7.829039574E0	9.744400978E-1
2.596733931E0	4.663905144E0	7.735665798E0	1.055842996E0
2.597925537E0	4.786009312E0	7.608773232E0	1.182735682E0
2.600792008E0	4.625597477E0	7.438784599E0	1.189918280E0
2.602493344E0	4.505887508E0	7.328651428E0	1.132457376E0
2.604828816E0	4.551377296E0	7.235277653E0	1.053448796E0
2.606075652E0	4.647145271E0	7.177816868E0	1.012747288E0
2.608886470E0	4.716577530E0	7.158663273E0	8.858546019E-1
2.610213806E0	4.833893299E0	7.101202011E0	5.961562395E-1
2.612849729E0	5.018246651E0	7.031770229E0	2.466027737E-1
2.614243344E0	5.284003258E0	6.988674641E0	-8.858546615E-2
2.617125123E0	5.631162167E0	6.983886242E0	-1.867477298E-1
2.618688575E0	5.772420406E0	7.012616634E0	6.464344263E-2
2.621161816E0	5.631162167E0	7.067683220E0	6.033388376E-1
2.622472614E0	5.343858242E0	7.055712223E0	1.252167463E0
2.625219431E0	5.159504890E0	6.991068840E0	1.635239720E0
2.626816191E0	5.137956619E0	6.916848660E0	1.735796213E0
2.629287739E0	5.185841084E0	6.902483463E0	1.675941229E0
2.630484152E0	5.307945251E0	6.916848660E0	1.517923832E0
2.633344893E0	5.497087002E0	6.933608055E0	1.400607944E0
2.635084998E0	5.877765179E0	7.026981831E0	1.309628367E0
2.637385662E0	6.004657745E0	7.060500622E0	1.271321058E0
2.638654191E0	6.260837555E0	7.149086475E0	1.230619669E0
2.641443393E0	6.581660271E0	7.256825447E0	1.216254473E0
2.643021075E0	6.902483463E0	7.450755596E0	1.015141487E0
2.645479393E0	6.957550049E0	7.513004780E0	9.097966552E-1
2.646908498E0	6.986280441E0	7.659051418E0	6.727706790E-1
2.649536816E0	6.871358871E0	7.807491779E0	3.351882398E-1
2.651013152E0	6.725312710E0	7.917624950E0	-4.788403399E-3
2.653666546E0	6.605602264E0	8.030152321E0	-2.035071403E-1
2.654944691E0	6.507440090E0	8.142680168E0	-2.082955539E-1
2.657759046E0	6.313509941E0	8.288725853E0	-2.274491638E-1
2.659471614E0	6.102819920E0	8.415618896E0	-1.915361285E-1
2.661810585E0	5.822698593E0	8.578424454E0	-3.040636182E-1
2.663453191E0	5.480327606E0	8.690952301E0	-3.711012602E-1
2.665868700E0	5.116408825E0	8.805873871E0	-4.118026793E-1
2.667451921E0	4.841075897E0	8.908824921E0	-3.399766386E-1
2.669937931E0	4.537012100E0	9.030928612E0	-4.022258818E-1
2.671133075E0	4.302380562E0	9.179368973E0	-3.878606856E-1
2.673995546E0	4.027047157E0	9.344569206E0	-3.663128614E-1
2.675744037E0	3.845088005E0	9.507374763E0	-3.184288144E-1
2.678046623E0	3.696647406E0	9.722852707E0	-3.567360640E-1
2.679252998E0	3.552995205E0	9.988609314E0	-3.758896589E-1
2.682105123E0	3.392583847E0	1.020887566E1	-3.399766386E-1
2.683708383E0	3.239354849E0	1.040759468E1	-2.801215947E-1
2.686189469E0	3.124433279E0	1.059673691E1	-2.178723514E-1
2.687402383E0	2.975992680E0	1.078587818E1	-2.489969730E-1
2.690247931E0	2.846705914E0	1.095586681E1	-3.327940404E-1
2.691632306E0	2.880224705E0	1.103008747E1	-3.112462163E-1
2.694211806E0	2.932897091E0	1.112824917E1	-3.112462163E-1
2.695683037E0	2.956839085E0	1.119768143E1	-2.537853718E-1
2.698472162E0	2.983175278E0	1.121204662E1	-8.379705995E-2
2.700124806E0	3.045424461E0	1.126471901E1	7.182604820E-2
2.702509008E0	3.066972494E0	1.127190113E1	9.816227108E-2
2.703927844E0	3.141192675E0	1.125993061E1	1.939303428E-1
2.706566662E0	3.203441858E0	1.114022064E1	3.591302633E-1
2.708168383E0	3.337517262E0	1.090080070E1	6.033388376E-1
2.710650662E0	3.375824451E0	1.083136845E1	6.536170840E-1
2.711942037E0	3.406949043E0	1.071644688E1	6.871358752E-1
2.714708892E0	3.387795448E0	1.063025570E1	7.062895298E-1
2.716464344E0	3.313575268E0	1.044350815E1	7.350199223E-1
2.718759738E0	3.313575268E0	1.029985619E1	7.900865674E-1
2.719998344E0	3.339911461E0	1.015620327E1	8.738836050E-1
2.722817854E0	3.385401249E0	1.001015759E1	9.983820915E-1
2.724367037E0	3.478775024E0	9.885659218E0	1.154005170E0
2.726887892E0	3.512293816E0	9.789890289E0	1.357512355E0
2.728093998E0	3.560178041E0	9.706093788E0	1.549048543E0
2.730945200E0	3.722983599E0	9.631873131E0	1.721431017E0
2.732278844E0	3.871424198E0	9.555258751E0	1.934514999E0
2.735050614E0	3.955221176E0	9.481039047E0	2.185906172E0
2.736271960E0	4.113238335E0	9.414001465E0	2.396595955E0
2.739183354E0	4.326322556E0	9.344569206E0	2.580949545E0
2.740716037E0	4.477157116E0	9.284713745E0	2.724601507E0
2.743220161E0	4.548983097E0	9.200917244E0	2.794033289E0
2.744403537E0	4.589684486E0	9.095572472E0	2.837129116E0
2.747277931E0	4.599261284E0	9.016563416E0	2.882618904E0
2.748792998E0	4.611232281E0	8.966285706E0	2.873042107E0
2.751334421E0	4.661510944E0	8.923190117E0	2.808398485E0
2.752493152E0	4.711789131E0	8.872911453E0	2.693476915E0
2.755405277E0	4.656722069E0	8.848969460E0	2.583343744E0
2.757120729E0	4.529829502E0	8.851364136E0	2.442085743E0
2.759429383E0	4.496310711E0	8.853757858E0	2.387019157E0
2.760586960E0	4.359841347E0	8.846575737E0	2.300827742E0
2.763500507E0	4.223371983E0	8.844181061E0	2.209848166E0
2.765018575E0	4.321534157E0	8.817844391E0	2.049436569E0
2.767571277E0	4.434061527E0	8.798690796E0	2.001552582E0
2.768735806E0	4.635174274E0	8.779537201E0	1.951274395E0
2.771628469E0	4.721365929E0	8.803479195E0	1.917755604E0
2.772953114E0	4.783615112E0	8.820239067E0	1.838746905E0
2.775520614E0	4.862623692E0	8.791508675E0	1.747767210E0
2.776942806E0	4.738125324E0	8.803479195E0	1.742978811E0
2.779850507E0	4.560954094E0	8.805873871E0	1.735796213E0
2.781401806E0	4.450820923E0	8.805873871E0	1.716642618E0
2.783902546E0	4.383783340E0	8.813055992E0	1.704671621E0
2.785083190E0	4.292803764E0	8.815450668E0	1.733402014E0
2.787959354E0	4.141968727E0	8.808267593E0	1.740584612E0
2.789519344E0	3.969586372E0	8.765172005E0	1.704671621E0
2.791996161E0	3.821146011E0	8.688557625E0	1.666364431E0
2.793166114E0	3.778050184E0	8.599972725E0	1.637633920E0
2.796053277E0	3.873818398E0	8.511386871E0	1.618480325E0
2.797732383E0	4.024652958E0	8.437167168E0	1.632845521E0
2.800111853E0	4.115632534E0	8.394071579E0	1.685518026E0
2.801291960E0	4.118026733E0	8.379706383E0	1.747767210E0
2.804168469E0	4.187458992E0	8.341399193E0	1.757344007E0
2.805733075E0	4.340687752E0	8.303091049E0	1.733402014E0
2.808252930E0	4.414907932E0	8.307879448E0	1.757344007E0
2.809421537E0	4.395754337E0	8.312667847E0	1.793257117E0
2.812309892E0	4.309563160E0	8.310274124E0	1.819593310E0
2.813593652E0	4.043806553E0	8.360552788E0	1.889025092E0
2.816394806E0	3.531447411E0	8.473079681E0	1.963245392E0
2.817640690E0	2.894589901E0	8.592789650E0	1.994369984E0
2.820534892E0	2.418143749E0	8.638279915E0	1.982398987E0
2.822113229E0	2.324769735E0	8.516175270E0	2.063801765E0
2.824571853E0	2.358288765E0	8.470685959E0	2.109291792E0
2.825748806E0	2.372653961E0	8.415618896E0	2.140416384E0
2.828629930E0	2.279279947E0	8.415618896E0	2.063801765E0
2.830412152E0	2.432508945E0	8.389283180E0	1.920149803E0
2.832714892E0	2.533065319E0	8.374917984E0	1.912967205E0
2.833898767E0	2.691082716E0	8.360552788E0	1.910573006E0
2.836772930E0	2.806004286E0	8.348581314E0	1.838746905E0
2.838611844E0	2.947262287E0	8.319850922E0	1.769315004E0
2.840835584E0	3.162740469E0	8.271966934E0	1.697489023E0
2.841990383E0	3.299209833E0	8.243236542E0	1.628057122E0
2.844893392E0	3.323152065E0	8.231265068E0	1.544260144E0
2.846562037E0	3.347094059E0	8.219294548E0	1.458068848E0
2.848962161E0	3.404554844E0	8.195352554E0	1.405396342E0
2.850144460E0	3.418920040E0	8.178592682E0	1.393425345E0
2.853020161E0	3.493140221E0	8.192957878E0	1.376665950E0
2.854436960E0	3.567360640E0	8.228871346E0	1.429338455E0
2.856973075E0	3.703830004E0	8.274360657E0	1.446097851E0
2.858442537E0	3.881000996E0	8.300697327E0	1.441309452E0
2.861259007E0	3.960009575E0	8.303091049E0	1.553836942E0
2.862811921E0	4.019864559E0	8.324639320E0	1.654393315E0
2.865296776E0	4.113238335E0	8.329427719E0	1.561019540E0
2.866475190E0	4.220977783E0	8.307879448E0	1.304839969E0
2.869354815E0	4.340687752E0	8.264783859E0	9.504981041E-1
2.870889229E0	4.419696331E0	8.197746277E0	6.320692301E-1
2.873425699E0	4.278438568E0	8.109161377E0	4.094084799E-1
2.874612575E0	4.034229755E0	8.082824707E0	3.854664862E-1
2.877483661E0	3.914519787E0	8.087613106E0	4.165911078E-1
2.879185921E0	3.727771997E0	8.164227486E0	5.482721925E-1
2.881523276E0	3.713406801E0	8.183381081E0	5.770025849E-1
2.882748075E0	3.751713991E0	8.202534676E0	6.296750307E-1
2.885581892E0	3.495534420E0	8.303091049E0	8.690952063E-1
2.887256075E0	3.069366693E0	8.499416351E0	1.154005170E0
2.889651892E0	3.083731890E0	8.530540466E0	1.146822572E0
2.890836113E0	2.990357876E0	8.633491516E0	1.225831270E0
2.893710699E0	2.762908697E0	8.784325600E0	1.369483352E0
2.895023767E0	2.681505919E0	8.951920509E0	1.537077546E0
2.897841853E0	2.774879694E0	9.021351814E0	1.663970232E0
2.899217075E0	3.088520288E0	9.045293808E0	1.690306425E0
2.901934584E0	3.294421434E0	9.109937668E0	1.778891921E0
2.903523306E0	3.562572241E0	9.198522568E0	1.838746905E0
2.905986738E0	3.957615376E0	9.277531624E0	1.855506301E0
2.907211113E0	4.453215122E0	9.334992409E0	1.790862918E0
2.910044892E0	4.960785866E0	9.378087997E0	1.659181833E0
2.911627921E0	5.341464043E0	9.370905876E0	1.570596337E0
2.914114045E0	5.765237808E0	9.346963882E0	1.534683347E0
2.915282190E0	6.313509941E0	9.323021889E0	1.486799240E0
2.918172238E0	6.792350292E0	9.291896820E0	1.393425345E0
2.919837690E0	7.218518257E0	9.239224434E0	1.266532660E0
2.922248584E0	7.694964409E0	9.145850182E0	1.098938584E0
2.923501190E0	8.075642586E0	9.040505409E0	1.003170490E0
2.926306584E0	8.238448143E0	8.966285706E0	9.457096457E-1
2.927965767E0	8.286332130E0	8.896853447E0	8.283938169E-1
2.930391315E0	8.341399193E0	8.820239067E0	6.703764796E-1
2.931666960E0	8.379706383E0	8.743624687E0	5.339069963E-1
2.934449891E0	8.322244644E0	8.676587105E0	4.429273009E-1
2.935743652E0	8.154650688E0	8.621520042E0	3.495534360E-1
2.938524998E0	7.908048153E0	8.564059258E0	2.633621991E-1
2.939909229E0	7.601590633E0	8.518569946E0	2.106897533E-1
2.942674045E0	7.240066051E0	8.482656479E0	1.843535304E-1
2.944229152E0	6.768408298E0	8.492233276E0	1.101332754E-1
2.946743661E0	6.524199486E0	8.511386871E0	6.464344263E-2
2.948081113E0	6.275202751E0	8.537723541E0	5.985504389E-2
2.950801622E0	6.038176537E0	8.592789650E0	7.422025502E-2
2.952501267E0	5.822698593E0	8.674192429E0	9.576806426E-2
2.954885545E0	5.619191170E0	8.738836288E0	1.388636976E-1
2.956068498E0	5.439626217E0	8.810662270E0	1.867477298E-1
2.958943814E0	5.262455463E0	8.899248123E0	2.322375625E-1
2.960695690E0	5.066130638E0	8.973467827E0	2.992752194E-1
2.963027122E0	4.874594688E0	9.047688484E0	3.878606856E-1
2.964208729E0	4.690241337E0	9.112331390E0	4.860229492E-1
2.967085507E0	4.503493309E0	9.157821655E0	5.961562395E-1
2.968674729E0	4.278438568E0	9.210494041E0	7.302315235E-1
2.971155545E0	4.031835556E0	9.258378029E0	8.738836050E-1
2.972457883E0	3.787626982E0	9.296685219E0	1.015141487E0
2.975213391E0	3.531447411E0	9.313444138E0	1.187524080E0
2.976869652E0	3.280056238E0	9.313444138E0	1.357512355E0
2.979360314E0	3.076549292E0	9.296685219E0	1.513135433E0
2.980602113E0	2.904166698E0	9.277531624E0	1.656787634E0
2.983453237E0	2.734178305E0	9.253589630E0	1.788468719E0
2.985027998E0	2.475604534E0	9.208099365E0	1.970427990E0
2.987489699E0	2.394201756E0	9.193734169E0	2.030282974E0
2.988667037E0	2.260126352E0	9.162610054E0	2.123656988E0
2.991547776E0	2.138022184E0	9.124302864E0	2.197877169E0
2.993143113E0	1.881842494E0	9.045293808E0	2.281674147E0
2.995618007E0	1.793257117E0	9.014169693E0	2.305616140E0
2.996828421E0	1.659181833E0	8.963891029E0	2.341529369E0
2.999675391E0	1.594538331E0	8.930372238E0	2.348711967E0
3.001398536E0	1.601720929E0	8.887276649E0	2.351106167E0
3.003712353E0	1.620874524E0	8.882488251E0	2.343923569E0
3.004903460E0	1.678335428E0	8.913613319E0	2.336740971E0
3.007770199E0	1.814804912E0	8.963891029E0	2.353500366E0
3.009384998E0	2.015917778E0	8.971074104E0	2.319981337E0
3.011839737E0	2.293645144E0	8.985439301E0	2.257732153E0
3.013266075E0	2.564189911E0	8.997409821E0	2.190694571E0
3.015898045E0	2.837129116E0	8.997409821E0	2.116474390E0
3.017211690E0	3.179499865E0	8.978256226E0	2.025494576E0
3.019863267E0	3.593696833E0	8.927978516E0	1.908178806E0
3.021284383E0	4.036623955E0	8.860940933E0	1.747767210E0
3.024124353E0	4.390965939E0	8.793902397E0	1.604115129E0
3.025729536E0	4.594472885E0	8.746018410E0	1.477222443E0
3.028176006E0	4.659116745E0	8.753201485E0	1.381454349E0
3.029431460E0	4.589684486E0	8.753201485E0	1.304839969E0
3.032234622E0	4.419696331E0	8.753201485E0	1.237802267E0
3.033931267E0	4.228160381E0	8.786720276E0	1.189918280E0
3.036304929E0	4.094084740E0	8.789113998E0	1.158793569E0
3.037718460E0	3.940855980E0	8.772355080E0	1.139639974E0
3.040363276E0	3.694253206E0	8.834604263E0	1.091755986E0
3.042125575E0	3.138798475E0	9.004592896E0	1.072602391E0
3.044421353E0	2.964021683E0	9.057265282E0	1.070208192E0
3.045625267E0	2.729389906E0	9.141061783E0	1.058237195E0
3.048478583E0	2.604891539E0	9.224859238E0	1.036689281E0
3.050066883E0	2.511517525E0	9.354146004E0	1.022324085E0
3.052563506E0	2.528276920E0	9.402029991E0	1.027112484E0
3.054054421E0	2.636016130E0	9.481039047E0	1.048660398E0
3.056621737E0	2.777273893E0	9.552865028E0	1.079784989E0
3.058028998E0	2.983175278E0	9.545681953E0	1.036689281E0
3.060753199E0	3.102885485E0	9.476250648E0	9.720458984E-1
3.062194267E0	3.227383852E0	9.414001465E0	9.409212470E-1
3.064846122E0	3.342305660E0	9.366117477E0	9.313444495E-1
3.066423806E0	3.476380825E0	9.308655739E0	8.978256583E-1
3.068883429E0	3.658340216E0	9.222464561E0	8.259995580E-1
3.070146229E0	3.763684988E0	9.153033257E0	7.876923680E-1
3.072942391E0	3.773261786E0	9.114726067E0	7.972691655E-1
3.074680767E0	3.744531393E0	9.093177795E0	8.164227605E-1
3.077028237E0	3.699041605E0	9.069235802E0	8.283938169E-1
3.078224998E0	3.658340216E0	9.045293808E0	8.236053586E-1
3.081086506E0	3.665522814E0	9.016563416E0	8.020575643E-1
3.082823113E0	3.691859007E0	8.990227699E0	7.829039693E-1
3.085145160E0	3.703830004E0	8.973467827E0	7.852981687E-1
3.086362229E0	3.713406801E0	8.949525833E0	7.852981687E-1
3.089203775E0	3.711012602E0	8.923190117E0	7.900865674E-1
3.090830460E0	3.722983599E0	8.901641846E0	8.044517636E-1
3.093273775E0	3.696647406E0	8.825027466E0	7.996633649E-1
3.094520036E0	3.598485231E0	8.671798706E0	7.924807668E-1
3.097331775E0	3.519476414E0	8.530540466E0	7.900865674E-1
3.098716152E0	3.502717018E0	8.439560890E0	8.020575643E-1
3.101299806E0	3.543418407E0	8.379706383E0	8.164227605E-1
3.102718421E0	3.596091032E0	8.339004517E0	8.331822157E-1
3.105572429E0	3.655946016E0	8.317456245E0	8.499416113E-1
3.107155498E0	3.787626982E0	8.310274124E0	8.690952063E-1
3.109610737E0	3.861847401E0	8.310274124E0	8.643068075E-1
3.110884998E0	4.055777550E0	8.286332130E0	8.499416113E-1
3.113669122E0	4.161122322E0	8.279149055E0	8.667010069E-1
3.115237806E0	4.046200752E0	8.398859978E0	9.409212470E-1
3.117739352E0	3.964797974E0	8.508993149E0	9.864110947E-1
3.118980267E0	3.969586372E0	8.583212852E0	1.010353088E0
3.121797468E0	4.074931145E0	8.621520042E0	1.015141487E0
3.123530767E0	4.230554581E0	8.645462036E0	1.029506683E0
3.125845006E0	4.390965939E0	8.638279915E0	1.048660398E0
3.127052883E0	4.548983097E0	8.576030731E0	1.070208192E0
3.129902852E0	4.639962673E0	8.516175270E0	1.146822572E0
3.131478729E0	4.503493309E0	8.554482460E0	1.256955862E0
3.133971237E0	4.319139957E0	8.626308441E0	1.367089152E0
3.135234613E0	4.139574528E0	8.719682693E0	1.484405041E0
3.138029121E0	3.976768970E0	8.817844391E0	1.565807939E0
3.139447767E0	3.799597979E0	8.906430244E0	1.604115129E0
3.142160237E0	3.555389643E0	9.016563416E0	1.671152830E0
3.143781767E0	3.428496838E0	9.119514465E0	1.740584612E0
3.146252698E0	3.469198227E0	9.179368973E0	1.754949808E0
3.147871921E0	3.488351822E0	9.210494041E0	1.795651317E0
3.150305160E0	3.404554844E0	9.241618156E0	1.862688899E0
3.151559536E0	3.327940464E0	9.260771751E0	1.889025092E0
3.154363044E0	3.323152065E0	9.272743225E0	1.908178806E0
3.156014998E0	3.330334663E0	9.263166428E0	1.910573006E0
3.158432698E0	3.301604033E0	9.232041359E0	1.872265697E0
3.159615459E0	3.196259260E0	9.220070839E0	1.819593310E0
3.162490044E0	3.047818661E0	9.232041359E0	1.776497602E0
3.164180306E0	2.856282711E0	9.279925346E0	1.675941229E0
3.166547660E0	2.834734917E0	9.287108421E0	1.616086125E0
3.167742036E0	2.861071110E0	9.251194954E0	1.450886250E0
3.170605467E0	2.978386879E0	9.186552048E0	1.276109457E0
3.172257959E0	4.074931145E0	8.975862503E0	9.720458984E-1
3.174688621E0	4.879383087E0	8.844181061E0	8.403648138E-1
3.175960613E0	5.671864033E0	8.669404030E0	7.038952708E-1
3.178745737E0	5.276820660E0	8.568847656E0	6.895300746E-1
3.180117844E0	4.927267075E0	8.489839554E0	6.847416759E-1
3.182758536E0	4.635174274E0	8.432378769E0	6.943184733E-1
3.184242036E0	4.357447147E0	8.391676903E0	6.847416759E-1
3.186968352E0	4.043806553E0	8.379706383E0	6.679822803E-1
3.188772190E0	3.711012602E0	8.394071579E0	6.584054828E-1
3.191004929E0	3.363853455E0	8.451532364E0	7.134721279E-1
3.192213575E0	3.021482468E0	8.616731644E0	8.451532125E-1
3.195063121E0	2.841917515E0	8.844181061E0	8.403648138E-1
3.196646883E0	2.923320293E0	9.045293808E0	7.924807668E-1
3.199147698E0	3.095702887E0	9.191340446E0	7.805097699E-1
3.200489536E0	3.308786631E0	9.267954826E0	7.805097699E-1
3.203205352E0	3.481169224E0	9.323021889E0	7.733271718E-1
3.204935729E0	3.519476414E0	9.390059471E0	7.350199223E-1
3.207262467E0	3.473986626E0	9.449913979E0	6.847416759E-1
3.208449652E0	3.418920040E0	9.481039047E0	6.081272364E-1
3.211320237E0	3.375824451E0	9.497797966E0	5.195417404E-1
3.212893036E0	3.315969467E0	9.490615845E0	4.094084799E-1
3.215388467E0	3.234566450E0	9.476250648E0	2.801215947E-1
3.216599998E0	3.148375273E0	9.435548782E0	1.484405100E-1
3.219445621E0	3.002328873E0	9.356540680E0	2.873042040E-2
3.220750190E0	2.858676910E0	9.263166428E0	-8.619125932E-2
3.223591044E0	2.820369720E0	9.160215378E0	-1.891419291E-1
3.224874152E0	2.837129116E0	9.040505409E0	-2.561795712E-1
3.227683660E0	2.877830505E0	8.918401718E0	-2.896983922E-1
3.229327229E0	2.930502892E0	8.726864815E0	-2.777273953E-1
3.231719813E0	3.014299870E0	8.621520042E0	-2.729389966E-1
3.232932498E0	3.198653460E0	8.559270859E0	-2.633621991E-1
3.235776544E0	3.399766445E0	8.501810074E0	-2.561795712E-1
3.237412421E0	3.667917013E0	8.432378769E0	-2.178723514E-1
3.239845429E0	3.797203779E0	8.386888504E0	-1.843535304E-1
3.241106075E0	3.682282209E0	8.382100105E0	-1.747767180E-1
3.243903044E0	3.493140221E0	8.415618896E0	-1.244984865E-1
3.245673536E0	3.359065056E0	8.458714485E0	-5.267243832E-2
3.247950044E0	3.299209833E0	8.516175270E0	2.154781483E-2
3.249146267E0	3.217807055E0	8.592789650E0	1.005564705E-1
3.252007467E0	3.122039080E0	8.671798706E0	1.723825186E-1
3.253607152E0	3.172317266E0	8.748413086E0	2.298433632E-1
3.256076083E0	3.246537447E0	8.825027466E0	2.825157940E-1
3.257444382E0	3.189076662E0	8.896853447E0	3.160346150E-1
3.260133621E0	3.062183857E0	8.949525833E0	3.471592367E-1
3.261449421E0	2.954444885E0	8.987833023E0	4.165911078E-1
3.264185152E0	2.894589901E0	9.021351814E0	5.386953950E-1
3.265515844E0	2.911349297E0	9.062053680E0	6.536170840E-1
3.268356236E0	3.021482468E0	9.097966194E0	7.278373241E-1
3.269965382E0	3.385401249E0	9.148244858E0	7.972691655E-1
3.272408698E0	3.519476414E0	9.176975250E0	8.307880163E-1
3.273685998E0	3.727771997E0	9.246406555E0	9.097966552E-1
3.276466813E0	3.864241600E0	9.323021889E0	1.000776291E0
3.278046536E0	4.041412354E0	9.423578262E0	1.079784989E0
3.280536044E0	4.077325344E0	9.459490776E0	1.106121182E0
3.281739421E0	4.077325344E0	9.514557838E0	1.151610970E0
3.284594005E0	4.041412354E0	9.521739960E0	1.158793569E0
3.286395036E0	4.005499363E0	9.478644371E0	1.132457376E0
3.288654352E0	3.993528366E0	9.452308655E0	1.120486379E0
3.289863998E0	3.936067581E0	9.404424667E0	1.130063176E0
3.292712275E0	3.785232782E0	9.346963882E0	1.118092179E0
3.294472306E0	3.720589399E0	9.301473618E0	1.091755986E0
3.296797005E0	3.732560396E0	9.255983353E0	1.036689281E0
3.298013921E0	3.782838583E0	9.234436035E0	9.720458984E-1
3.300854159E0	3.845088005E0	9.227252960E0	8.906430602E-1
3.302197921E0	3.907337189E0	9.229647636E0	7.876923680E-1
3.304985352E0	3.998316765E0	9.255983353E0	6.871358752E-1
3.306224229E0	4.036623955E0	9.289502144E0	6.224924326E-1
3.309077659E0	3.981557369E0	9.323021889E0	5.770025849E-1
3.310637459E0	3.885789394E0	9.356540680E0	5.243301988E-1
3.313114198E0	3.787626982E0	9.373299599E0	4.692635238E-1
3.314422344E0	3.667917013E0	9.368511200E0	4.189853072E-1
3.317170967E0	3.591302633E0	9.344569206E0	3.806780577E-1
3.318819652E0	3.610456228E0	9.289502144E0	3.519476354E-1
3.321253582E0	3.655946016E0	9.217676163E0	3.280056417E-1
3.322474652E0	3.684676409E0	9.131484985E0	3.064578176E-1
3.325309890E0	3.691859007E0	9.057265282E0	2.920926213E-1
3.327008998E0	3.641580820E0	8.947132111E0	2.681505978E-1
3.329368890E0	3.600879431E0	8.913613319E0	2.729389966E-1
3.330546267E0	3.481169224E0	8.880094528E0	2.849099934E-1
3.333425736E0	3.399766445E0	8.887276649E0	2.825157940E-1
3.335078229E0	3.392583847E0	8.920795441E0	3.280056417E-1
3.337494390E0	3.375824451E0	8.927978516E0	3.543418646E-1
3.338774498E0	3.306392431E0	8.927978516E0	4.118026793E-1
3.341551928E0	3.222595453E0	8.916007042E0	4.884171486E-1
3.342900305E0	3.148375273E0	8.887276649E0	5.650315881E-1
3.345682382E0	3.110068083E0	8.803479195E0	6.536170840E-1
3.346921767E0	3.145981073E0	8.700529099E0	7.158663273E-1
3.349789351E0	3.181894064E0	8.585607529E0	7.852981687E-1
3.351353498E0	3.193865061E0	8.508993149E0	8.547300100E-1
3.353825044E0	3.227383852E0	8.473079681E0	9.121908545E-1
3.355121344E0	3.284844637E0	8.451532364E0	9.576807022E-1
3.357882121E0	3.337517262E0	8.434772491E0	9.744400978E-1
3.359438767E0	3.402160645E0	8.437167168E0	9.792284966E-1
3.361952005E0	3.466804028E0	8.485051155E0	9.792284966E-1
3.363147921E0	3.438073635E0	8.535328865E0	9.768342972E-1
3.366009044E0	3.256114244E0	8.554482460E0	9.864110947E-1
3.367718229E0	3.040636063E0	8.595184326E0	9.624691010E-1
3.370056236E0	2.973598480E0	8.676587105E0	9.504981041E-1
3.371232767E0	3.064578056E0	8.762778282E0	9.552865028E-1
3.374113736E0	3.236960649E0	8.856152534E0	9.457096457E-1
3.375697882E0	3.418920040E0	8.935160637E0	9.169792533E-1
3.378183005E0	3.512293816E0	8.954314232E0	9.002198577E-1
3.379374575E0	3.476380825E0	8.975862503E0	8.738836050E-1
3.382239659E0	3.390189648E0	9.011775017E0	8.475474119E-1
3.383537190E0	3.368641853E0	9.069235802E0	8.020575643E-1
3.386369582E0	3.440467834E0	9.136273384E0	7.613561153E-1
3.387594229E0	3.490746021E0	9.193734169E0	7.445967197E-1
3.390461005E0	3.442862034E0	9.239224434E0	7.469909191E-1
3.392056652E0	3.174711466E0	9.277531624E0	7.278373241E-1
3.394511659E0	3.110068083E0	9.282320023E0	7.182605267E-1
3.395705498E0	3.105279684E0	9.282320023E0	7.015010715E-1
3.398569851E0	3.184288263E0	9.275136948E0	7.038952708E-1
3.400577690E0	3.148375273E0	9.251194954E0	6.919242740E-1
3.402638620E0	3.095702887E0	9.244012833E0	6.871358752E-1
3.403839152E0	3.035847664E0	9.222464561E0	6.679822803E-1
3.406695505E0	3.198653460E0	9.179368973E0	6.895300746E-1
3.408403267E0	3.323152065E0	9.155426979E0	7.422025204E-1
3.410752543E0	3.308786631E0	9.121908188E0	8.020575643E-1
3.412010459E0	3.275267839E0	9.078812599E0	8.595184088E-1
3.414809543E0	3.356670856E0	9.038111687E0	9.074024558E-1
3.416413767E0	3.481169224E0	9.014169693E0	9.433154464E-1
3.418892043E0	3.574543238E0	9.004592896E0	9.600749016E-1
3.420109498E0	3.576937437E0	8.995016098E0	9.457096457E-1
3.422948390E0	3.593696833E0	8.999804497E0	9.121908545E-1
3.424340190E0	3.739742994E0	9.018958092E0	8.667010069E-1
3.426924075E0	3.926490784E0	9.045293808E0	8.427590132E-1
3.428304075E0	4.055777550E0	9.069235802E0	8.044517636E-1
3.431169043E0	4.151545525E0	9.095572472E0	7.685387731E-1
3.432757459E0	4.225766182E0	9.133879662E0	7.493851185E-1
3.435203966E0	4.283226967E0	9.196128845E0	7.254431248E-1
3.436477844E0	4.307168961E0	9.210494041E0	6.799532771E-1
3.439260659E0	4.319139957E0	9.248801231E0	6.512228847E-1
3.440850805E0	4.288015366E0	9.265560150E0	6.320692301E-1
3.443343389E0	4.266467571E0	9.301473618E0	6.129156351E-1
3.444556036E0	4.225766182E0	9.339780807E0	6.177040339E-1
3.447400774E0	4.173093796E0	9.334992409E0	6.033388376E-1
3.449088652E0	4.034229755E0	9.282320023E0	5.913678408E-1
3.451458659E0	3.981557369E0	9.260771751E0	5.865794420E-1
3.452722882E0	3.881000996E0	9.193734169E0	5.602431893E-1
3.455516543E0	3.799597979E0	9.085995674E0	5.147533417E-1
3.457111190E0	3.744531393E0	8.884882927E0	4.501099288E-1
3.459585543E0	3.742137194E0	8.813055992E0	4.333505034E-1
3.460802959E0	3.751713991E0	8.678980827E0	4.141969085E-1
3.463642620E0	3.790021181E0	8.532935143E0	3.902548850E-1
3.465279036E0	3.799597979E0	8.293514252E0	3.519476354E-1
3.467787582E0	3.809175014E0	8.161833763E0	3.567360640E-1
3.469008152E0	3.914519787E0	8.049305916E0	3.830722570E-1
3.471879736E0	4.084507942E0	7.982268333E0	4.357447028E-1
3.473487728E0	4.252102375E0	8.034940720E0	4.572925270E-1
3.475916159E0	4.405331135E0	8.219294548E0	4.094084799E-1
3.477266267E0	4.503493309E0	8.458714485E0	3.351882398E-1
3.479973851E0	4.517858505E0	8.674192429E0	2.753331959E-1
3.481549844E0	4.465186119E0	8.839392662E0	2.681505978E-1
3.484043274E0	4.381389141E0	8.973467827E0	3.088520169E-1
3.485239459E0	4.283226967E0	9.076418877E0	3.758896589E-1
3.488101351E0	4.209006786E0	9.155426979E0	4.788403511E-1
3.489824498E0	4.201824188E0	9.215282440E0	6.009446383E-1
3.492149351E0	4.268861771E0	9.246406555E0	7.230489254E-1
3.493330459E0	4.355052948E0	9.248801231E0	8.379706144E-1
3.496207043E0	4.400542736E0	9.246406555E0	9.361328483E-1
3.497787536E0	4.400542736E0	9.253589630E0	1.015141487E0
3.500276120E0	4.374206543E0	9.263166428E0	1.058237195E0
3.501470036E0	4.328716755E0	9.272743225E0	1.074996591E0
3.504333620E0	4.254496574E0	9.282320023E0	1.103726983E0
3.506251498E0	4.175487995E0	9.263166428E0	1.156399369E0
3.508329382E0	4.096478939E0	9.191340446E0	1.213860273E0
3.509828459E0	4.015076160E0	9.107542992E0	1.254561663E0
3.512556158E0	3.928884983E0	9.057265282E0	1.283292055E0
3.514150344E0	3.770867586E0	9.102754593E0	1.355118155E0
3.516607158E0	3.730166197E0	9.112331390E0	1.362300754E0
3.517799575E0	3.670311213E0	9.107542992E0	1.345541358E0
3.520664658E0	3.636792421E0	9.078812599E0	1.319205165E0
3.522250344E0	3.627215624E0	9.035717010E0	1.247379065E0
3.524734620E0	3.557783842E0	9.016563416E0	1.192312479E0
3.525935113E0	3.251325846E0	8.997409821E0	1.154005170E0
3.528792505E0	2.971204281E0	8.956708908E0	1.055842996E0
3.530555190E0	3.019088268E0	8.927978516E0	9.816226959E-1
3.532851197E0	3.210624456E0	8.918401718E0	9.672574997E-1
3.534066113E0	3.296815634E0	8.906430244E0	9.888052940E-1
3.536909005E0	3.296815634E0	8.892065048E0	1.019929886E0
3.538889190E0	3.313575268E0	8.877699852E0	1.048660398E0
3.540992889E0	3.335123062E0	8.853757858E0	1.084573388E0
3.542197305E0	3.282450438E0	8.820239067E0	1.125274777E0
3.545050774E0	3.270479441E0	8.798690796E0	1.132457376E0
3.546708075E0	3.337517262E0	8.772355080E0	1.149216771E0
3.549181697E0	3.330334663E0	8.736441612E0	1.173158884E0
3.550410113E0	3.241749048E0	8.724471092E0	1.163581967E0
3.553273889E0	3.227383852E0	8.750806808E0	1.139639974E0
3.554865113E0	3.241749048E0	8.798690796E0	1.127668977E0
3.557310812E0	3.167528868E0	8.841787338E0	1.106121182E0
3.558700151E0	3.112462282E0	8.868123055E0	1.041477680E0
3.561368543E0	3.153163671E0	8.669404030E0	8.379706144E-1
3.563136998E0	3.490746021E0	8.020575523E0	4.788403511E-1
3.565453889E0	3.512293816E0	8.006210327E0	6.033388376E-1
3.566673113E0	3.495534420E0	8.324639320E0	1.077390790E0
3.569511427E0	3.416525841E0	8.597578049E0	1.295263171E0
3.571213651E0	3.119644880E0	8.219294548E0	7.493851185E-1
3.573569351E0	3.078943491E0	8.137891769E0	6.296750307E-1
3.574771805E0	3.105279684E0	8.329427719E0	7.685387731E-1
3.577626889E0	3.052607059E0	8.425195694E0	8.499416113E-1
3.579270728E0	3.009511471E0	8.204929352E0	5.578489900E-1
3.581694966E0	3.148375273E0	8.379706383E0	8.164227605E-1
3.582907575E0	3.167528868E0	8.353369713E0	8.690952063E-1
3.585752350E0	2.796427488E0	8.324639320E0	6.895300746E-1
3.587086575E0	2.576161146E0	8.283937454E0	6.488286853E-1
3.589753921E0	2.559401512E0	8.212111473E0	6.105214357E-1
3.591134344E0	2.614468336E0	8.152256966E0	5.602431893E-1
3.593988735E0	2.647987127E0	8.224082947E0	5.626373887E-1
3.595605344E0	2.717418909E0	8.315062523E0	5.793967843E-1
3.598025966E0	2.770091295E0	8.331821442E0	5.099649429E-1
3.599230998E0	2.930502892E0	8.343792915E0	4.620809257E-1
3.602082620E0	3.093308687E0	8.350975990E0	4.501099288E-1
3.603686305E0	3.217807055E0	8.394071579E0	4.788403511E-1
3.606150158E0	3.330334663E0	8.429984093E0	5.075707436E-1
3.607375767E0	3.469198227E0	8.458714485E0	5.123591423E-1
3.610206273E0	3.725377798E0	8.499416351E0	5.482721925E-1
3.611926805E0	4.129997730E0	8.532935143E0	5.817909837E-1
3.614254389E0	4.280832767E0	8.588001251E0	6.129156351E-1
3.615449382E0	4.618414879E0	8.729259491E0	6.799532771E-1
3.618311927E0	4.845864296E0	8.798690796E0	6.440402865E-1
3.619963575E0	5.006275654E0	8.810662270E0	6.153098345E-1
3.622380120E0	5.238513470E0	8.863334656E0	6.320692301E-1
3.623694228E0	5.458779812E0	8.947132111E0	6.584054828E-1
3.626436889E0	5.602431774E0	9.026140213E0	6.607996821E-1
3.627751921E0	5.688623428E0	9.176975250E0	7.086837292E-1
3.630567543E0	5.712565422E0	9.282320023E0	7.613561153E-1
3.631792267E0	5.726930618E0	9.330204010E0	7.493851185E-1
3.634659081E0	5.702988625E0	9.414001465E0	7.637503147E-1
3.636322998E0	5.714959621E0	9.469067574E0	7.637503147E-1
3.638710812E0	5.717353821E0	9.493009567E0	7.661445141E-1
3.639961844E0	5.628767967E0	9.478644371E0	7.565677166E-1
3.642767312E0	5.456385612E0	9.414001465E0	7.182605267E-1
3.644349459E0	5.341464043E0	9.339780807E0	6.823474765E-1
3.646835004E0	5.396530628E0	9.375694275E0	6.584054828E-1
3.648024767E0	5.322310448E0	9.366117477E0	5.363011956E-1
3.650891312E0	5.173870087E0	9.303867340E0	4.501099288E-1
3.652583074E0	5.109226227E0	9.210494041E0	4.836287498E-1
3.654941196E0	5.102043629E0	9.095572472E0	5.315127969E-1
3.656121459E0	5.051765442E0	9.014169693E0	5.123591423E-1
3.658996696E0	4.994304657E0	8.908824921E0	4.740519226E-1
3.660586651E0	5.013458252E0	8.786720276E0	4.548983276E-1
3.663078196E0	5.116408825E0	8.676587105E0	4.189853072E-1
3.664369113E0	5.197812080E0	8.595184326E0	4.022258818E-1
3.667134773E0	5.204994678E0	8.513781548E0	3.974374831E-1
3.668441151E0	5.181052685E0	8.418013573E0	3.687070608E-1
3.671092267E0	5.200206280E0	8.312667847E0	3.184288144E-1
3.672604574E0	5.279214859E0	8.200140953E0	2.657563984E-1
3.675354235E0	5.331887245E0	8.109161377E0	2.130839527E-1
3.677023459E0	5.216965675E0	7.965508938E0	1.795651317E-1
3.679388966E0	5.130774021E0	7.943961143E0	1.891419291E-1
3.680573728E0	4.860229492E0	8.001421928E0	1.867477298E-1
3.683445465E0	4.477157116E0	8.010998726E0	6.464344263E-2
3.685045651E0	4.146757126E0	7.963114738E0	1.436521020E-2
3.687527235E0	4.086902142E0	7.948749542E0	1.197100803E-2
3.688703651E0	3.983951569E0	7.931990147E0	7.182605099E-3
3.691583927E0	3.948038578E0	7.931990147E0	1.915361360E-2
3.693290113E0	4.046200752E0	7.910442352E0	1.436521020E-2
3.695641235E0	4.094084740E0	7.905653954E0	1.675941236E-2
3.696856574E0	4.216189384E0	7.939172745E0	2.154781483E-2
3.699698427E0	4.405331135E0	8.044517517E0	-9.576806799E-3
3.701246574E0	4.388571739E0	8.097189903E0	3.112462163E-2
3.703766081E0	4.335899353E0	8.159439087E0	1.221042871E-1
3.704966805E0	4.424484730E0	8.324639320E0	1.699883193E-1
3.707822888E0	4.548983097E0	8.540117264E0	2.442085743E-1
3.709152074E0	4.683058739E0	8.743624687E0	3.663128614E-1
3.711967850E0	4.922478676E0	8.961497307E0	4.501099288E-1
3.713243344E0	5.102043629E0	9.176975250E0	5.195417404E-1
3.716058888E0	5.319916248E0	9.382876396E0	6.033388376E-1
3.717732267E0	5.456385612E0	9.591172218E0	7.038952708E-1
3.720094388E0	5.446808815E0	9.761159897E0	8.092401624E-1
3.721429613E0	5.523423195E0	9.931148529E0	9.121908545E-1
3.724150273E0	5.659893036E0	1.014183807E1	9.959878922E-1
3.725694805E0	5.626373768E0	1.029027843E1	1.101332784E0
3.728219311E0	5.640739441E0	1.036928749E1	1.211466074E0
3.729413382E0	5.884947777E0	1.049378586E1	1.266532660E0
3.732276158E0	5.801150799E0	1.058716011E1	1.331176162E0
3.733999382E0	4.927267075E0	1.051772785E1	1.491587639E0
3.736308773E0	4.651933670E0	1.046505547E1	1.517923832E0
3.737560382E0	4.345476151E0	1.037168217E1	1.522712231E0
3.740365927E0	4.273650169E0	1.029027843E1	1.498770237E0
3.741930305E0	4.362235546E0	1.022563553E1	1.381454349E0
3.744401619E0	4.395754337E0	1.021845245E1	1.331176162E0
3.745575882E0	4.513070107E0	1.023521233E1	1.225831270E0
3.748458081E0	4.991910458E0	1.040759468E1	9.696516991E-1
3.749736767E0	5.549759388E0	1.073320580E1	6.224924326E-1
3.752542267E0	5.983109951E0	1.115219116E1	2.657563984E-1
3.753936844E0	6.212953568E0	1.161666679E1	-3.830722719E-2
3.756680234E0	6.241683960E0	1.231577396E1	-3.878606856E-1
3.758246959E0	6.081272125E0	1.274194145E1	-5.913678408E-1
3.760730850E0	5.791574001E0	1.307473564E1	-7.374141216E-1
3.761873805E0	5.324704647E0	1.334528065E1	-8.068459630E-1
3.764788465E0	4.927267075E0	1.362061310E1	-8.140285611E-1
3.766338805E0	4.343081951E0	1.371638107E1	-8.403648138E-1
3.768851613E0	3.351882458E0	1.355357552E1	-8.834604025E-1
3.770073767E0	2.420537949E0	1.326387787E1	-8.499416113E-1
3.772914427E0	1.786074519E0	1.293826580E1	-7.398083210E-1
3.774556613E0	1.371877551E0	1.256716442E1	-5.913678408E-1
3.776990542E0	1.165976286E0	1.212663174E1	-4.237737060E-1
3.778174421E0	1.235408068E0	1.164300251E1	-2.178723514E-1
3.781047273E0	1.520318031E0	1.112824917E1	4.309562966E-2
3.782588728E0	1.941697598E0	1.059673691E1	3.734954596E-1
3.785091421E0	2.430114746E0	1.006522369E1	7.374141216E-1
3.786339805E0	2.892195702E0	9.526528358E0	1.134851575E0
3.789155657E0	3.272873640E0	9.016563416E0	1.549048543E0
3.790418728E0	3.952826977E0	8.607154846E0	1.807622313E0
3.793209844E0	4.659116745E0	8.255207062E0	2.001552582E0
3.794462228E0	5.200206280E0	8.092401505E0	2.193088770E0
3.797377888E0	5.544970989E0	8.051700592E0	2.415749550E0
3.798918767E0	6.023811340E0	7.714118004E0	2.858676910E0
3.801403113E0	6.088454723E0	7.608773232E0	2.983175278E0
3.802546190E0	5.793968201E0	7.651868820E0	3.071760893E0
3.805470542E0	4.999093056E0	7.915230751E0	3.086126089E0
3.806998536E0	3.622427225E0	8.295908928E0	3.155557871E0
3.809530151E0	3.301604033E0	8.310274124E0	3.172317266E0
3.810688651E0	2.892195702E0	8.233659744E0	3.258508444E0
3.813610542E0	2.667140722E0	8.173804283E0	3.416525841E0
3.815240651E0	2.379836559E0	8.329427719E0	3.543418407E0
3.817664882E0	2.114080191E0	8.446743965E0	3.445256233E0
3.818835228E0	1.960851192E0	8.339004517E0	3.315969467E0
3.821748734E0	1.886630893E0	8.188169479E0	3.193865061E0
3.823268997E0	1.879448295E0	8.101978302E0	3.064578056E0
3.825817965E0	1.910573006E0	8.018181801E0	2.920926094E0
3.826968497E0	1.924938202E0	7.869740963E0	2.774879694E0
3.829875503E0	1.879448295E0	7.637503624E0	2.636016130E0
3.831195267E0	1.884236693E0	7.273584843E0	2.489969730E0
3.833863459E0	1.996764183E0	6.787561893E0	2.319981337E0
3.835227344E0	2.248155355E0	6.284779549E0	2.152387381E0
3.838114426E0	2.621650934E0	5.813121796E0	1.970427990E0
3.839639228E0	3.062183857E0	5.327098846E0	1.802833915E0
3.842130113E0	3.495534420E0	4.843470097E0	1.649604917E0
3.843297536E0	3.861847401E0	4.400542736E0	1.493981838E0
3.846209311E0	4.115632534E0	3.981557369E0	1.343147159E0
3.847729228E0	4.347870350E0	3.598485231E0	1.175553083E0
3.850278503E0	4.671087742E0	3.303998232E0	9.864110947E-1
3.851433497E0	4.905719280E0	3.117250681E0	8.283938169E-1
3.854336234E0	4.893748283E0	3.033453465E0	7.685387731E-1
3.856009113E0	3.897760391E0	2.856282711E0	1.149216771E0
3.858358497E0	3.205836058E0	2.703053713E0	1.470039845E0
3.859521690E0	1.594538331E0	2.410961151E0	2.425326347E0
3.862425772E0	4.764461517E-1	2.432508945E0	3.622427225E0
3.863948459E0	4.740519226E-1	2.140416384E0	4.024652958E0
3.866480113E0	8.068459630E-1	1.821987510E0	3.596091032E0
3.867646228E0	1.747767210E0	1.015141487E0	2.181117773E0
3.870551772E0	2.865859509E0	3.854664862E-1	4.788403511E-1
3.871825113E0	4.359841347E0	1.556231081E-1	-1.465251446E0
3.874631651E0	4.505887508E0	4.405331016E-1	-2.276885748E0
3.875874651E0	4.795586109E0	1.393425345E0	-2.322375536E0
3.878774542E0	6.394912720E0	3.124433279E0	-1.948880196E0
3.880317882E0	8.717288017E0	5.133168221E0	-2.195482969E0
3.882821767E0	1.075235939E1	6.950367451E0	-3.914519787E0
3.884009190E0	1.248097324E1	8.568847656E0	-7.141903877E0
3.886882003E0	1.364216137E1	1.008198357E1	-1.036449909E1
3.888411997E0	1.380257320E1	1.140118885E1	-1.195903778E1
3.890944190E0	1.302924538E1	1.242830086E1	-1.129584408E1
3.892106959E0	1.151850414E1	1.327584839E1	-8.805873871E0
3.895009542E0	9.591172218E0	1.405156994E1	-5.578489780E0
3.896651074E0	7.575253963E0	1.468124485E1	-2.494758129E0
3.899080997E0	5.851428986E0	1.510262394E1	1.556231081E-1
3.900294574E0	4.671087742E0	1.534683323E1	2.303221941E0
3.903143465E0	3.924096584E0	1.544978333E1	3.919308186E0
3.904973805E0	3.536235809E0	1.548090839E1	5.049371243E0
3.907226734E0	3.557783842E0	1.550245571E1	5.839457989E0
3.908378574E0	3.895366192E0	1.548330212E1	6.339846134E0
3.911283772E0	4.400542736E0	1.539471722E1	6.643909931E0
3.912614113E0	5.001487255E0	1.525106525E1	6.777985096E0
3.915189728E0	5.621585369E0	1.504037476E1	6.787561893E0
3.916643420E0	6.212953568E0	1.478658962E1	6.698976517E0
3.919504926E0	6.658275127E0	1.448252583E1	6.476315498E0
3.921118036E0	6.658275127E0	1.380736160E1	5.870582581E0
3.923540311E0	6.500257492E0	1.353921032E1	5.609614372E0
3.924712920E0	6.078877926E0	1.297417927E1	5.058948040E0
3.927597003E0	5.633556366E0	1.239717674E1	4.537012100E0
3.929244036E0	5.125985622E0	1.159511852E1	3.869029999E0
3.931679618E0	4.843470097E0	1.113064384E1	3.442862034E0
3.932851459E0	4.539406300E0	1.073320580E1	3.033453465E0
3.935736541E0	4.367023945E0	1.037407589E1	2.700659513E0
3.937388613E0	4.297592163E0	1.004367638E1	2.454056740E0
3.939814349E0	4.252102375E0	9.751583099E0	2.296039343E0
3.940991228E0	4.237737179E0	9.493009567E0	2.200271368E0
3.943871926E0	4.271255970E0	9.258378029E0	2.161964178E0
3.945579920E0	4.355052948E0	9.062053680E0	2.161964178E0
3.947908888E0	4.441244125E0	8.887276649E0	2.169146776E0
3.949121574E0	4.537012100E0	8.717288017E0	2.219424963E0
3.951966964E0	4.630385876E0	8.571242332E0	2.312798738E0
3.953274074E0	4.726154327E0	8.473079681E0	2.396595955E0
3.956112118E0	4.790797710E0	8.401253700E0	2.456450939E0
3.957314190E0	4.762067318E0	8.334216118E0	2.784456491E0
3.960204772E0	4.625597477E0	8.267178535E0	3.612850428E0
3.961759459E0	4.405331135E0	8.219294548E0	4.805162907E0
3.964241426E0	4.170699596E0	8.190564156E0	5.913678169E0
3.965403497E0	3.943250179E0	8.104372978E0	6.665457726E0
3.968298926E0	3.696647406E0	7.958326340E0	6.720524311E0
3.969845728E0	2.501940727E0	7.699752808E0	5.310339451E0
3.972367157E0	1.874659896E0	7.589619160E0	4.687847137E0
3.973529805E0	8.379706144E-1	7.431602001E0	3.481169224E0
3.976424426E0	5.027823448E-1	7.412448406E0	2.377442360E0
3.978142459E0	8.068459630E-1	7.388506413E0	9.696516991E-1
3.980455118E0	9.457096457E-1	7.369352818E0	5.506663918E-1
3.981641613E0	1.345541358E0	7.323863029E0	-1.747767180E-1
3.984512464E0	1.944091797E0	7.247248650E0	-2.394201756E-1
3.986071613E0	2.729389906E0	7.072471619E0	4.644751251E-1
3.988581887E0	2.892195702E0	7.017405033E0	6.799532771E-1
3.989815074E0	3.031059265E0	6.943184853E0	9.457096457E-1
3.992639695E0	3.045424461E0	6.845022678E0	9.265560508E-1
3.993939767E0	3.066972494E0	6.828263283E0	7.182605267E-1
3.996589997E0	3.102885485E0	6.871358871E0	4.932055473E-1
3.997999882E0	3.134010077E0	6.902483463E0	3.184288144E-1
4.000862503E0	3.201047659E0	6.969521046E0	1.508347094E-1
4.002415728E0	3.275267839E0	7.072471619E0	1.675941236E-2
4.004913041E0	3.318363667E0	7.189787865E0	-9.337386489E-2
4.006076843E0	3.371036053E0	7.290344238E0	-1.388636976E-1
4.008970887E0	3.488351822E0	7.410054207E0	-1.101332754E-1
4.010518767E0	3.620033026E0	7.594407558E0	-6.703764945E-2
4.013040118E0	3.706224203E0	7.797914982E0	2.394201607E-2
4.014209420E0	3.849876404E0	7.941566944E0	2.442085743E-1
4.017096657E0	3.995922565E0	8.046912193E0	5.578489900E-1
4.018758959E0	4.089296341E0	8.152256966E0	9.576807022E-1
4.021179233E0	4.122815132E0	8.293514252E0	1.393425345E0
4.022348228E0	4.122815132E0	8.439560890E0	1.824381709E0
4.025235464E0	4.129997730E0	8.523358345E0	2.217030764E0
4.026800690E0	4.177882195E0	8.588001251E0	2.518700123E0
4.029318349E0	4.192247391E0	8.678980827E0	2.712630510E0
4.030620267E0	4.120420933E0	8.753201485E0	2.832340717E0
4.033374810E0	4.082113743E0	8.805873871E0	2.861071110E0
4.034809536E0	4.039018154E0	8.846575737E0	2.841917515E0
4.037503656E0	3.926490784E0	8.860940933E0	2.822763920E0
4.038778536E0	3.799597979E0	8.851364136E0	2.794033289E0
4.041594887E0	3.768473387E0	8.880094528E0	2.695871115E0
4.043324190E0	3.763684988E0	9.004592896E0	2.473210335E0
4.045630003E0	3.780444384E0	9.042900085E0	2.365471363E0
4.046861267E0	3.828328609E0	9.021351814E0	2.276885748E0
4.049685849E0	3.902548790E0	8.983044624E0	2.128445387E0
4.051307459E0	4.019864559E0	8.961497307E0	1.917755604E0
4.053768272E0	4.137180328E0	8.954314232E0	1.704671621E0
4.054971920E0	4.201824188E0	8.959102631E0	1.529894829E0
4.057825310E0	4.256890774E0	8.987833023E0	1.316810966E0
4.059509882E0	4.335899353E0	9.033323288E0	1.019929886E0
4.061874695E0	4.419696331E0	9.081207275E0	6.584054828E-1
4.063077574E0	4.493916512E0	9.133879662E0	2.825157940E-1
4.065931272E0	4.563348293E0	9.193734169E0	-7.422025502E-2
4.067722228E0	4.620809078E0	9.263166428E0	-3.902548850E-1
4.070000810E0	4.690241337E0	9.337387085E0	-6.560112834E-1
4.071557382E0	4.776432514E0	9.404424667E0	-8.714894056E-1
4.074058118E0	4.881777287E0	9.452308655E0	-1.024718285E0
4.075407690E0	4.994304657E0	9.490615845E0	-1.122880578E0
4.078021997E0	5.123591423E0	9.521739960E0	-1.182735682E0
4.079428459E0	5.281609058E0	9.548076630E0	-1.209071875E0
4.082293618E0	5.451597214E0	9.581595421E0	-1.192312479E0
4.083873036E0	5.753266811E0	9.583989143E0	-1.089361787E0
4.086328502E0	5.858611584E0	9.574412346E0	-1.051054597E0
4.087548074E0	6.064512730E0	9.550470352E0	-1.003170490E0
4.090384733E0	6.212953568E0	9.543288231E0	-1.000776291E0
4.092057036E0	6.308721542E0	9.627084732E0	-9.720458984E-1
4.094452541E0	6.291962147E0	9.674968719E0	-9.217676520E-1
4.095699613E0	6.212953568E0	9.785101891E0	-7.757213712E-1
4.098510310E0	6.083666325E0	9.885659218E0	-6.033388376E-1
4.100280113E0	5.805939198E0	1.001255131E1	-3.447650373E-1
4.102546695E0	5.722142220E0	1.004128170E1	-2.513911724E-1
4.103781074E0	5.585672379E0	1.004846478E1	-3.830722719E-2
4.106604310E0	5.370194435E0	9.943120003E0	2.489969730E-1
4.108203382E0	4.647145271E0	9.603142738E0	7.158663273E-1
4.110641425E0	4.110844135E0	9.375694275E0	9.600749016E-1
4.111814382E0	3.620033026E0	9.143456459E0	1.168370485E0
4.114698887E0	3.131615877E0	8.839392662E0	1.405396342E0
4.116176266E0	2.889801502E0	8.494627953E0	1.544260144E0
4.118830579E0	3.287238836E0	8.305485725E0	1.347935557E0
4.120209728E0	3.962403774E0	8.315062523E0	1.015141487E0
4.122922618E0	4.462791920E0	8.408436775E0	7.517793179E-1
4.124498459E0	4.656722069E0	8.542511940E0	5.602431893E-1
4.126972887E0	4.532223701E0	8.626308441E0	5.099649429E-1
4.128199459E0	4.189853191E0	8.585607529E0	5.985504389E-1
4.131030579E0	3.672705412E0	8.425195694E0	7.709329724E-1
4.132642613E0	3.201047659E0	8.221688271E0	9.145850539E-1
4.135099695E0	2.987963676E0	8.054094315E0	9.385270476E-1
4.136251920E0	2.947262287E0	7.881711960E0	9.145850539E-1
4.139158195E0	3.023876667E0	7.702147007E0	8.834604025E-1
4.140917805E0	3.119644880E0	7.472303391E0	8.643068075E-1
4.143242233E0	3.131615877E0	7.422025204E0	8.690952063E-1
4.144512805E0	3.196259260E0	7.390900612E0	8.547300100E-1
4.147299964E0	3.339911461E0	7.469909191E0	7.852981687E-1
4.148935113E0	3.632004023E0	7.721300602E0	6.224924326E-1
4.151383271E0	3.718195200E0	7.802703381E0	5.793967843E-1
4.152607574E0	3.878606796E0	7.920019150E0	5.147533417E-1
4.155441118E0	4.012681961E0	8.001421928E0	4.525041282E-1
4.156770613E0	4.070142746E0	8.056488991E0	3.974374831E-1
4.159535613E0	3.967192173E0	8.054094315E0	3.782838583E-1
4.160993843E0	3.792415380E0	8.030152321E0	3.830722570E-1
4.163663464E0	3.617638826E0	8.046912193E0	2.561795712E-1
4.165382651E0	3.564966440E0	8.078036308E0	1.197100878E-1
4.167699310E0	3.586514235E0	8.111555099E0	-2.394201607E-2
4.168961305E0	3.667917013E0	8.171410561E0	-1.843535304E-1
4.171756771E0	3.761290789E0	8.240841866E0	-3.375824392E-1
4.173382228E0	3.825934410E0	8.346187592E0	-4.979939461E-1
4.175840194E0	3.928884983E0	8.463502884E0	-6.631938815E-1
4.177058036E0	4.082113743E0	8.566453934E0	-8.044517636E-1
4.179898233E0	4.228160381E0	8.659827232E0	-8.882488012E-1
4.181607728E0	4.314351559E0	8.746018410E0	-9.193734527E-1
4.183948887E0	4.381389141E0	8.805873871E0	-9.361328483E-1
4.185157536E0	4.393360138E0	8.860940933E0	-9.648633003E-1
4.188006887E0	4.314351559E0	8.911218643E0	-9.816226959E-1
4.189660689E0	4.302380562E0	8.932766914E0	-1.005564690E0
4.192077348E0	4.362235546E0	8.937555313E0	-1.027112484E0
4.193635574E0	4.393360138E0	8.937555313E0	-1.036689281E0
4.196136117E0	4.398148537E0	8.944737434E0	-1.036689281E0
4.197646497E0	4.417302132E0	8.937555313E0	-1.077390790E0
4.200282425E0	4.458003521E0	8.923190117E0	-1.156399369E0
4.201554613E0	4.508281708E0	8.889671326E0	-1.261744261E0
4.204375117E0	4.522646904E0	8.851364136E0	-1.345541358E0
4.206065189E0	4.546588898E0	8.786720276E0	-1.424550056E0
4.208410771E0	4.556165695E0	8.765172005E0	-1.438915253E0
4.209601113E0	4.580107689E0	8.726864815E0	-1.470039845E0
4.212467694E0	4.635174274E0	8.683769226E0	-1.525106430E0
4.214068651E0	4.647145271E0	8.592789650E0	-1.596932530E0
4.216535463E0	4.630385876E0	8.552088737E0	-1.601720929E0
4.217713420E0	4.570530891E0	8.470685959E0	-1.582567334E0
4.220590925E0	4.479551315E0	8.391676903E0	-1.539471745E0
4.222381574E0	4.326322556E0	8.255207062E0	-1.472434044E0
4.224629348E0	4.213795185E0	8.161833763E0	-1.436521053E0
4.225875228E0	4.106055737E0	8.070854187E0	-1.393425345E0
4.228685002E0	4.043806553E0	7.984662533E0	-1.367089152E0
4.230413189E0	4.031835556E0	7.912836552E0	-1.359906554E0
4.232719348E0	4.010287762E0	7.848193169E0	-1.352723956E0
4.233993959E0	3.976768970E0	7.773972988E0	-1.357512355E0
4.236776002E0	3.979163170E0	7.718906403E0	-1.362300754E0
4.238059574E0	4.010287762E0	7.687781811E0	-1.364694953E0
4.240725959E0	4.048594952E0	7.668628216E0	-1.374271750E0
4.242092728E0	4.096478939E0	7.642292023E0	-1.386242747E0
4.244997386E0	4.129997730E0	7.625532627E0	-1.393425345E0
4.246579536E0	4.156333923E0	7.620744228E0	-1.405396342E0
4.249047348E0	4.168305397E0	7.642292023E0	-1.426944256E0
4.250243459E0	4.161122322E0	7.685387611E0	-1.446097851E0
4.253104809E0	4.156333923E0	7.745242596E0	-1.467645645E0
4.254653843E0	4.141968727E0	7.812280178E0	-1.486799240E0
4.257173233E0	4.129997730E0	7.881711960E0	-1.503558636E0
4.258341189E0	4.115632534E0	7.953537941E0	-1.517923832E0
4.261228733E0	4.091690540E0	8.025363922E0	-1.537077546E0
4.262981805E0	4.055777550E0	8.130708694E0	-1.549048543E0
4.265285732E0	4.041412354E0	8.166622162E0	-1.556231141E0
4.266458266E0	4.010287762E0	8.231265068E0	-1.580173135E0
4.269342194E0	3.993528366E0	8.291120529E0	-1.608903527E0
4.270916651E0	4.019864559E0	8.396465302E0	-1.647210717E0
4.273423425E0	4.041412354E0	8.432378769E0	-1.656787634E0
4.274600574E0	4.072536945E0	8.494627953E0	-1.671152830E0
4.277479963E0	4.043806553E0	8.571242332E0	-1.678335428E0
4.278867689E0	3.974374771E0	8.652645111E0	-1.685518026E0
