"Time (s)"	"Gyroscope x (rad/s)"	"Gyroscope y (rad/s)"	"Gyroscope z (rad/s)"
1.462997900E-2	2.801645398E-1	2.210423797E-1	-5.709817410E-1
1.600176900E-2	2.801645398E-1	2.210423797E-1	-5.709817410E-1
1.872144100E-2	2.801645398E-1	2.210423797E-1	-5.709817410E-1
1.998473100E-2	2.801645398E-1	2.210423797E-1	-5.709817410E-1
2.281359500E-2	2.801645398E-1	2.210423797E-1	-5.709817410E-1
2.406700000E-2	2.801645398E-1	2.210423797E-1	-5.709817410E-1
2.690563300E-2	2.801645398E-1	2.210423797E-1	-5.709817410E-1
2.861238500E-2	2.801645398E-1	2.210423797E-1	-5.709817410E-1
3.096078700E-2	2.801645398E-1	2.210423797E-1	-5.709817410E-1
3.215600000E-2	2.801645398E-1	2.210423797E-1	-5.709817410E-1
3.501801800E-2	2.801645398E-1	2.210423797E-1	-5.709817410E-1
3.662419200E-2	2.801645398E-1	2.210423797E-1	-5.709817410E-1
3.908732600E-2	2.801645398E-1	2.210423797E-1	-5.709817410E-1
4.029492300E-2	2.801645398E-1	2.210423797E-1	-5.709817410E-1
4.314463300E-2	2.801645398E-1	2.210423797E-1	-5.709817410E-1
4.448015400E-2	2.801645398E-1	2.210423797E-1	-5.709817410E-1
4.728986400E-2	4.436826408E-1	1.171790883E-1	-4.122573435E-1
4.853146200E-2	4.266384244E-1	1.486043930E-1	-3.840278387E-1
5.138140200E-2	4.021373391E-1	1.832254827E-1	-3.616572917E-1
5.296330800E-2	3.781688809E-1	2.167813182E-1	-3.382214606E-1
5.541840200E-2	3.510046303E-1	2.514024079E-1	-3.179814517E-1
5.662011600E-2	3.195793331E-1	2.812298238E-1	-3.020024598E-1
5.947501800E-2	2.860234976E-1	3.062635362E-1	-2.854908705E-1
6.113969200E-2	2.535329461E-1	3.201119602E-1	-2.689792812E-1
6.354378700E-2	2.194444835E-1	3.270362020E-1	-2.567287385E-1
6.475415400E-2	1.880191714E-1	3.185140789E-1	-2.647182047E-1
6.760036400E-2	1.496696621E-1	3.094593287E-1	-3.014698327E-1
6.934423100E-2	9.534116834E-2	3.051982522E-1	-3.408846259E-1
7.163790200E-2	7.723167539E-2	3.073287904E-1	-3.536677957E-1
7.285950000E-2	3.355583176E-2	3.174487948E-1	-3.669835925E-1
7.569459500E-2	-5.858954508E-3	3.217098713E-1	-3.765709996E-1
7.729646200E-2	-7.030745596E-2	3.051982522E-1	-3.888215125E-1
7.976282500E-2	-9.214537591E-2	2.924150825E-1	-3.898867965E-1
8.099450000E-2	-1.384843737E-1	2.466087192E-1	-4.016047120E-1
8.381955600E-2	-1.864212751E-1	1.816275865E-1	-4.133225977E-1
8.523465400E-2	-2.583266199E-1	6.551376730E-2	-4.356931746E-1
8.787511500E-2	-3.089267015E-1	-1.278317347E-2	-4.495415986E-1
8.932857700E-2	-3.584614992E-1	-9.161274135E-2	-4.756405652E-1
9.204109500E-2	-3.994741738E-1	-1.683117896E-1	-5.395564437E-1
9.368703900E-2	-4.330300093E-1	-2.290318608E-1	-6.119944453E-1
9.609201800E-2	-4.623247683E-1	-2.759034932E-1	-6.828345060E-1
9.735319200E-2	-4.788363874E-1	-3.169161677E-1	-7.515440583E-1
1.001490560E-1	-4.942827225E-1	-3.552657068E-1	-8.261125684E-1
1.017728460E-1	-5.038700700E-1	-3.936152160E-1	-8.969526887E-1
1.042176710E-1	-5.123922229E-1	-4.351605177E-1	-9.715211987E-1
1.054496920E-1	-5.145227313E-1	-4.777711034E-1	-1.042893887E0
1.082746710E-1	-5.155879855E-1	-5.155879855E-1	-1.098820329E0
1.099821920E-1	-5.145227313E-1	-5.534048676E-1	-1.157409787E0
1.123505560E-1	-5.171858668E-1	-5.949501991E-1	-1.202683568E0
1.135819230E-1	-5.161206126E-1	-6.460828781E-1	-1.246892095E0
1.164075940E-1	-5.171858668E-1	-6.966829300E-1	-1.284708977E0
1.180876540E-1	-5.166532397E-1	-7.552725077E-1	-1.313471079E0
1.204915940E-1	-5.134574771E-1	-8.170578480E-1	-1.337972164E0
1.217145390E-1	-5.123922229E-1	-8.820389509E-1	-1.360875368E0
1.245487480E-1	-5.102616549E-1	-9.486179948E-1	-1.375256419E0
1.258603460E-1	-5.097290277E-1	-1.025849700E0	-1.388572216E0
1.286785560E-1	-5.107942820E-1	-1.114799261E0	-1.407747030E0
1.299268460E-1	-5.139901042E-1	-1.217597246E0	-1.429584861E0
1.327709410E-1	-5.209143162E-1	-1.353951097E0	-1.495098710E0
1.343987310E-1	-5.177185535E-1	-1.530784965E0	-1.604288220E0
1.368072870E-1	-5.145227313E-1	-1.568601966E0	-1.639441967E0
1.380991540E-1	-4.942827225E-1	-1.634648323E0	-1.689509392E0
1.408651330E-1	-4.830974340E-1	-1.694835782E0	-1.729456902E0
1.425011540E-1	-4.538026452E-1	-1.817873836E0	-1.792307496E0
1.449486330E-1	-4.426173866E-1	-1.926530719E0	-1.840244293E0
1.462140000E-1	-4.127899706E-1	-2.005892992E0	-1.886050701E0
1.490059790E-1	-3.808320463E-1	-2.075667858E0	-1.928661346E0
1.507586540E-1	-3.456783295E-1	-2.133724689E0	-1.956358194E0
1.530855560E-1	-3.041329980E-1	-2.172074318E0	-1.982989788E0
1.543907310E-1	-2.604571581E-1	-2.199238539E0	-2.008556128E0
1.571429020E-1	-2.141181529E-1	-2.221609116E0	-2.034122467E0
1.587864620E-1	-1.661812514E-1	-2.241316319E0	-2.059156179E0
1.612132100E-1	-1.171790883E-1	-2.258360624E0	-2.093244553E0
1.624405770E-1	-7.084008306E-2	-2.277535439E0	-2.123604774E0
1.652701710E-1	-2.876213938E-2	-2.299373388E0	-2.160356283E0
1.666545000E-1	4.261057824E-3	-2.319080830E0	-2.201369047E0
1.693455770E-1	3.249056637E-2	-2.332396507E0	-2.242381573E0
1.706888850E-1	5.379585549E-2	-2.338788033E0	-2.288187981E0
1.735073630E-1	6.551376730E-2	-2.338255405E0	-2.332396507E0
1.751738080E-1	7.350324839E-2	-2.326537609E0	-2.374474525E0
1.775445560E-1	7.190535218E-2	-2.305232286E0	-2.414421797E0
1.788245000E-1	6.338323653E-2	-2.276470184E0	-2.450640917E0
1.816025560E-1	4.900216311E-2	-2.240783691E0	-2.484729290E0
1.832704620E-1	1.438106969E-2	-2.176867962E0	-2.533731461E0
1.856724790E-1	2.663161140E-3	-2.154497385E0	-2.548645258E0
1.869485770E-1	-3.515372798E-2	-2.128398418E0	-2.588592529E0
1.897305560E-1	-9.001484513E-2	-2.123604774E0	-2.638659954E0
1.914859230E-1	-1.581917703E-1	-2.051699400E0	-2.703641176E0
1.937613250E-1	-1.842907518E-1	-2.013882399E0	-2.721750736E0
1.949955380E-1	-2.306297570E-1	-1.925465465E0	-2.753175974E0
1.978196710E-1	-2.769687474E-1	-1.829591751E0	-2.782470703E0
1.994464620E-1	-3.531351686E-1	-1.691639900E0	-2.816026688E0
2.018883630E-1	-4.079962969E-1	-1.599494576E0	-2.832005501E0
2.030754620E-1	-4.639226794E-1	-1.495631337E0	-2.847984552E0
2.059466710E-1	-5.182511806E-1	-1.384311199E0	-2.864496231E0
2.073120000E-1	-5.709817410E-1	-1.255946755E0	-2.868757248E0
2.100775170E-1	-6.135923266E-1	-1.089765549E0	-2.871953011E0
2.114278850E-1	-6.604639888E-1	-9.267801046E-1	-2.874616146E0
2.141703250E-1	-7.068029642E-1	-7.691209316E-1	-2.873550892E0
2.157891920E-1	-7.472830415E-1	-6.205165386E-1	-2.873018265E0
2.182217860E-1	-7.888283134E-1	-4.814995229E-1	-2.870887756E0
2.194471150E-1	-8.303736448E-1	-3.520699143E-1	-2.863430977E0
2.222789790E-1	-8.660600185E-1	-2.370213419E-1	-2.849582434E0
2.239518080E-1	-9.065400362E-1	-1.390170157E-1	-2.830940247E0
2.263482860E-1	-9.470201135E-1	-6.817692518E-2	-2.805906534E0
2.276463460E-1	-9.944243431E-1	-2.077265643E-2	-2.772883415E0
2.304057090E-1	-1.038100243E0	9.054748341E-3	-2.734533787E0
2.321276540E-1	-1.112668753E0	-1.438106969E-2	-2.663693666E0
2.344888250E-1	-1.139300346E0	-5.166532472E-2	-2.638659954E0
2.357269620E-1	-1.190433025E0	-8.309062570E-2	-2.583266258E0
2.385459020E-1	-1.252750993E0	-1.459412277E-1	-2.518817902E0
2.401716540E-1	-1.338504791E0	-2.295644879E-1	-2.410693407E0
2.426303630E-1	-1.370462775E0	-2.503371537E-1	-2.370213509E0
2.438572690E-1	-1.431715488E0	-3.094593287E-1	-2.283926964E0
2.466868250E-1	-1.488707066E0	-3.669835925E-1	-2.188053131E0
2.480227690E-1	-1.541970253E0	-4.101268053E-1	-2.088983536E0
2.507504230E-1	-1.597896695E0	-4.516721368E-1	-1.984587669E0
2.521506150E-1	-1.652757764E0	-4.926848114E-1	-1.878061295E0
2.549080170E-1	-1.724663138E0	-5.592638254E-1	-1.700162053E0
2.565930770E-1	-1.763545275E0	-5.997439027E-1	-1.576058745E0
2.589453630E-1	-1.807221174E0	-6.892260909E-1	-1.471662879E0
2.601814620E-1	-1.848233819E0	-7.962851524E-1	-1.363005877E0
2.630021710E-1	-1.886050701E0	-8.799084425E-1	-1.249555230E0
2.646191150E-1	-1.920139194E0	-9.395632744E-1	-1.135039330E0
2.670857480E-1	-1.943042397E0	-9.608685374E-1	-1.018925428E0
2.683293850E-1	-1.957423449E0	-9.629990458E-1	-9.001484513E-1
2.711421710E-1	-1.975532889E0	-9.699232578E-1	-7.888283134E-1
2.728639230E-1	-1.988848686E0	-9.970875382E-1	-6.775081754E-1
2.752178250E-1	-2.004827738E0	-1.021588564E0	-5.864281058E-1
2.764935770E-1	-2.016545534E0	-1.047154903E0	-5.193164349E-1
2.792747860E-1	-2.035187721E0	-1.082308650E0	-4.671184719E-1
2.808850770E-1	-2.052764654E0	-1.130778193E0	-4.410194755E-1
2.833440170E-1	-2.080461502E0	-1.166464567E0	-4.394215941E-1
2.846534230E-1	-2.103364706E0	-1.172323585E0	-4.585963488E-1
2.874015940E-1	-2.128398418E0	-1.155279279E0	-4.980111420E-1
2.887775770E-1	-2.148105860E0	-1.114266634E0	-5.560680628E-1
2.915465170E-1	-2.159823656E0	-1.062068701E0	-6.354302764E-1
2.928943850E-1	-2.169411182E0	-1.008805394E0	-7.254450917E-1
2.956382090E-1	-2.166215181E0	-9.608685374E-1	-8.234494328E-1
2.973021540E-1	-2.166215181E0	-8.857674003E-1	-9.757822156E-1
2.996736710E-1	-2.163552046E0	-8.623315692E-1	-1.025317073E0
3.009593460E-1	-2.161421537E0	-8.149272799E-1	-1.117995024E0
3.037310940E-1	-2.157693148E0	-7.675230503E-1	-1.206944585E0
3.053381540E-1	-2.158758402E0	-7.110640407E-1	-1.315068960E0
3.078002860E-1	-2.156627893E0	-6.972155571E-1	-1.347559571E0
3.090448080E-1	-2.157693148E0	-6.913566589E-1	-1.416801691E0
3.118578250E-1	-2.145975351E0	-6.753776670E-1	-1.495098710E0
3.136074230E-1	-2.132659435E0	-6.434197426E-1	-1.535046101E0
3.158938630E-1	-2.111354113E0	-6.034722924E-1	-1.554220796E0
3.172536150E-1	-2.091114044E0	-5.624596477E-1	-1.576591372E0
3.199504010E-1	-2.066080332E0	-5.097290277E-1	-1.582450390E0
3.215645770E-1	-2.038383484E0	-4.601942301E-1	-1.589374542E0
3.239869780E-1	-2.009088755E0	-4.058657587E-1	-1.593635678E0
3.252740770E-1	-1.980326653E0	-3.446130455E-1	-1.592037678E0
3.280441320E-1	-1.945705533E0	-2.796319127E-1	-1.597896695E0
3.294567310E-1	-1.914280176E0	-2.114549875E-1	-1.603222966E0
3.320768080E-1	-1.878593922E0	-1.406149119E-1	-1.607484102E0
3.334278850E-1	-1.847701192E0	-6.338323653E-2	-1.616006136E0
3.362672470E-1	-1.816808581E0	1.704423130E-2	-1.626126170E0
3.379251540E-1	-1.786448479E0	1.038632840E-1	-1.633583069E0
3.403180170E-1	-1.756088495E0	1.997370869E-1	-1.639974594E0
3.416353850E-1	-1.730522156E0	2.998719513E-1	-1.642637849E0
3.443754400E-1	-1.702825189E0	4.037352204E-1	-1.642105103E0
3.460302310E-1	-1.682585239E0	5.161206126E-1	-1.632517815E0
3.484445170E-1	-1.661812544E0	6.359629035E-1	-1.624528289E0
3.497683080E-1	-1.646898866E0	7.653924823E-1	-1.611212492E0
3.525017090E-1	-1.621332526E0	9.012137055E-1	-1.594168305E0
3.543253460E-1	-1.598961949E0	1.105744481E0	-1.570199847E0
3.565524400E-1	-1.593103051E0	1.173921466E0	-1.562742949E0
3.577923080E-1	-1.579787135E0	1.303351045E0	-1.554753423E0
3.606097860E-1	-1.564340830E0	1.416269064E0	-1.543568254E0
3.625290000E-1	-1.535046101E0	1.554220796E0	-1.525991321E0
3.646935170E-1	-1.525991321E0	1.588841915E0	-1.520665050E0
3.660524230E-1	-1.502022862E0	1.637311459E0	-1.506816626E0
3.687506700E-1	-1.482848167E0	1.661279917E0	-1.492435455E0
3.701415770E-1	-1.464738607E0	1.652757764E0	-1.451422811E0
3.728807090E-1	-1.450357556E0	1.642105103E0	-1.417334318E0
3.742339230E-1	-1.442368031E0	1.621332526E0	-1.380050063E0
3.769724400E-1	-1.421595454E0	1.583515644E0	-1.349157453E0
3.786867690E-1	-1.400822759E0	1.513208151E0	-1.320395350E0
3.810092860E-1	-1.375789046E0	1.411475420E0	-1.306014180E0
3.823255380E-1	-1.342233181E0	1.311873198E0	-1.290567875E0
3.850663240E-1	-1.308677435E0	1.236772060E0	-1.272991061E0
3.868400380E-1	-1.276719451E0	1.174986720E0	-1.269262552E0
3.891504400E-1	-1.253816247E0	1.113734007E0	-1.292698383E0
3.905791920E-1	-1.242630959E0	1.054079175E0	-1.342233181E0
3.932076320E-1	-1.236772060E0	1.001348615E0	-1.405616403E0
3.949172690E-1	-1.234641552E0	9.560748339E-1	-1.477521777E0
3.972579400E-1	-1.237304688E0	9.113337398E-1	-1.554753423E0
3.985111150E-1	-1.233576298E0	8.660600185E-1	-1.620267272E0
4.013152860E-1	-1.223456264E0	8.335694075E-1	-1.672997832E0
4.031310380E-1	-1.204814076E0	8.048073053E-1	-1.711879969E0
4.053845550E-1	-1.186172009E0	7.882956862E-1	-1.738511562E0
4.066551540E-1	-1.161138296E0	7.840346098E-1	-1.765675783E0
4.094419010E-1	-1.135571957E0	7.925567627E-1	-1.797101140E0
4.108252310E-1	-1.109472990E0	8.122641444E-1	-1.834385395E0
4.135155770E-1	-1.078580260E0	8.431568146E-1	-1.881789684E0
4.148676920E-1	-1.052481294E0	8.777779341E-1	-1.931857109E0
4.176793240E-1	-1.023719192E0	9.097358584E-1	-1.982457161E0
4.193279230E-1	-9.789780378E-1	9.624664187E-1	-2.055960417E0
4.217160930E-1	-9.619337916E-1	9.789780378E-1	-2.077265739E0
4.229436540E-1	-9.331716895E-1	1.009870648E0	-2.117213011E0
4.257734390E-1	-9.044095278E-1	1.034371734E0	-2.158758402E0
4.276526150E-1	-8.665926456E-1	1.062068701E0	-2.218945980E0
4.298426320E-1	-8.415589333E-1	1.074319243E0	-2.253034353E0
4.310463460E-1	-8.303736448E-1	1.078580260E0	-2.267947912E0
4.339006700E-1	-7.936220169E-1	1.089765549E0	-2.314819574E0
4.356550380E-1	-7.659251690E-1	1.098820329E0	-2.346777678E0
4.379436320E-1	-7.408914566E-1	1.109472990E0	-2.377137661E0
4.391433460E-1	-7.147924304E-1	1.115864515E0	-2.406965017E0
4.420009390E-1	-6.870955825E-1	1.119060278E0	-2.434129238E0
4.436172690E-1	-6.593986750E-1	1.119060278E0	-2.460228205E0
4.460381320E-1	-6.327670813E-1	1.117995024E0	-2.483131409E0
4.473109610E-1	-6.040049195E-1	1.117995024E0	-2.500175714E0
4.500954390E-1	-5.773733258E-1	1.116929770E0	-2.516154528E0
4.515574610E-1	-5.480785370E-1	1.113201380E0	-2.527872562E0
4.542279010E-1	-5.235774517E-1	1.114799261E0	-2.533731461E0
4.556028080E-1	-5.017395616E-1	1.113201380E0	-2.544384241E0
4.583203620E-1	-4.793690145E-1	1.111070871E0	-2.549177885E0
4.599523840E-1	-4.580637217E-1	1.103613973E0	-2.555569410E0
4.623722850E-1	-4.415521026E-1	1.097755075E0	-2.559297800E0
4.636533840E-1	-4.229099751E-1	1.090830803E0	-2.567287445E0
4.664300160E-1	-4.037352204E-1	1.081243396E0	-2.572613716E0
4.683535770E-1	-3.882888854E-1	1.067927599E0	-2.575809479E0
4.704994780E-1	-3.717772961E-1	1.047687650E0	-2.579537868E0
4.721541540E-1	-3.563309610E-1	1.026914954E0	-2.580070496E0
4.745566700E-1	-3.414172530E-1	1.002946496E0	-2.580070496E0
4.762940770E-1	-3.195793331E-1	9.544769526E-1	-2.580070496E0
4.786089010E-1	-3.137203753E-1	9.369000793E-1	-2.577407360E0
4.801151920E-1	-2.982740402E-1	8.974853158E-1	-2.574211597E0
4.826665160E-1	-2.844256163E-1	8.596684337E-1	-2.569417953E0
4.848196150E-1	-2.625876963E-1	8.005462289E-1	-2.560895681E0
4.867043620E-1	-2.577939928E-1	7.787083387E-1	-2.559297800E0
4.879885770E-1	-2.428802997E-1	7.366303802E-1	-2.551841021E0
4.907613240E-1	-2.322276533E-1	6.966829300E-1	-2.546514750E0
4.921090380E-1	-2.082591951E-1	6.428871155E-1	-2.534796715E0
4.948289610E-1	-1.954760253E-1	6.103965044E-1	-2.526274681E0
4.961542690E-1	-1.784317940E-1	5.805691481E-1	-2.518285275E0
4.989845550E-1	-1.635181010E-1	5.544701219E-1	-2.507099867E0
5.007455000E-1	-1.470064968E-1	5.352953672E-1	-2.494316816E0
5.030207470E-1	-1.294296384E-1	5.171858668E-1	-2.481533527E0
5.043410000E-1	-1.107875034E-1	5.060006380E-1	-2.467152596E0
5.070776310E-1	-9.161274135E-2	4.974785149E-1	-2.454369307E0
5.087063460E-1	-7.243798673E-2	4.878911078E-1	-2.439988136E0
5.111598620E-1	-5.273059011E-2	4.862932265E-1	-2.425607204E0
5.123780000E-1	-3.195793182E-2	4.846953154E-1	-2.412823915E0
5.152167080E-1	-8.522115648E-3	4.873584807E-1	-2.398442984E0
5.169864230E-1	1.225054078E-2	4.868258536E-1	-2.386192322E0
5.192686310E-1	3.781688958E-2	4.873584807E-1	-2.374474525E0
5.206423840E-1	6.285060197E-2	4.868258536E-1	-2.361691236E0
5.233255540E-1	9.161274135E-2	4.878911078E-1	-2.348375559E0
5.249894230E-1	1.209075153E-1	4.889563918E-1	-2.336124897E0
5.273936700E-1	1.523328125E-1	4.964132309E-1	-2.319080830E0
5.286389230E-1	1.826928556E-1	5.012069345E-1	-2.306297541E0
5.314503620E-1	2.119876295E-1	5.145227313E-1	-2.292981625E0
5.328090380E-1	2.423476577E-1	5.289037824E-1	-2.278600693E0
5.355957470E-1	2.737729549E-1	5.448827744E-1	-2.266350031E0
5.370078070E-1	3.062635362E-1	5.597964525E-1	-2.251436472E0
5.396877470E-1	3.371562064E-1	5.779059529E-1	-2.237055302E0
5.412945380E-1	3.802994192E-1	5.986786485E-1	-2.213619471E0
5.437233240E-1	3.941478431E-1	6.040049195E-1	-2.207760572E0
5.450276540E-1	4.213120937E-1	6.183860302E-1	-2.194444895E0
5.477804770E-1	4.532700181E-1	6.295713186E-1	-2.180596352E0
5.494470380E-1	4.932174385E-1	6.450176239E-1	-2.161954165E0
5.518477850E-1	5.171858668E-1	6.519418359E-1	-2.150236368E0
5.531515380E-1	5.470132828E-1	6.546050310E-1	-2.136387825E0
5.559047080E-1	5.741775632E-1	6.546050310E-1	-2.124137402E0
5.577403070E-1	6.018744111E-1	6.514092088E-1	-2.110821486E0
5.599495160E-1	6.317018270E-1	6.434197426E-1	-2.098038435E0
5.613594230E-1	6.604639888E-1	6.364955306E-1	-2.084189892E0
5.640056700E-1	6.929545403E-1	6.231797338E-1	-2.071406841E0
5.656619610E-1	7.222493291E-1	6.050702333E-1	-2.053829908E0
5.680738620E-1	7.547398806E-1	5.837649107E-1	-2.041579247E0
5.693822310E-1	7.866978049E-1	5.608617067E-1	-2.031459332E0
5.721314390E-1	8.165252209E-1	5.310343504E-1	-2.019208670E0
5.736279230E-1	8.442220688E-1	4.990763962E-1	-2.011219263E0
5.762022690E-1	8.687231541E-1	4.628573954E-1	-2.001099348E0
5.776382690E-1	8.937568665E-1	4.266384244E-1	-1.989914060E0
5.803542080E-1	9.123989940E-1	3.893541694E-1	-1.979794025E0
5.820079610E-1	9.267801046E-1	3.462109566E-1	-1.970206618E0
5.844052470E-1	9.448895454E-1	3.036003709E-1	-1.960619211E0
5.856631540E-1	9.614011645E-1	2.620550692E-1	-1.949966550E0
5.884616700E-1	9.789780378E-1	2.221076339E-1	-1.941444516E0
5.900838840E-1	9.970875382E-1	1.800296903E-1	-1.930791855E0
5.925310160E-1	1.014664412E0	1.411475390E-1	-1.916943431E0
5.937733840E-1	1.029045463E0	1.001348570E-1	-1.903095007E0
5.965885930E-1	1.042893887E0	5.912217870E-2	-1.886050701E0
5.985190380E-1	1.061536074E0	4.261057824E-3	-1.861549616E0
6.006430540E-1	1.068460226E0	-1.438106969E-2	-1.848766446E0
6.019218840E-1	1.081243396E0	-4.580637068E-2	-1.834385395E0
6.047003620E-1	1.093493938E0	-7.350324839E-2	-1.816808581E0
6.064501150E-1	1.108407617E0	-1.102548689E-1	-1.790176868E0
6.087846310E-1	1.113734007E0	-1.251685768E-1	-1.782187462E0
6.100365000E-1	1.125451922E0	-1.454086006E-1	-1.765143156E0
6.128425540E-1	1.138767719E0	-1.778991669E-1	-1.740109444E0
6.142154610E-1	1.151550889E0	-1.981391907E-1	-1.724130511E0
6.169727460E-1	1.158475041E0	-2.183792144E-1	-1.702292562E0
6.183843070E-1	1.169660330E0	-2.338255495E-1	-1.687911510E0
6.210649770E-1	1.180845618E0	-2.514024079E-1	-1.667671561E0
6.226382310E-1	1.192030907E0	-2.679139972E-1	-1.652225137E0
6.251013620E-1	1.203748822E0	-2.796319127E-1	-1.635180950E0
6.264933460E-1	1.217064619E0	-2.902845740E-1	-1.617604017E0
6.291587080E-1	1.230913043E0	-2.977414131E-1	-1.601092458E0
6.306994610E-1	1.245826840E0	-3.036003709E-1	-1.587244034E0
6.332424390E-1	1.260740519E0	-3.121224940E-1	-1.569134593E0
6.344508460E-1	1.271925807E0	-3.169161677E-1	-1.555818796E0
6.373000920E-1	1.291633129E0	-3.227751255E-1	-1.539307117E0
6.390665770E-1	1.301220536E0	-3.291667104E-1	-1.525991321E0
6.413536310E-1	1.309742689E0	-3.318298757E-1	-1.514806032E0
6.425929610E-1	1.323591113E0	-3.387540877E-1	-1.503088117E0
6.454110540E-1	1.330515265E0	-3.430151641E-1	-1.489239693E0
6.469955000E-1	1.339037418E0	-3.430151641E-1	-1.480184913E0
6.494802460E-1	1.341700554E0	-3.472762108E-1	-1.469532371E0
6.507384610E-1	1.345429063E0	-3.536677957E-1	-1.454618573E0
6.535375920E-1	1.345961690E0	-3.589941263E-1	-1.445031285E0
6.548695000E-1	1.342765808E0	-3.653857112E-1	-1.435976505E0
6.575646150E-1	1.337972164E0	-3.776362538E-1	-1.419464946E0
6.589290000E-1	1.325721622E0	-3.882888854E-1	-1.407214403E0
6.617752850E-1	1.312938452E0	-4.053331316E-1	-1.391767979E0
6.634496540E-1	1.286306858E0	-4.282363057E-1	-1.373658538E0
6.658117460E-1	1.276186824E0	-4.367584288E-1	-1.367799520E0
6.670450000E-1	1.259142637E0	-4.516721368E-1	-1.356081605E0
6.698688620E-1	1.228782535E0	-4.719121456E-1	-1.336906910E0
6.714801920E-1	1.205346704E0	-4.820321798E-1	-1.321460605E0
6.739378230E-1	1.186172009E0	-4.921521842E-1	-1.308677435E0
6.752850380E-1	1.163268805E0	-4.990763962E-1	-1.291100502E0
6.779949770E-1	1.145159245E0	-5.060006380E-1	-1.276719451E0
6.797916920E-1	1.126517177E0	-5.171858668E-1	-1.259142637E0
6.820389770E-1	1.108940244E0	-5.315669775E-1	-1.244761467E0
6.833899230E-1	1.090830803E0	-5.486112237E-1	-1.227184653E0
6.860964000E-1	1.067927599E0	-5.693838596E-1	-1.212270975E0
6.878968840E-1	1.050883412E0	-5.890912414E-1	-1.196292043E0
6.901652850E-1	1.031708598E0	-6.141249537E-1	-1.179247737E0
6.913901540E-1	1.015197039E0	-6.370281577E-1	-1.168062449E0
6.942225150E-1	9.992180467E-1	-6.625944972E-1	-1.154746652E0
6.957703070E-1	9.885654449E-1	-6.929545403E-1	-1.142496109E0
6.983534000E-1	9.741843343E-1	-7.259777188E-1	-1.129180312E0
6.996485000E-1	9.629990458E-1	-7.568703890E-1	-1.118527651E0
7.024454380E-1	9.512811303E-1	-7.925567627E-1	-1.100950837E0
7.040660000E-1	9.448895454E-1	-8.266451955E-1	-1.088167667E0
7.064985920E-1	9.374327064E-1	-8.633968234E-1	-1.072721362E0
7.077174610E-1	9.278453588E-1	-9.006810784E-1	-1.061536074E0
7.105565540E-1	9.246495366E-1	-9.342369437E-1	-1.045557022E0
7.122226150E-1	9.150621891E-1	-9.805759192E-1	-1.025317073E0
7.146273610E-1	9.134642482E-1	-9.954896569E-1	-1.017860174E0
7.161458840E-1	9.118663669E-1	-1.025849700E0	-1.002946496E0
7.186852460E-1	9.086706042E-1	-1.052481294E0	-9.890980721E-1
7.203991920E-1	9.049421549E-1	-1.088700294E0	-9.677927494E-1
7.227396690E-1	9.033442736E-1	-1.099352956E0	-9.608685374E-1
7.239588070E-1	8.996158242E-1	-1.120658159E0	-9.443569183E-1
7.267978610E-1	8.958874345E-1	-1.141430855E0	-9.305084944E-1
7.284276150E-1	8.884305358E-1	-1.168062449E0	-9.129316211E-1
7.308827840E-1	8.793758154E-1	-1.183508754E0	-8.980179429E-1
7.321948070E-1	8.735168576E-1	-1.194694042E0	-8.852347732E-1
7.349405920E-1	8.639294505E-1	-1.205346704E0	-8.740494847E-1
7.362855380E-1	8.532768488E-1	-1.213868856E0	-8.596684337E-1
7.389458070E-1	8.351673484E-1	-1.225054145E0	-8.479505181E-1
7.403938460E-1	8.229168057E-1	-1.233043551E0	-8.335694075E-1
7.431627460E-1	8.085356951E-1	-1.242098331E0	-8.186557293E-1
7.447740770E-1	7.914915085E-1	-1.252218366E0	-8.074704409E-1
7.471997460E-1	7.765777707E-1	-1.258077264E0	-7.920241356E-1
7.484820770E-1	7.621967196E-1	-1.263936281E0	-7.771103978E-1
7.512572840E-1	7.467503548E-1	-1.270860553E0	-7.627293468E-1
7.529363460E-1	7.329019308E-1	-1.275121570E0	-7.488809228E-1
7.553424770E-1	7.190535069E-1	-1.283111095E0	-7.360977530E-1
7.566051920E-1	7.084008455E-1	-1.283643723E0	-7.195861340E-1
7.594001690E-1	6.988134980E-1	-1.287372112E0	-7.036072016E-1
7.612104610E-1	6.876282096E-1	-1.278849959E0	-6.780408025E-1
7.634535540E-1	6.849650741E-1	-1.278317332E0	-6.684534550E-1
7.646769230E-1	6.812366247E-1	-1.270327806E0	-6.487460732E-1
7.675114380E-1	6.780408025E-1	-1.260740519E0	-6.258428693E-1
7.693134610E-1	6.737797856E-1	-1.246892095E0	-5.922870636E-1
7.715812840E-1	6.721818447E-1	-1.244228840E0	-5.832322836E-1
7.728242690E-1	6.737797856E-1	-1.238369942E0	-5.571333170E-1
7.756390150E-1	6.748450398E-1	-1.237304688E0	-5.331648588E-1
7.775015770E-1	6.732471585E-1	-1.241033077E0	-4.980111420E-1
7.796861690E-1	6.748450398E-1	-1.244228840E0	-4.889563918E-1
7.808803070E-1	6.812366247E-1	-1.254881501E0	-4.623247683E-1
7.837442460E-1	6.791061163E-1	-1.271925807E0	-4.404868484E-1
7.853504610E-1	6.854977012E-1	-1.305481553E0	-4.069310129E-1
7.877818610E-1	6.860303283E-1	-1.320927978E0	-3.952131271E-1
7.890111920E-1	6.876282096E-1	-1.353418469E0	-3.733751774E-1
7.918395530E-1	6.892260909E-1	-1.412540674E0	-3.440804183E-1
7.934276530E-1	6.881608367E-1	-1.451422811E0	-3.238403797E-1
7.959090150E-1	6.860303283E-1	-1.492968082E0	-3.046656251E-1
7.973016150E-1	6.828345060E-1	-1.535578728E0	-2.849582434E-1
7.999665530E-1	6.775081754E-1	-1.574993491E0	-2.695119083E-1
8.017170000E-1	6.737797856E-1	-1.610147238E0	-2.551308274E-1
8.040087840E-1	6.673882008E-1	-1.646366239E0	-2.391518652E-1
8.053674230E-1	6.641923785E-1	-1.676726222E0	-2.215750068E-1
8.080656300E-1	6.620618701E-1	-1.708151579E0	-2.034655064E-1
8.096352690E-1	6.593986750E-1	-1.734250546E0	-1.890844405E-1
8.121356300E-1	6.599313021E-1	-1.760882139E0	-1.725728363E-1
8.134991530E-1	6.609966159E-1	-1.776861072E0	-1.597896665E-1
8.161922840E-1	6.647250056E-1	-1.793905377E0	-1.384843737E-1
8.175499610E-1	6.663229465E-1	-1.806155920E0	-1.251685768E-1
8.201668070E-1	6.732471585E-1	-1.811482191E0	-1.075917110E-1
8.217057690E-1	6.817692518E-1	-1.808819056E0	-9.534116834E-2
8.244147070E-1	6.892260909E-1	-1.796568513E0	-8.096009493E-2
8.260075380E-1	7.004113793E-1	-1.780056953E0	-6.711166352E-2
8.284657460E-1	7.142598033E-1	-1.755555868E0	-5.752427876E-2
8.297118840E-1	7.291735411E-1	-1.720934749E0	-4.580637068E-2
8.325232070E-1	7.494135499E-1	-1.680987358E0	-3.834952042E-2
8.340874230E-1	7.808388472E-1	-1.600559831E0	-2.396845073E-2
8.365593990E-1	7.920241356E-1	-1.570732474E0	-1.917476021E-2
8.377400770E-1	8.181231022E-1	-1.505751252E0	-1.225054078E-2
8.406163220E-1	8.436894417E-1	-1.434911251E0	-4.793690052E-3
8.425091530E-1	8.841695189E-1	-1.319862604E0	9.587380104E-3
8.446735920E-1	8.964200616E-1	-1.284176350E0	1.491370238E-2
8.458942690E-1	9.209211469E-1	-1.210673094E0	1.970739290E-2
8.487313220E-1	9.400959015E-1	-1.140898228E0	3.302319720E-2
8.507766920E-1	9.656622410E-1	-1.050883412E0	5.006742850E-2
8.527819380E-1	9.731190801E-1	-1.024784446E0	5.166532472E-2
8.540173460E-1	9.837717414E-1	-9.784454107E-1	6.551376730E-2
8.568396300E-1	9.928264618E-1	-9.177253246E-1	8.735168725E-2
8.581696150E-1	9.992180467E-1	-8.841695189E-1	1.017327532E-1
8.609703220E-1	1.002946496E0	-8.586031795E-1	1.166464612E-1
8.624099230E-1	1.006674886E0	-8.394283652E-1	1.320927888E-1
8.650616690E-1	1.005609632E0	-8.229168057E-1	1.512675583E-1
8.666838070E-1	1.006142259E0	-8.122641444E-1	1.720402092E-1
8.690994380E-1	1.002413869E0	-8.048073053E-1	1.944107562E-1
8.703837300E-1	9.997506738E-1	-8.032094240E-1	2.167813182E-1
8.731566690E-1	9.965549111E-1	-8.021441102E-1	2.380866110E-1
8.748488070E-1	9.901633263E-1	-8.074704409E-1	2.625876963E-1
8.772422070E-1	9.875001311E-1	-8.149272799E-1	2.860234976E-1
8.786331150E-1	9.800432920E-1	-8.271778226E-1	3.073287904E-1
8.813000150E-1	9.715211987E-1	-8.420915604E-1	3.275688291E-1
8.830304610E-1	9.592706561E-1	-8.612663150E-1	3.483414650E-1
8.853583990E-1	9.459548593E-1	-8.820389509E-1	3.696467578E-1
8.866575760E-1	9.289106131E-1	-9.012137055E-1	3.845604658E-1
8.894156300E-1	9.108011127E-1	-9.225190282E-1	4.016047120E-1
8.910370380E-1	8.878979087E-1	-9.416937828E-1	4.181163013E-1
8.934831300E-1	8.596684337E-1	-9.582054019E-1	4.346278906E-1
8.947583070E-1	8.309062719E-1	-9.752495885E-1	4.506068528E-1
8.975403610E-1	7.994809747E-1	-9.922938347E-1	4.697816372E-1
8.989196150E-1	7.616640925E-1	-1.010936022E0	4.852279723E-1
9.016284610E-1	7.265103459E-1	-1.027980208E0	5.028048158E-1
9.029582300E-1	6.886934638E-1	-1.048752904E0	5.171858668E-1
9.057783220E-1	6.503439546E-1	-1.070590734E0	5.315669775E-1
9.074118070E-1	5.944175720E-1	-1.100418210E0	5.486112237E-1
9.098143220E-1	5.587311983E-1	-1.122256160E0	5.587311983E-1
9.110619230E-1	5.235774517E-1	-1.141963482E0	5.667206645E-1
9.138718610E-1	4.894890189E-1	-1.165399313E0	5.773733258E-1
9.154648840E-1	4.575310946E-1	-1.188302517E0	5.869607329E-1
9.179405910E-1	4.261057973E-1	-1.212270975E0	5.992112756E-1
9.192197690E-1	3.946804702E-1	-1.239967823E0	6.109291911E-1
9.219978990E-1	3.648530841E-1	-1.265001535E0	6.215817928E-1
9.237799610E-1	3.339604139E-1	-1.289502621E0	6.386260390E-1
9.260412840E-1	3.046656251E-1	-1.316134214E0	6.546050310E-1
9.274077690E-1	2.743056118E-1	-1.339037418E0	6.737797856E-1
9.300984380E-1	2.455434501E-1	-1.362473249E0	6.908239722E-1
9.317853840E-1	2.093244642E-1	-1.389104843E0	7.078682184E-1
9.341676680E-1	1.800296903E-1	-1.413073301E0	7.227819562E-1
9.354419610E-1	1.475391239E-1	-1.437041759E0	7.376956344E-1
9.382248220E-1	1.209075153E-1	-1.465271235E0	7.568703890E-1
9.396376920E-1	8.628641814E-2	-1.490304947E0	7.765777707E-1
9.423543220E-1	5.912217870E-2	-1.513740778E0	7.920241356E-1
9.436183460E-1	2.663161233E-2	-1.537176609E0	8.090683818E-1
9.464458990E-1	1.065264456E-3	-1.555818796E0	8.271778226E-1
9.480646150E-1	-4.048004746E-2	-1.582983017E0	8.495483994E-1
9.504955910E-1	-5.432848632E-2	-1.590972424E0	8.586031795E-1
9.517478460E-1	-8.468852192E-2	-1.606951475E0	8.751147389E-1
9.545525910E-1	-1.091896072E-1	-1.616538763E0	8.852347732E-1
9.562073070E-1	-1.459412277E-1	-1.628789306E0	9.033442736E-1
9.586207070E-1	-1.539307088E-1	-1.627724051E0	9.076052904E-1
9.602053070E-1	-1.725728363E-1	-1.630387306E0	9.161274433E-1
9.626775140E-1	-1.869539171E-1	-1.626658797E0	9.219864011E-1
9.643992300E-1	-2.061286718E-1	-1.610679865E0	9.278453588E-1
9.667299760E-1	-2.098570913E-1	-1.603755593E0	9.289106131E-1
9.679646150E-1	-2.173139453E-1	-1.580852509E0	9.241169095E-1
9.707873990E-1	-2.221076339E-1	-1.537176609E0	9.161274433E-1
9.724476530E-1	-2.279665917E-1	-1.496696591E0	9.076052904E-1
9.748712070E-1	-2.279665917E-1	-1.445563912E0	8.980179429E-1
9.762152690E-1	-2.221076339E-1	-1.385376453E0	8.863000274E-1
9.789281680E-1	-2.189118415E-1	-1.315601587E0	8.756473660E-1
9.803484990E-1	-2.087918371E-1	-1.236772060E0	8.607336879E-1
9.829070760E-1	-2.024002522E-1	-1.154746652E0	8.527442217E-1
9.843241150E-1	-1.885518134E-1	-1.064731836E0	8.367652297E-1
9.871492830E-1	-1.752360016E-1	-9.752495885E-1	8.245146871E-1
9.888521150E-1	-1.667138934E-1	-8.841695189E-1	8.111988902E-1
9.911847450E-1	-1.571265012E-1	-7.978830934E-1	7.968178391E-1
9.924294230E-1	-1.464738697E-1	-7.163903713E-1	7.872304320E-1
9.952414760E-1	-1.368864775E-1	-6.412891746E-1	7.771103978E-1
9.968648840E-1	-1.246359423E-1	-5.768406987E-1	7.696535587E-1
9.993247060E-1	-1.150485575E-1	-5.209143162E-1	7.643272281E-1
1.000583384E0	-1.054611802E-1	-4.799016416E-1	7.600662112E-1
1.003382322E0	-9.906959534E-2	-4.474110603E-1	7.558051348E-1
1.005481423E0	-8.841694891E-2	-4.159857631E-1	7.547398806E-1
1.007436437E0	-8.522115648E-2	-4.085289240E-1	7.531419992E-1
1.008749038E0	-8.309062570E-2	-4.058657587E-1	7.547398806E-1
1.011494514E0	-7.723167539E-2	-4.090615511E-1	7.563377619E-1
1.013462307E0	-7.616640627E-2	-4.207794666E-1	7.605988383E-1
1.015564245E0	-7.776430249E-2	-4.271710515E-1	7.648598552E-1
1.016890999E0	-7.669904083E-2	-4.447479248E-1	7.717841268E-1
1.019622476E0	-8.096009493E-2	-4.601942301E-1	7.765777707E-1
1.020976269E0	-8.575379103E-2	-4.825648069E-1	7.829693556E-1
1.023766937E0	-9.321063757E-2	-5.166532397E-1	7.984157205E-1
1.025026038E0	-1.006674916E-1	-5.390238166E-1	8.053399324E-1
1.027858591E0	-1.065264493E-1	-5.608617067E-1	8.170578480E-1
1.029627499E0	-1.182443574E-1	-5.842975378E-1	8.271778226E-1
1.031895745E0	-1.235706806E-1	-6.072007418E-1	8.388957381E-1
1.033512423E0	-1.294296384E-1	-6.301039457E-1	8.490157723E-1
1.035952899E0	-1.406149119E-1	-6.514092088E-1	8.596684337E-1
1.037807346E0	-1.512675583E-1	-6.673882008E-1	8.708537221E-1
1.040020899E0	-1.581917703E-1	-6.833671331E-1	8.788431883E-1
1.041426192E0	-1.693770438E-1	-6.956176758E-1	8.900284767E-1
1.044078245E0	-1.794970632E-1	-7.025418878E-1	8.953547478E-1
1.045903576E0	-1.890844405E-1	-7.105314136E-1	9.028116465E-1
1.048122014E0	-1.976065636E-1	-7.126619220E-1	9.092032313E-1
1.049394153E0	-2.055960447E-1	-7.137271762E-1	9.145295620E-1
1.052179322E0	-2.119876295E-1	-7.089334726E-1	9.166600704E-1
1.053761846E0	-2.189118415E-1	-6.988134980E-1	9.230516553E-1
1.056248206E0	-2.210423797E-1	-6.876282096E-1	9.235842824E-1
1.057563384E0	-2.215750068E-1	-6.711165905E-1	9.251821637E-1
1.060305360E0	-2.215750068E-1	-6.471481323E-1	9.230516553E-1
1.061721576E0	-2.221076339E-1	-6.194512844E-1	9.161274433E-1
1.064291038E0	-2.167813182E-1	-5.869607329E-1	9.123989940E-1
1.065707076E0	-2.130528986E-1	-5.518069863E-1	9.049421549E-1
1.068527168E0	-2.082591951E-1	-5.155879855E-1	8.996158242E-1
1.070151115E0	-2.008023560E-1	-4.591289759E-1	8.889631629E-1
1.072577937E0	-1.992044598E-1	-4.415521026E-1	8.868326545E-1
1.073999576E0	-1.960086524E-1	-4.037352204E-1	8.804410696E-1
1.076635245E0	-1.960086524E-1	-3.707120419E-1	8.708537221E-1
1.078371576E0	-1.976065636E-1	-3.270362020E-1	8.548747301E-1
1.080703591E0	-2.002697140E-1	-3.142530024E-1	8.458199501E-1
1.081912115E0	-2.050634027E-1	-2.892192900E-1	8.362326026E-1
1.084760706E0	-2.194444835E-1	-2.615224123E-1	8.154599667E-1
1.086577076E0	-2.263686955E-1	-2.428802997E-1	8.010788560E-1
1.088815245E0	-2.364887148E-1	-2.300971150E-1	7.845672965E-1
1.090101153E0	-2.492718846E-1	-2.194444835E-1	7.728493810E-1
1.092872706E0	-2.583266199E-1	-2.087918371E-1	7.552725077E-1
1.094545769E0	-2.652508616E-1	-2.018676102E-1	7.430219650E-1
1.096956975E0	-2.828277051E-1	-1.986718178E-1	7.270429730E-1
1.098172653E0	-2.902845740E-1	-1.949433982E-1	7.142598033E-1
1.101015129E0	-3.041329980E-1	-1.960086524E-1	6.945524216E-1
1.102454115E0	-3.163835406E-1	-1.970739216E-1	6.844323874E-1
1.105146398E0	-3.312972486E-1	-1.992044598E-1	6.721818447E-1
1.106430961E0	-3.510046303E-1	-2.071939409E-1	6.551376581E-1
1.109238706E0	-3.749730885E-1	-2.146507949E-1	6.460828781E-1
1.110910499E0	-4.005394280E-1	-2.279665917E-1	6.332997084E-1
1.113276129E0	-4.356931746E-1	-2.428802997E-1	6.189186573E-1
1.114677846E0	-4.740426838E-1	-2.593919039E-1	6.087986231E-1
1.117333706E0	-5.145227313E-1	-2.769687474E-1	5.960154533E-1
1.118923538E0	-5.597964525E-1	-2.982740402E-1	5.832322836E-1
1.121416821E0	-6.050702333E-1	-3.131877482E-1	5.725796223E-1
1.122605922E0	-6.503439546E-1	-3.307646215E-1	5.608617067E-1
1.125474244E0	-6.918892860E-1	-3.462109566E-1	5.550028086E-1
1.127190846E0	-7.600662112E-1	-3.728425503E-1	5.379585624E-1
1.129527898E0	-7.808388472E-1	-3.797667921E-1	5.342301130E-1
1.130752653E0	-8.239820600E-1	-4.005394280E-1	5.289037824E-1
1.133583360E0	-8.633968234E-1	-4.207794666E-1	5.241101384E-1
1.135176269E0	-9.230516553E-1	-4.596616030E-1	5.177185535E-1
1.137618129E0	-9.443569183E-1	-4.767058492E-1	5.177185535E-1
1.138817115E0	-9.789780378E-1	-5.102616549E-1	5.193164349E-1
1.141674783E0	-1.019458055E0	-5.486112237E-1	5.209143162E-1
1.143080269E0	-1.068992853E0	-6.098638773E-1	5.273059011E-1
1.145671576E0	-1.103081346E0	-6.487460732E-1	5.358279943E-1
1.147092230E0	-1.132908702E0	-6.838997602E-1	5.432848930E-1
1.149910321E0	-1.166997194E0	-7.211840153E-1	5.560680628E-1
1.151513922E0	-1.194161415E0	-7.547398806E-1	5.683186054E-1
1.153946475E0	-1.227184653E0	-7.845672965E-1	5.816344023E-1
1.155211653E0	-1.254348874E0	-8.122641444E-1	5.997439027E-1
1.158003475E0	-1.285241604E0	-8.394283652E-1	6.135923266E-1
1.159710730E0	-1.310807943E0	-8.628641963E-1	6.279733777E-1
1.162072744E0	-1.336374283E0	-8.815063238E-1	6.396912932E-1
1.163457653E0	-1.355548978E0	-8.948221207E-1	6.540724039E-1
1.166129937E0	-1.372593284E0	-9.006810784E-1	6.684534550E-1
1.167909922E0	-1.383245945E0	-8.996158242E-1	6.865629554E-1
1.170173321E0	-1.394431114E0	-8.916263580E-1	7.062703371E-1
1.171410999E0	-1.401888013E0	-8.756473660E-1	7.249124646E-1
1.174230706E0	-1.407747030E0	-8.559399843E-1	7.424893379E-1
1.175803576E0	-1.416801691E0	-8.335694075E-1	7.648598552E-1
1.178300052E0	-1.423193336E0	-8.064051867E-1	7.835019827E-1
1.179534615E0	-1.432248116E0	-7.792409658E-1	7.989483476E-1
1.182358129E0	-1.440237522E0	-7.526093125E-1	8.143946528E-1
1.183682192E0	-1.448227048E0	-7.265103459E-1	8.303736448E-1
1.186488706E0	-1.456216455E0	-7.025418878E-1	8.415589333E-1
1.187735461E0	-1.464205980E0	-6.812366247E-1	8.564726114E-1
1.190581398E0	-1.464738607E0	-6.615292430E-1	8.665926456E-1
1.192355576E0	-1.465271235E0	-6.354302764E-1	8.873652816E-1
1.194634283E0	-1.464738607E0	-6.269081235E-1	8.937568665E-1
1.195918230E0	-1.459944963E0	-6.141249537E-1	9.054747820E-1
1.198692052E0	-1.455683827E0	-5.992112756E-1	9.214537740E-1
1.200333961E0	-1.446096539E0	-5.811017752E-1	9.422264099E-1
1.202761206E0	-1.441302776E0	-5.709817410E-1	9.555422068E-1
1.203973153E0	-1.437041759E0	-5.651227832E-1	9.619337916E-1
1.206818090E0	-1.426389098E0	-5.518069863E-1	9.832391143E-1
1.208544422E0	-1.416801691E0	-5.400890708E-1	9.976201653E-1
1.210872975E0	-1.410942793E0	-5.315669775E-1	1.011468649E0
1.212222115E0	-1.404018521E0	-5.235774517E-1	1.027447581E0
1.214930590E0	-1.393365860E0	-5.198490620E-1	1.037034988E0
1.216555153E0	-1.387506962E0	-5.155879855E-1	1.047154903E0
1.219014321E0	-1.378984809E0	-5.139901042E-1	1.055677056E0
1.220231845E0	-1.372593284E0	-5.075985193E-1	1.062068701E0
1.223071244E0	-1.358744860E0	-5.001416802E-1	1.070058107E0
1.224360730E0	-1.352353215E0	-4.921521842E-1	1.075384498E0
1.227060884E0	-1.344896317E0	-4.820321798E-1	1.080710769E0
1.228464538E0	-1.335309029E0	-4.751079381E-1	1.094559193E0
1.231293129E0	-1.324656367E0	-4.697816372E-1	1.098820329E0
1.232888192E0	-1.318264723E0	-4.692489803E-1	1.106277108E0
1.235331283E0	-1.311340570E0	-4.767058492E-1	1.114799261E0
1.236551961E0	-1.304416299E0	-4.942827225E-1	1.123321414E0
1.239389321E0	-1.298557401E0	-5.193164349E-1	1.131310821E0
1.241066692E0	-1.293231010E0	-5.507417321E-1	1.137169838E0
1.243473167E0	-1.290035248E0	-5.944175720E-1	1.141963482E0
1.244678807E0	-1.286306858E0	-6.434197426E-1	1.146757245E0
1.247530590E0	-1.280447841E0	-6.998787522E-1	1.153681397E0
1.249392730E0	-1.270860553E0	-7.968178391E-1	1.162203550E0
1.251586936E0	-1.269262552E0	-8.298410177E-1	1.163801432E0
1.252784922E0	-1.260207891E0	-9.012137055E-1	1.172323585E0
1.255644590E0	-1.252218366E0	-9.741843343E-1	1.181378245E0
1.257278345E0	-1.235174179E0	-1.079112887E0	1.195759296E0
1.259714282E0	-1.231445670E0	-1.114799261E0	1.200553060E0
1.260944307E0	-1.215466738E0	-1.178182483E0	1.213336229E0
1.263772282E0	-1.198422551E0	-1.271925807E0	1.233043551E0
1.265612845E0	-1.183508754E0	-1.329982638E0	1.249555230E0
1.267822205E0	-1.175519347E0	-1.385376453E0	1.270327806E0
1.269270845E0	-1.161138296E0	-1.438639641E0	1.288437366E0
1.271880513E0	-1.154214025E0	-1.487109184E0	1.307612062E0
1.273483345E0	-1.148355126E0	-1.537176609E0	1.327319503E0
1.275917321E0	-1.140365601E0	-1.583515644E0	1.343831062E0
1.277244730E0	-1.131310821E0	-1.621865153E0	1.363005877E0
1.279975052E0	-1.120125532E0	-1.661279917E0	1.379517436E0
1.281632692E0	-1.108407617E0	-1.694303155E0	1.389104843E0
1.284045128E0	-1.091363430E0	-1.716140985E0	1.397626996E0
1.285288038E0	-1.066329718E0	-1.730522156E0	1.405616403E0
1.288102475E0	-1.037567616E0	-1.733717918E0	1.412540674E0
1.289951922E0	-1.007207513E0	-1.726793647E0	1.419464946E0
1.292147782E0	-9.704559445E-1	-1.704955816E0	1.430650115E0
1.293386615E0	-9.299758673E-1	-1.673530459E0	1.437574387E0
1.296205090E0	-8.921589851E-1	-1.631452560E0	1.447161794E0
1.297793884E0	-8.490157723E-1	-1.578189254E0	1.460477591E0
1.300273859E0	-8.053399324E-1	-1.513208151E0	1.467934370E0
1.301619538E0	-7.648598552E-1	-1.441302776E0	1.472195506E0
1.304331282E0	-7.265103459E-1	-1.361940622E0	1.474326015E0
1.305700384E0	-6.934871674E-1	-1.285774231E0	1.476456523E0
1.308320499E0	-6.593986750E-1	-1.209075212E0	1.474858642E0
1.309771807E0	-6.322344542E-1	-1.136637211E0	1.467401743E0
1.312553551E0	-6.098638773E-1	-1.071655989E0	1.459944963E0
1.314181268E0	-5.864281058E-1	-9.976201653E-1	1.446629167E0
1.316605975E0	-5.826996565E-1	-9.800432920E-1	1.441835403E0
1.317850153E0	-5.699164867E-1	-9.518138170E-1	1.432780743E0
1.320663282E0	-5.608617067E-1	-9.326390028E-1	1.423725963E0
1.322225845E0	-5.555354357E-1	-9.246495366E-1	1.412008047E0
1.324732244E0	-5.534048676E-1	-9.289106131E-1	1.406681657E0
1.325964538E0	-5.512743592E-1	-9.406285286E-1	1.396029115E0
1.328790013E0	-5.539374948E-1	-9.715211987E-1	1.380582690E0
1.330566461E0	-5.544701219E-1	-9.992180467E-1	1.369397402E0
1.332853244E0	-5.555354357E-1	-1.029578090E0	1.365669012E0
1.334080615E0	-5.571333170E-1	-1.062601328E0	1.358744860E0
1.336910474E0	-5.619270205E-1	-1.101483464E0	1.353951097E0
1.338588422E0	-5.741775632E-1	-1.144093990E0	1.342765808E0
1.340994513E0	-5.917543769E-1	-1.190433025E0	1.331047893E0
1.342202961E0	-6.157228351E-1	-1.237304688E0	1.318797350E0
1.345052205E0	-6.455502510E-1	-1.279915214E0	1.304416299E0
1.346438384E0	-6.775081754E-1	-1.317732096E0	1.292165756E0
1.349184590E0	-7.073355913E-1	-1.349157453E0	1.282045722E0
1.350597268E0	-7.376956344E-1	-1.373658538E0	1.276186824E0
1.353277782E0	-7.659251690E-1	-1.393365860E0	1.271393180E0
1.355108845E0	-7.882956862E-1	-1.400822759E0	1.270860553E0
1.357315628E0	-8.069378138E-1	-1.397626996E0	1.274056315E0
1.358551999E0	-8.149272799E-1	-1.385376453E0	1.282578349E0
1.361373513E0	-8.218515515E-1	-1.366201639E0	1.293763638E0
1.363005807E0	-8.282431364E-1	-1.342233181E0	1.308677435E0
1.365458051E0	-8.282431364E-1	-1.316666842E0	1.321993232E0
1.366648538E0	-8.298410177E-1	-1.287372112E0	1.342765808E0
1.369516474E0	-8.309062719E-1	-1.257012010E0	1.362473249E0
1.371279230E0	-8.213189244E-1	-1.211205721E0	1.398692250E0
1.373576474E0	-8.186557293E-1	-1.195226669E0	1.411475420E0
1.374780345E0	-8.133293986E-1	-1.164866686E0	1.437574387E0
1.377634667E0	-8.122641444E-1	-1.135039330E0	1.461010218E0
1.379212768E0	-8.143946528E-1	-1.090298176E0	1.494033456E0
1.381704667E0	-8.170578480E-1	-1.074851871E0	1.502555490E0
1.382922345E0	-8.250473142E-1	-1.045024395E0	1.521730304E0
1.385762090E0	-8.410263062E-1	-1.001881242E0	1.541437626E0
1.387092845E0	-8.538094759E-1	-9.752495885E-1	1.546231389E0
1.389861422E0	-8.655273914E-1	-9.475527406E-1	1.548894525E0
1.391169499E0	-8.857674003E-1	-9.177253246E-1	1.543035507E0
1.394000128E0	-9.001484513E-1	-8.916263580E-1	1.538774490E0
1.395718576E0	-9.097358584E-1	-8.671252728E-1	1.534513474E0
1.398037013E0	-9.203884602E-1	-8.415589333E-1	1.527056575E0
1.399265422E0	-9.299758673E-1	-8.165252209E-1	1.520665050E0
1.402094705E0	-9.438242912E-1	-7.930893898E-1	1.508947134E0
1.403692153E0	-9.592706561E-1	-7.728493810E-1	1.499359727E0
1.406163936E0	-9.821738005E-1	-7.510114312E-1	1.479119658E0
1.407531884E0	-1.008805394E0	-7.339671850E-1	1.464205980E0
1.410221628E0	-1.041828632E0	-7.174556255E-1	1.441302776E0
1.412008038E0	-1.080178142E0	-7.068029642E-1	1.411475420E0
1.414273090E0	-1.120125532E0	-7.014766335E-1	1.383778572E0
1.415544691E0	-1.163268805E0	-7.062703371E-1	1.344896317E0
1.418330705E0	-1.200020432E0	-7.169229984E-1	1.304416299E0
1.419947691E0	-1.236772060E0	-7.339671850E-1	1.260207891E0
1.422399974E0	-1.266066790E0	-7.558051348E-1	1.219195127E0
1.423675961E0	-1.293763638E0	-7.792409658E-1	1.174454093E0
1.426457705E0	-1.314536333E0	-8.117315173E-1	1.127582431E0
1.427756115E0	-1.336374283E0	-8.458199501E-1	1.074851871E0
1.430587820E0	-1.361940622E0	-8.852347732E-1	1.012001276E0
1.431822691E0	-1.380582690E0	-9.198558331E-1	9.470201135E-1
1.434680974E0	-1.396029115E0	-9.560748339E-1	8.799084425E-1
1.436347961E0	-1.409344912E0	-1.006674886E0	7.733820081E-1
1.438733589E0	-1.409344912E0	-1.023186564E0	7.366303802E-1
1.440153268E0	-1.408812284E0	-1.053546548E0	6.641923785E-1
1.442791743E0	-1.394431114E0	-1.092961311E0	5.507417321E-1
1.444382807E0	-1.382713318E0	-1.115864515E0	4.783037305E-1
1.446862397E0	-1.366734266E0	-1.133973956E0	4.026699662E-1
1.448124576E0	-1.354483724E0	-1.146757245E0	3.195793331E-1
1.450919705E0	-1.342233181E0	-1.156877160E0	2.396845073E-1
1.452606845E0	-1.327852130E0	-1.161670923E0	1.555286050E-1
1.454970974E0	-1.307612062E0	-1.166997194E0	7.669904083E-2
1.456226461E0	-1.280980468E0	-1.164866686E0	-1.597896684E-3
1.459028166E0	-1.254881501E0	-1.158475041E0	-7.297061384E-2
1.460623653E0	-1.223988891E0	-1.149953008E0	-1.416801661E-1
1.463111282E0	-1.191498280E0	-1.135571957E0	-2.157160491E-1
1.464376845E0	-1.158475041E0	-1.114266634E0	-2.881540358E-1
1.467168897E0	-1.120125532E0	-1.091896057E0	-3.627225459E-1
1.468587538E0	-1.084971905E0	-1.062601328E0	-4.399542212E-1
1.471129884E0	-1.044491768E0	-1.030110717E0	-5.161206126E-1
1.472576384E0	-1.004544377E0	-9.949570298E-1	-5.917543769E-1
1.475392666E0	-9.661948681E-1	-9.528790712E-1	-6.657902598E-1
1.477010922E0	-9.347695708E-1	-9.150621891E-1	-7.376956344E-1
1.479429166E0	-9.012137055E-1	-8.788431883E-1	-8.101336360E-1
1.480813538E0	-8.713863492E-1	-8.506136537E-1	-8.825715780E-1
1.483487705E0	-8.399610519E-1	-8.303736448E-1	-9.576727748E-1
1.485117230E0	-7.946872711E-1	-8.223841786E-1	-1.066862345E0
1.487573012E0	-7.787083387E-1	-8.250473142E-1	-1.103081346E0
1.488797730E0	-7.494135499E-1	-8.330367804E-1	-1.173388839E0
1.491630897E0	-7.121292949E-1	-8.442220688E-1	-1.236772060E0
1.493429499E0	-6.530070901E-1	-8.602010608E-1	-1.316134214E0
1.495686897E0	-6.317018270E-1	-8.665926456E-1	-1.336374283E0
1.496989461E0	-5.917543769E-1	-8.836368918E-1	-1.374723792E0
1.499745282E0	-5.209143162E-1	-9.251821637E-1	-1.412540674E0
1.501407114E0	-4.756405652E-1	-9.512811303E-1	-1.427454352E0
1.503783589E0	-4.303668439E-1	-9.843043685E-1	-1.445031285E0
1.505005345E0	-3.904194236E-1	-1.014131784E0	-1.465803862E0
1.507841974E0	-3.515372574E-1	-1.025849700E0	-1.483380795E0
1.509276845E0	-3.137203753E-1	-1.038632870E0	-1.503620744E0
1.511988474E0	-2.945456207E-1	-1.002413869E0	-1.502022862E0
1.513395038E0	-2.806971967E-1	-9.086706042E-1	-1.474858642E0
1.516081705E0	-2.530003190E-1	-8.921589851E-1	-1.457814455E0
1.517691499E0	-2.237055302E-1	-8.415589333E-1	-1.418399572E0
1.520119205E0	-1.944107562E-1	-7.904262543E-1	-1.372060657E0
1.521361307E0	-1.624528319E-1	-7.350324988E-1	-1.326786876E0
1.524176974E0	-1.411475390E-1	-6.269081235E-1	-1.255414128E0
1.525782499E0	-1.235706806E-1	-4.878911078E-1	-1.161138296E0
1.528212858E0	-7.456851006E-2	-4.825648069E-1	-1.106277108E0
1.529518730E0	-1.917476021E-2	-4.665858448E-1	-1.041828632E0
1.532271320E0	3.728425503E-2	-4.527373910E-1	-9.704559445E-1
1.533992114E0	1.065264493E-1	-3.824299276E-1	-8.474178910E-1
1.536309858E0	1.272991002E-1	-3.643204570E-1	-7.989483476E-1
1.537520730E0	1.880191714E-1	-4.026699662E-1	-7.259777188E-1
1.540367628E0	2.620550692E-1	-4.703142643E-1	-6.625944972E-1
1.541979384E0	3.328951299E-1	-5.278385282E-1	-6.040049195E-1
1.544436974E0	3.925499618E-1	-5.251753926E-1	-5.363606811E-1
1.545684114E0	4.388889670E-1	-5.054680109E-1	-4.644553065E-1
1.548495204E0	4.894890189E-1	-4.974785149E-1	-3.962783813E-1
1.549849307E0	5.427522659E-1	-4.777711034E-1	-3.334277868E-1
1.552625166E0	5.784385800E-1	-4.032025933E-1	-2.652508616E-1
1.553919499E0	6.029396653E-1	-2.945456207E-1	-1.986718178E-1
1.556717935E0	6.317018270E-1	-1.842907518E-1	-1.390170157E-1
1.558421114E0	6.657902598E-1	-7.989482954E-3	-6.072007492E-2
1.560769127E0	6.775081754E-1	1.214401498E-1	-9.587380104E-3
1.562013576E0	6.844323874E-1	2.492718846E-1	3.249056637E-2
1.564826320E0	6.908239722E-1	3.595267534E-1	7.510114461E-2
1.566615114E0	6.956176758E-1	4.569984376E-1	1.166464612E-1
1.568896512E0	6.972155571E-1	5.459480286E-1	1.565938741E-1
1.570111999E0	7.041398287E-1	6.146575809E-1	1.981391907E-1
1.572953858E0	7.057377100E-1	6.663229465E-1	2.370213419E-1
1.574768076E0	7.094660997E-1	6.977482438E-1	2.689792812E-1
1.577029435E0	7.110640407E-1	7.185208797E-1	2.849582434E-1
1.578235230E0	7.158577442E-1	7.190535069E-1	2.929477394E-1
1.581086627E0	7.206513882E-1	6.918892860E-1	2.817624509E-1
1.582733845E0	7.249124646E-1	6.498113275E-1	2.540655732E-1
1.585170935E0	7.382282615E-1	6.013417840E-1	2.098570913E-1
1.586399614E0	7.494135499E-1	5.470132828E-1	1.640507281E-1
1.589228281E0	7.590008974E-1	4.985437691E-1	1.006674916E-1
1.590559461E0	7.696535587E-1	4.500742257E-1	2.450108156E-2
1.593358397E0	7.755125165E-1	4.000068009E-1	-5.752427876E-2
1.594811691E0	7.797735929E-1	3.563309610E-1	-1.518001854E-1
1.597451781E0	7.824367285E-1	3.126551211E-1	-2.476739883E-1
1.599141768E0	7.888283134E-1	2.732403278E-1	-3.882888854E-1
1.601487820E0	7.925567627E-1	2.663161159E-1	-4.335626364E-1
1.602722114E0	7.925567627E-1	2.599245310E-1	-5.246427655E-1
1.605545512E0	7.909588814E-1	2.689792812E-1	-6.125270724E-1
1.607303922E0	7.803062201E-1	2.998719513E-1	-7.339671850E-1
1.609629166E0	7.733820081E-1	3.201119602E-1	-7.701861858E-1
1.610866345E0	7.531419992E-1	3.659183383E-1	-8.479505181E-1
1.613686435E0	7.265103459E-1	4.186489284E-1	-9.246495366E-1
1.615412422E0	6.860303283E-1	4.958806038E-1	-1.041296005E0
1.617764973E0	6.583334208E-1	5.342301130E-1	-1.119060278E0
1.618970961E0	6.237123609E-1	5.688512325E-1	-1.202683568E0
1.621823050E0	5.976133347E-1	5.901564956E-1	-1.280980468E0
1.623469461E0	5.688512325E-1	5.997439027E-1	-1.366734266E0
1.625892627E0	5.486112237E-1	6.109291911E-1	-1.453020692E0
1.627099307E0	5.310343504E-1	6.114618182E-1	-1.545698762E0
1.629950243E0	5.150553584E-1	6.029396653E-1	-1.638376713E0
1.631313999E0	4.964132309E-1	5.800365210E-1	-1.740642071E0
1.633962730E0	4.841626883E-1	5.587311983E-1	-1.832787514E0
1.635399268E0	4.617921412E-1	5.352953672E-1	-1.932922363E0
1.638188819E0	4.431500137E-1	5.102616549E-1	-2.032524586E0
1.639907268E0	4.223773479E-1	4.814995229E-1	-2.131061554E0
1.642225550E0	4.026699662E-1	4.479437172E-1	-2.231729031E0
1.643571961E0	3.776362538E-1	4.218447208E-1	-2.330798626E0
1.646282896E0	3.494067490E-1	3.952131271E-1	-2.434661865E0
1.647914614E0	3.286340833E-1	3.659183383E-1	-2.543318987E0
1.650351627E0	3.142530024E-1	3.249056637E-1	-2.655171633E0
1.651667614E0	2.966761589E-1	2.604571581E-1	-2.772883415E0
1.654409473E0	3.051982522E-1	2.146507949E-1	-2.893790960E0
1.656355961E0	3.201119602E-1	1.549959779E-1	-3.061569929E0
1.658441127E0	3.307646215E-1	1.507349163E-1	-3.108974218E0
1.659854037E0	3.584614992E-1	1.693770438E-1	-3.180346966E0
1.662498050E0	3.744404614E-1	1.619201899E-1	-3.233077526E0
1.664104384E0	4.207794666E-1	1.885518134E-1	-3.298591375E0
1.666566665E0	4.362258017E-1	1.912149638E-1	-3.315103054E0
1.667820114E0	4.607268870E-1	1.832254827E-1	-3.332679749E0
1.670622973E0	4.777711034E-1	1.502022892E-1	-3.338006258E0
1.672102230E0	4.958806038E-1	6.817692518E-2	-3.334810495E0
1.674752242E0	5.091964006E-1	6.924218964E-3	-3.320961952E0
1.676060153E0	5.257080197E-1	-6.072007492E-2	-3.310309410E0
1.678843742E0	5.374259353E-1	-1.379517466E-1	-3.296460867E0
1.680644768E0	5.406216979E-1	-2.327602804E-1	-3.277818680E0
1.682893896E0	5.438175201E-1	-3.211772442E-1	-3.256513357E0
1.684131345E0	5.368933082E-1	-4.186489284E-1	-3.233610153E0
1.686951319E0	5.273059011E-1	-5.166532397E-1	-3.217098713E0
1.688568768E0	5.097290277E-1	-6.178534031E-1	-3.203250170E0
1.691020665E0	4.852279723E-1	-7.238472104E-1	-3.199521780E0
1.692300961E0	4.554005563E-1	-8.362326026E-1	-3.200054407E0
1.695078435E0	4.191815555E-1	-9.496832490E-1	-3.211239815E0
1.696897268E0	3.781688809E-1	-1.064199209E0	-3.227218628E0
1.699127973E0	3.339604139E-1	-1.184574127E0	-3.247458696E0
1.700339960E0	2.897519469E-1	-1.306546807E0	-3.282612324E0
1.703185050E0	2.471413612E-1	-1.415203810E0	-3.337473631E0
1.704982076E0	2.071939409E-1	-1.530784965E0	-3.400856733E0
1.707269358E0	1.704423130E-1	-1.642637849E0	-3.470631599E0
1.708501653E0	1.272991002E-1	-1.732652664E0	-3.544667482E0
1.711326781E0	7.616640627E-2	-1.800296903E0	-3.623497009E0
1.712656460E0	3.089267015E-2	-1.832787514E0	-3.700728655E0
1.715313960E0	-1.651159860E-2	-1.851962209E0	-3.793939352E0
1.716749076E0	-7.297061384E-2	-1.870604396E0	-3.899400473E0
1.719549704E0	-1.246359423E-1	-1.873267531E0	-4.012851238E0
1.721232537E0	-1.981391907E-1	-1.838113785E0	-4.171575546E0
1.723586319E0	-2.205097377E-1	-1.820536971E0	-4.220045090E0
1.724909922E0	-2.631203234E-1	-1.776328444E0	-4.319647312E0
1.727643819E0	-3.046656251E-1	-1.722000003E0	-4.413390636E0
1.729203460E0	-3.680488765E-1	-1.629321933E0	-4.545483589E0
1.731727973E0	-4.133225977E-1	-1.556351423E0	-4.632302284E0
1.733029345E0	-4.703142643E-1	-1.467934370E0	-4.711132050E0
1.735785396E0	-5.219795704E-1	-1.372593284E0	-4.785700798E0
1.737455307E0	-5.715143681E-1	-1.271393180E0	-4.849083900E0
1.739836473E0	-6.135923266E-1	-1.153148770E0	-4.899683952E0
1.741042884E0	-6.370281577E-1	-1.024784446E0	-4.947620869E0
1.743893704E0	-6.641923785E-1	-8.980179429E-1	-4.988633633E0
1.745461691E0	-6.833671331E-1	-7.760451436E-1	-5.011003971E0
1.747963319E0	-6.966829300E-1	-6.535397172E-1	-5.024319649E0
1.749191691E0	-6.966829300E-1	-5.416869521E-1	-5.021123886E0
1.752020434E0	-6.886934638E-1	-4.367584288E-1	-5.012601852E0
1.753330576E0	-6.705839634E-1	-3.339604139E-1	-5.005677700E0
1.756166165E0	-6.471481323E-1	-2.295644879E-1	-4.997155666E0
1.757507576E0	-6.130596995E-1	-1.342233270E-1	-4.984372616E0
1.760258011E0	-5.811017752E-1	-4.900216311E-2	-4.966262817E0
1.761896922E0	-5.480785370E-1	2.237055451E-2	-4.942827225E0
1.764295242E0	-5.113269091E-1	9.214537591E-2	-4.919391155E0
1.765555268E0	-4.767058492E-1	1.544633508E-1	-4.894357681E0
1.768352242E0	-4.452805519E-1	2.050634027E-1	-4.856540680E0
1.770010153E0	-4.095941782E-1	2.253034264E-1	-4.824049950E0
1.772420473E0	-3.723099232E-1	2.535329461E-1	-4.789961815E0
1.773636807E0	-3.355582952E-1	2.652508616E-1	-4.744688034E0
1.776477857E0	-2.988066673E-1	2.609897852E-1	-4.695685863E0
1.778735999E0	-2.316950262E-1	2.620550692E-1	-4.613127708E0
1.781571127E0	-1.842907518E-1	2.567287385E-1	-4.554538250E0
1.782832768E0	-1.267664731E-1	2.380866110E-1	-4.494883537E0
1.785663050E0	-7.882957160E-2	2.210423797E-1	-4.442685604E0
1.787263191E0	-3.195793368E-3	1.944107562E-1	-4.373443127E0
1.789732242E0	4.314320907E-2	1.763012707E-1	-4.329234600E0
1.790954730E0	7.829693705E-2	1.486043930E-1	-4.288754463E0
1.793789819E0	1.075917110E-1	1.235706806E-1	-4.261057854E0
1.795082807E0	1.358212233E-1	8.681905270E-2	-4.238154411E0
1.797847653E0	1.624528319E-1	4.314320907E-2	-4.218979836E0
1.799298884E0	1.896170676E-1	-1.012001187E-2	-4.210457802E0
1.802012088E0	2.205097377E-1	-7.616640627E-2	-4.215251446E0
1.803633037E0	2.652508616E-1	-1.443433315E-1	-4.228034496E0
1.806064088E0	3.195793331E-1	-2.130528986E-1	-4.253601074E0
1.807312960E0	3.834952116E-1	-2.860234976E-1	-4.286623955E0
1.810122011E0	4.596616030E-1	-3.600593805E-1	-4.331365108E0
1.811816730E0	5.347627401E-1	-4.378236830E-1	-4.389422417E0
1.814191280E0	6.087986231E-1	-5.203816891E-1	-4.451740265E0
1.815428807E0	6.801713705E-1	-5.789712071E-1	-4.481034756E0
1.818248819E0	7.307714224E-1	-6.578007936E-1	-4.501807690E0
1.820055537E0	7.914915085E-1	-7.819041014E-1	-4.540689945E0
1.822326934E0	8.096010089E-1	-8.143946528E-1	-4.557734013E0
1.823533153E0	8.559399843E-1	-8.751147389E-1	-4.603540421E0
1.826384819E0	9.081379771E-1	-9.155948162E-1	-4.657868862E0
1.828216153E0	9.949570298E-1	-9.235842824E-1	-4.778243542E0
1.830468973E0	1.027980208E0	-9.150621891E-1	-4.828310966E0
1.831701383E0	1.092961311E0	-8.900284767E-1	-4.932706833E0
1.834526088E0	1.149953008E0	-8.671252728E-1	-5.039766312E0
1.836044691E0	1.200553060E0	-8.442220688E-1	-5.161206245E0
1.838656203E0	1.260207891E0	-8.143946528E-1	-5.280515671E0
1.840096383E0	1.317199469E0	-7.760451436E-1	-5.404619217E0
1.842748049E0	1.402953267E0	-7.227819562E-1	-5.603291035E0
1.844379153E0	1.455683827E0	-6.988134980E-1	-5.739112377E0
1.846783626E0	1.512675524E0	-6.721818447E-1	-5.878129482E0
1.848379576E0	1.569134593E0	-6.466155052E-1	-6.011819839E0
1.850841049E0	1.627724051E0	-6.306365728E-1	-6.143380165E0
1.852420614E0	1.692705274E0	-6.146575809E-1	-6.272276878E0
1.854925088E0	1.759816885E0	-5.981460214E-1	-6.391054153E0
1.856230691E0	1.829591751E0	-5.986786485E-1	-6.509830952E0
1.858982549E0	1.903627634E0	-6.072007418E-1	-6.628608227E0
1.860696576E0	1.982457161E0	-6.157228351E-1	-6.741526127E0
1.863065511E0	2.036785603E0	-4.953479767E-1	-6.791060925E0
1.864353114E0	2.018143415E0	-1.688444167E-1	-6.671218872E0
1.867123203E0	1.950499177E0	1.938781291E-1	-6.376673222E0
1.868831653E0	1.829059124E0	6.034722924E-1	-5.951099873E0
1.871193126E0	1.672465205E0	1.035437107E0	-5.429653168E0
1.872428576E0	1.489239693E0	1.459412336E0	-4.869856358E0
1.875250011E0	1.291100502E0	1.873800159E0	-4.324973583E0
1.876595307E0	1.083906531E0	2.232261658E0	-3.841876268E0
1.879326576E0	8.953547478E-1	2.488457680E0	-3.463174820E0
1.880770691E0	7.275756001E-1	2.619485378E0	-3.147323847E0
1.883488395E0	5.880259871E-1	2.623213768E0	-2.899649858E0
1.885268807E0	4.245078862E-1	2.479935646E0	-2.649845362E0
1.887524472E0	3.840278387E-1	2.398975611E0	-2.593386412E0
1.888772037E0	3.211772442E-1	2.197640657E0	-2.520948410E0
1.891581472E0	2.769687474E-1	1.951564431E0	-2.492718935E0
1.893176768E0	2.375539690E-1	1.508414507E0	-2.495914698E0
1.895650857E0	2.290318608E-1	1.351287961E0	-2.508697748E0
1.896875999E0	2.141181529E-1	1.012533903E0	-2.551308393E0
1.899707665E0	1.826928556E-1	4.814995229E-1	-2.638659954E0
1.901923691E0	1.315601617E-1	-4.207794741E-2	-2.722283363E0
1.904797088E0	8.415589482E-2	-3.914846778E-1	-2.771818161E0
1.906115653E0	2.929477207E-2	-7.467503548E-1	-2.824016094E0
1.908889588E0	-1.864212751E-2	-1.128647685E0	-2.881540298E0
1.910454883E0	-5.060006306E-2	-1.522262931E0	-2.967826843E0
1.912958511E0	-5.645901710E-2	-1.939313889E0	-3.081277370E0
1.914172114E0	-3.515372798E-2	-2.361691236E0	-3.236273527E0
1.917016049E0	1.065264456E-2	-2.785666466E0	-3.433880091E0
1.918586306E0	7.936219871E-2	-3.197923899E0	-3.651193857E0
1.921148088E0	1.549959779E-1	-3.598995924E0	-3.895139456E0
1.922467422E0	2.396845073E-1	-3.984621763E0	-4.190217972E0
1.925240665E0	3.195793331E-1	-4.358529568E0	-4.516188622E0
1.926791076E0	4.085289240E-1	-4.704207897E0	-4.847486019E0
1.929292664E0	4.905542731E-1	-4.992894650E0	-5.142031670E0
1.930590806E0	5.704491138E-1	-5.224056721E0	-5.402488708E0
1.933349626E0	6.546050310E-1	-5.385977268E0	-5.627792358E0
1.934951691E0	7.936220169E-1	-5.532451153E0	-5.926066399E0
1.937419511E0	8.399610519E-1	-5.548962593E0	-6.021407127E0
1.938724806E0	9.294432402E-1	-5.529255390E0	-6.220611572E0
1.941477972E0	1.009338021E0	-5.439773083E0	-6.423012257E0
1.943190460E0	1.108940244E0	-5.217665195E0	-6.721818924E0
1.945556088E0	1.140898228E0	-5.122856617E0	-6.818225384E0
1.946812691E0	1.209075212E0	-4.932174206E0	-7.005178928E0
1.949613203E0	1.267664671E0	-4.742024899E0	-7.183078289E0
1.951458768E0	1.345961690E0	-4.457599163E0	-7.428621769E0
1.953695434E0	1.396029115E0	-4.261590481E0	-7.575628281E0
1.955024845E0	1.458347082E0	-4.045874596E0	-7.709318638E0
1.957753164E0	1.517469168E0	-3.824831963E0	-7.816910744E0
1.959066499E0	1.582450390E0	-3.598463297E0	-7.904262066E0
1.961811768E0	1.641039848E0	-3.374757767E0	-7.980428696E0
1.963471960E0	1.698031545E0	-3.131877422E0	-8.053399086E0
1.965976241E0	1.745435834E0	-2.870887756E0	-8.109858513E0
1.967650845E0	1.802960038E0	-2.579005241E0	-8.140218735E0
1.970013395E0	1.863680124E0	-2.283926964E0	-8.148207664E0
1.971645960E0	1.920139194E0	-1.987783432E0	-8.126902580E0
1.974070241E0	1.982457161E0	-1.682052612E0	-8.082694054E0
1.975753230E0	2.029861450E0	-1.435443878E0	-8.024104118E0
1.978153472E0	2.053297281E0	-1.244761467E0	-7.946872711E0
1.979404999E0	2.080461502E0	-1.049285531E0	-7.856325150E0
1.982210241E0	2.096973181E0	-8.660600185E-1	-7.755657673E0
1.983914691E0	2.104962587E0	-6.924219131E-1	-7.634750366E0
1.986286549E0	2.104429960E0	-5.193164349E-1	-7.507451057E0
1.987570922E0	2.099103689E0	-3.462109566E-1	-7.372695446E0
1.990343126E0	2.084722519E0	-1.688444167E-1	-7.224623680E0
1.991905806E0	2.055960417E0	8.841694891E-2	-6.981743336E0
1.994412357E0	2.046373129E0	1.731054783E-1	-6.889597893E0
1.995675191E0	2.017078161E0	3.387540877E-1	-6.696784973E0
1.998469280E0	1.983522415E0	5.033374429E-1	-6.481069088E0
2.000355653E0	1.927063346E0	7.270429730E-1	-6.127401352E0
2.002494268E0	1.910019159E0	7.978830934E-1	-6.010221958E0
2.003699883E0	1.870604396E0	9.384979606E-1	-5.766808987E0
2.006576241E0	1.829059124E0	1.083373904E0	-5.513276100E0
2.008133345E0	1.766741157E0	1.301220536E0	-5.126052380E0
2.010611703E0	1.749164224E0	1.372060657E0	-5.006742954E0
2.011778845E0	1.703890443E0	1.504153371E0	-4.782504559E0
2.014668587E0	1.646898866E0	1.645833611E0	-4.549744606E0
2.016206230E0	1.546764016E0	1.874332786E0	-4.172640800E0
2.018737164E0	1.466869116E0	2.022404671E0	-3.898335218E0
2.019902960E0	1.378452182E0	2.168878317E0	-3.610181332E0
2.022794626E0	1.288437366E0	2.310025930E0	-3.305515528E0
2.024473153E0	1.189900398E0	2.445847273E0	-2.994458437E0
2.026826318E0	1.079112887E0	2.566754818E0	-2.672215939E0
2.028001499E0	9.598032832E-1	2.678607464E0	-2.340918541E0
2.030882856E0	8.372978568E-1	2.793656111E0	-2.002697229E0
2.032449999E0	7.137271762E-1	2.903910875E0	-1.656486273E0
2.034951318E0	5.837649107E-1	3.008839369E0	-1.298557401E0
2.036180460E0	4.522047639E-1	3.107376337E0	-9.411611557E-1
2.039007626E0	3.131877482E-1	3.186738729E0	-5.709817410E-1
2.040351576E0	1.800296903E-1	3.246393442E0	-1.986718178E-1
2.043019229E0	5.006742850E-2	3.275155544E0	1.704423130E-1
2.044420806E0	-8.096009493E-2	3.266633511E0	5.342301130E-1
2.047228510E0	-2.045307755E-1	3.206445932E0	8.964200616E-1
2.048848383E0	-3.217098713E-1	3.086071014E0	1.251153111E0
2.051279356E0	-4.340952635E-1	2.915628910E0	1.590972424E0
2.052570422E0	-5.368933082E-1	2.694053888E0	1.920671821E0
2.055336356E0	-6.301039457E-1	2.452238798E0	2.224804878E0
2.056926768E0	-7.265103459E-1	2.035720348E0	2.640257835E0
2.059405049E0	-7.526093125E-1	1.887115955E0	2.762230635E0
2.060735383E0	-7.904262543E-1	1.572330356E0	2.992860556E0
2.063462049E0	-8.096010089E-1	1.242098331E0	3.196858644E0
2.065166076E0	-8.096010089E-1	7.238472104E-1	3.448793650E0
2.067538164E0	-8.016114831E-1	5.518069863E-1	3.514307499E0
2.068923460E0	-7.835019827E-1	2.162486911E-1	3.627758026E0
2.071594779E0	-7.547398806E-1	-1.043959185E-1	3.716175079E0
2.073193922E0	-7.142598033E-1	-5.629922748E-1	3.799265623E0
2.075677395E0	-6.865629554E-1	-8.591358066E-1	3.829625607E0
2.076968691E0	-6.727145314E-1	-1.004544377E0	3.837615252E0
2.079734395E0	-6.343649626E-1	-1.424791217E0	3.826962471E0
2.081067691E0	-6.151902080E-1	-1.687378883E0	3.799265623E0
2.083863664E0	-5.986786485E-1	-1.931324482E0	3.755057096E0
2.085103306E0	-5.832322836E-1	-2.151834249E0	3.694869757E0
2.087954972E0	-5.720469952E-1	-2.350506067E0	3.621366501E0
2.089524960E0	-5.661880374E-1	-2.524144173E0	3.536145449E0
2.091990702E0	-5.608617067E-1	-2.687662125E0	3.442402124E0
2.093216614E0	-5.581985712E-1	-2.837864399E0	3.342267275E0
2.096047895E0	-5.560680628E-1	-2.976348877E0	3.230947018E0
2.097672614E0	-5.566006899E-1	-3.104180574E0	3.117496490E0
2.100132048E0	-5.550028086E-1	-3.223490238E0	3.007241488E0
2.101367460E0	-5.502091050E-1	-3.317233562E0	2.901247740E0
2.104190279E0	-5.443501472E-1	-3.387541056E0	2.799515009E0
2.105838999E0	-5.326322317E-1	-3.432814598E0	2.704706430E0
2.108267433E0	-5.209143162E-1	-3.464240074E0	2.609365225E0
2.109632422E0	-5.033374429E-1	-3.479686260E0	2.515621901E0
2.112325202E0	-4.852279723E-1	-3.480218887E0	2.426672459E0
2.113909306E0	-4.569984376E-1	-3.461044312E0	2.337722778E0
2.116395241E0	-4.314320982E-1	-3.423759937E0	2.244512320E0
2.117586653E0	-4.021373391E-1	-3.373159885E0	2.152899504E0
2.120453356E0	-3.685815036E-1	-3.312439919E0	2.066612959E0
2.121949768E0	-3.371562064E-1	-3.241067171E0	1.976598144E0
2.124456576E0	-3.062635362E-1	-3.160106897E0	1.893507600E0
2.125867922E0	-2.732403278E-1	-3.071690083E0	1.810416937E0
2.128691894E0	-2.247707993E-1	-2.918824673E0	1.695368409E0
2.130470768E0	-1.944107562E-1	-2.803776026E0	1.626126170E0
2.132728587E0	-1.651159972E-1	-2.681270599E0	1.555818796E0
2.133963306E0	-1.416801661E-1	-2.550243139E0	1.489239693E0
2.136786356E0	-1.107875034E-1	-2.411226034E0	1.427986979E0
2.138464845E0	-8.522115648E-2	-2.262089014E0	1.367799520E0
2.140856664E0	-6.391586363E-2	-2.106027842E0	1.307612062E0
2.142109383E0	-3.036003746E-2	-1.926530719E0	1.245826840E0
2.144914856E0	3.728425596E-3	-1.735848427E0	1.186172009E0
2.146670268E0	3.142530099E-2	-1.540904999E0	1.127049804E0
2.148946894E0	5.699164793E-2	-1.352885842E0	1.071655989E0
2.150207922E0	7.882957160E-2	-1.161138296E0	1.014131784E0
2.153004433E0	9.906959534E-2	-9.667274952E-1	9.645969868E-1
2.154611268E0	1.118527651E-1	-7.829693556E-1	9.166600704E-1
2.157073356E0	1.161138266E-1	-6.167881489E-1	8.719189763E-1
2.158351691E0	1.118527651E-1	-4.617921412E-1	8.330367804E-1
2.161130779E0	1.075917110E-1	-3.126551211E-1	7.920241356E-1
2.162533191E0	9.960222989E-2	-1.672465205E-1	7.526093125E-1
2.165260741E0	9.001484513E-2	-3.036003746E-2	7.153250575E-1
2.166580922E0	8.415589482E-2	1.017327532E-1	6.833671331E-1
2.169352356E0	7.936219871E-2	2.242381722E-1	6.604639888E-1
2.170957268E0	6.657902896E-2	3.941478431E-1	6.295713186E-1
2.173403779E0	6.231797114E-2	4.447479248E-1	6.269081235E-1
2.174616691E0	5.592638254E-2	5.427522659E-1	6.199839115E-1
2.177460779E0	4.740426689E-2	6.301039457E-1	6.146575809E-1
2.179070460E0	3.621899337E-2	7.414240837E-1	6.311691999E-1
2.181529625E0	3.089267015E-2	7.685883045E-1	6.412891746E-1
2.182716806E0	2.183792181E-2	8.213189244E-1	6.578007936E-1
2.185586548E0	1.171790902E-2	8.575378656E-1	6.817692518E-1
2.187240652E0	0.000000000E0	8.900284767E-1	7.206513882E-1
2.189663652E0	-8.522115648E-3	8.916263580E-1	7.483482957E-1
2.190922768E0	-1.438106969E-2	8.825715780E-1	7.792409658E-1
2.193726548E0	-2.077265643E-2	8.639294505E-1	8.090683818E-1
2.195335999E0	-2.876213938E-2	8.319715261E-1	8.037420511E-1
2.197811010E0	-2.982740477E-2	7.898935676E-1	8.202536106E-1
2.198987114E0	-3.515372798E-2	7.366303802E-1	8.399610519E-1
2.201868356E0	-4.207794741E-2	6.759102941E-1	8.623315692E-1
2.203224152E0	-4.633900523E-2	6.061354876E-1	8.825715780E-1
2.205894845E0	-4.580637068E-2	5.384911895E-1	8.996158242E-1
2.207232076E0	-4.261057824E-2	4.628573954E-1	9.113337398E-1
2.210090240E0	-4.953479767E-2	3.733751774E-1	9.161274433E-1
2.211637845E0	-5.965480953E-2	2.727077007E-1	9.166600704E-1
2.214127202E0	-7.350324839E-2	1.576591432E-1	9.182579517E-1
2.215286768E0	-8.948221803E-2	3.728425503E-2	9.177253246E-1
2.218184356E0	-1.049285457E-1	-7.989483327E-2	9.155948162E-1
2.219745191E0	-1.187769845E-1	-1.938781291E-1	9.022790194E-1
2.222267586E0	-1.315601617E-1	-3.051982522E-1	8.857674003E-1
2.223422652E0	-1.390170157E-1	-4.063983858E-1	8.660600185E-1
2.226324971E0	-1.512675583E-1	-5.044026971E-1	8.356999755E-1
2.227995152E0	-1.640507281E-1	-6.428871155E-1	7.712514400E-1
2.230407202E0	-1.731054783E-1	-6.982808709E-1	7.446198463E-1
2.231579960E0	-1.917476058E-1	-8.181231022E-1	6.711165905E-1
2.234464433E0	-2.071939409E-1	-9.299758673E-1	5.789712071E-1
2.236017191E0	-2.178465873E-1	-1.054611802E0	4.346278906E-1
2.238533548E0	-2.114549875E-1	-1.076449752E0	3.946804702E-1
2.239704806E0	-1.869539171E-1	-1.079645514E0	3.318298757E-1
2.242590856E0	-1.486043930E-1	-1.035969734E0	2.865561247E-1
2.243890575E0	-6.072007492E-2	-8.756473660E-1	2.327602804E-1
2.246709229E0	8.522115648E-3	-7.206513882E-1	2.039981484E-1
2.247934268E0	7.936219871E-2	-5.502091050E-1	1.864212751E-1
2.250828317E0	1.422128081E-1	-3.760383427E-1	1.810949594E-1
2.252374037E0	1.960086524E-1	-2.125202566E-1	1.842907518E-1
2.254864548E0	2.402171344E-1	-6.764429063E-2	1.976065636E-1
2.256076729E0	2.684466541E-1	5.006742850E-2	2.109223604E-1
2.258921240E0	2.828277051E-1	1.422128081E-1	2.263686955E-1
2.260493345E0	2.860234976E-1	2.093244642E-1	2.455434501E-1
2.262990279E0	2.721750736E-1	2.535329461E-1	2.663161159E-1
2.264238729E0	2.556634545E-1	2.764361203E-1	2.822950780E-1
2.267047125E0	2.253034264E-1	2.860234976E-1	2.940129936E-1
2.268754768E0	1.896170676E-1	2.812298238E-1	3.057309091E-1
2.271076740E0	1.491370201E-1	2.759034932E-1	3.222424984E-1
2.272281037E0	1.038632840E-1	2.583266199E-1	3.382214606E-1
2.275133394E0	5.113269389E-2	2.322276533E-1	3.542004228E-1
2.276766037E0	-6.924218964E-3	1.960086524E-1	3.728425503E-1
2.279201394E0	-6.444849819E-2	1.502022892E-1	3.877562582E-1
2.280453345E0	-1.251685768E-1	1.006674916E-1	4.085289240E-1
2.283258125E0	-1.848233789E-1	4.687163606E-2	4.245078862E-1
2.284673768E0	-2.418150306E-1	-3.195793368E-3	4.452805519E-1
2.287263152E0	-2.870887816E-1	-4.687163606E-2	4.538026452E-1
2.288785922E0	-3.296993375E-1	-8.309062570E-2	4.591289759E-1
2.291478163E0	-3.621899188E-1	-1.113201380E-1	4.564658105E-1
2.293080960E0	-3.973436356E-1	-1.464738697E-1	4.452805519E-1
2.295529663E0	-4.053331316E-1	-1.533980817E-1	4.351605177E-1
2.296765806E0	-4.149205089E-1	-1.688444167E-1	4.197141826E-1
2.299587009E0	-4.191815555E-1	-1.778991669E-1	4.005394280E-1
2.301179652E0	-4.127899706E-1	-1.912149638E-1	3.632551730E-1
2.303656240E0	-4.032025933E-1	-1.970739216E-1	3.424825370E-1
2.304892306E0	-3.824299276E-1	-2.050634027E-1	3.238403797E-1
2.307713548E0	-3.589941263E-1	-2.055960447E-1	2.982740402E-1
2.309509652E0	-3.312972486E-1	-2.024002522E-1	2.748382390E-1
2.311792548E0	-3.009372056E-1	-1.944107562E-1	2.498045117E-1
2.312964422E0	-2.673813701E-1	-1.869539171E-1	2.247707993E-1
2.315850317E0	-2.359560728E-1	-1.869539171E-1	1.986718178E-1
2.317435422E0	-1.970739216E-1	-1.874865443E-1	1.693770438E-1
2.319934971E0	-1.672465205E-1	-2.008023560E-1	1.480717659E-1
2.321168268E0	-1.379517466E-1	-2.178465873E-1	1.235706806E-1
2.323993086E0	-1.118527651E-1	-2.391518652E-1	1.017327532E-1
2.325284729E0	-8.735168725E-2	-2.647182047E-1	7.723167539E-2
2.328123229E0	-6.391586363E-2	-2.881540358E-1	5.113269389E-2
2.329395845E0	-4.793690145E-2	-3.190467060E-1	2.769687586E-2
2.332215971E0	-3.675162420E-2	-3.467435837E-1	1.065264456E-3
2.333811652E0	-2.343581803E-2	-3.771036267E-1	-1.917476021E-2
2.336254240E0	-1.704423130E-2	-4.079962969E-1	-4.048004746E-2
2.337425114E0	-1.597896591E-2	-4.356931746E-1	-6.285060197E-2
2.340312163E0	-1.171790902E-2	-4.612595141E-1	-7.829693705E-2
2.341886652E0	-1.012001187E-2	-4.910869002E-1	-1.001348570E-1
2.344396048E0	-9.587380104E-3	-5.012069345E-1	-1.049285457E-1
2.345569306E0	-1.012001187E-2	-5.203816891E-1	-1.086569726E-1
2.348453663E0	-9.054748341E-3	-5.267732739E-1	-1.177117229E-1
2.350352845E0	-1.012001187E-2	-5.203816891E-1	-1.187769845E-1
2.352504778E0	-1.225054078E-2	-5.182511806E-1	-1.171790883E-1
2.353692922E0	-1.810949668E-2	-5.102616549E-1	-1.145159304E-1
2.356561586E0	-2.876213938E-2	-5.054680109E-1	-1.097222418E-1
2.358179422E0	-5.006742850E-2	-5.060006380E-1	-9.960222989E-2
2.360629278E0	-5.965480953E-2	-5.081311464E-1	-9.800432622E-2
2.361842691E0	-7.723167539E-2	-5.097290277E-1	-8.948221803E-2
2.364686278E0	-1.043959185E-1	-5.129248500E-1	-7.829693705E-2
2.366050498E0	-1.230380461E-1	-5.129248500E-1	-6.764429063E-2
2.368686806E0	-1.400822699E-1	-5.118595958E-1	-5.752427876E-2
2.370031537E0	-1.571265012E-1	-5.070658922E-1	-4.633900523E-2
2.372924817E0	-1.693770438E-1	-4.990763962E-1	-3.462109342E-2
2.374475652E0	-1.768338978E-1	-4.799016416E-1	-2.290318534E-2
2.376962855E0	-1.784317940E-1	-4.559331834E-1	-1.171790902E-2
2.378132614E0	-1.800296903E-1	-4.261057973E-1	5.326322280E-4
2.381021047E0	-1.789644361E-1	-3.936152160E-1	1.225054078E-2
2.382558191E0	-1.699096859E-1	-3.584614992E-1	2.183792181E-2
2.385090778E0	-1.475391239E-1	-2.940129936E-1	2.982740477E-2
2.386305575E0	-8.841694891E-2	-1.565938741E-1	1.970739290E-2
2.389148932E0	-4.048004746E-2	-4.740426689E-2	2.183792181E-2
2.390852883E0	-9.587380104E-3	1.544633508E-2	3.462109342E-2
2.393189240E0	1.384843793E-2	5.539375171E-2	5.326322466E-2
2.394370768E0	2.876213938E-2	7.510114461E-2	7.350324839E-2
2.397247278E0	4.420847446E-2	8.575379103E-2	1.027980223E-1
2.398804460E0	5.539375171E-2	9.108011425E-2	1.342233270E-1
2.401317663E0	7.403588295E-2	9.960222989E-2	1.709749401E-1
2.402640498E0	8.948221803E-2	1.198422536E-1	2.119876295E-1
2.405375470E0	1.102548689E-1	1.379517466E-1	2.593919039E-1
2.406722691E0	1.272991002E-1	1.533980817E-1	3.046656251E-1
2.409505817E0	1.395496428E-1	1.651159972E-1	3.462109566E-1
2.410876498E0	1.491370201E-1	1.683117896E-1	3.850930929E-1
2.413599393E0	1.571265012E-1	1.736381054E-1	4.170510471E-1
2.415205114E0	1.715075821E-1	1.890844405E-1	4.617921412E-1
2.417651740E0	1.768338978E-1	1.997370869E-1	4.825648069E-1
2.418903268E0	1.821602285E-1	2.125202566E-1	4.990763962E-1
2.421709047E0	1.832254827E-1	2.189118415E-1	5.166532397E-1
2.423268537E0	1.800296903E-1	2.162486911E-1	5.241101384E-1
2.425779932E0	1.725728363E-1	2.055960447E-1	5.273059011E-1
2.427173306E0	1.645833552E-1	1.928128600E-1	5.299690962E-1
2.429837124E0	1.587243974E-1	1.805623323E-1	5.267732739E-1
2.431581345E0	1.507349163E-1	1.619201899E-1	5.241101384E-1
2.433887393E0	1.411475390E-1	1.432780623E-1	5.209143162E-1
2.435091422E0	1.374191195E-1	1.294296384E-1	5.129248500E-1
2.437944355E0	1.379517466E-1	1.182443574E-1	5.054680109E-1
2.439504075E0	1.347559541E-1	1.017327532E-1	5.028048158E-1
2.442028201E0	1.304948926E-1	8.255799860E-2	4.985437691E-1
2.443217345E0	1.246359423E-1	5.060006306E-2	4.942827225E-1
2.446084701E0	1.177117229E-1	2.077265643E-2	4.868258536E-1
2.447389114E0	1.134506613E-1	-5.858954508E-3	4.825648069E-1
2.450197268E0	1.065264493E-1	-3.568635881E-2	4.735100567E-1
2.451534498E0	9.693906456E-2	-6.391586363E-2	4.628573954E-1
2.454307316E0	9.427590668E-2	-8.894958347E-2	4.516721368E-1
2.455881037E0	8.415589482E-2	-1.214401498E-1	4.351605177E-1
2.458344893E0	8.042746782E-2	-1.283643693E-1	4.314320982E-1
2.459546191E0	7.563377917E-2	-1.400822699E-1	4.213120937E-1
2.462402047E0	7.190535218E-2	-1.491370201E-1	4.095941782E-1
2.463966152E0	6.924218684E-2	-1.592570394E-1	3.962783813E-1
2.466484739E0	6.764429063E-2	-1.592570394E-1	3.872236311E-1
2.467695921E0	6.870955974E-2	-1.619201899E-1	3.755057156E-1
2.470541932E0	6.498113275E-2	-1.624528319E-1	3.659183383E-1
2.472212806E0	5.752427876E-2	-1.571265012E-1	3.568635881E-1
2.474600162E0	5.432848632E-2	-1.565938741E-1	3.552657068E-1
2.475810191E0	4.687163606E-2	-1.549959779E-1	3.494067490E-1
2.478656893E0	3.195793182E-2	-1.539307088E-1	3.494067490E-1
2.480354883E0	2.077265643E-2	-1.480717659E-1	3.504720032E-1
2.482725470E0	1.491370238E-2	-1.379517466E-1	3.547330499E-1
2.483950614E0	6.924218964E-3	-1.187769845E-1	3.563309610E-1
2.486782355E0	7.989482954E-3	-8.735168725E-2	3.568635881E-1
2.488337229E0	8.522115648E-3	-4.314320907E-2	3.499393761E-1
2.490921383E0	1.278317347E-2	6.391586736E-3	3.414172530E-1
2.492268998E0	1.651159860E-2	5.699164793E-2	3.291667104E-1
2.495017855E0	2.503371425E-2	1.171790883E-1	3.121224940E-1
2.496578037E0	3.621899337E-2	1.938781291E-1	2.892192900E-1
2.499053393E0	5.060006306E-2	2.732403278E-1	2.593919039E-1
2.500534383E0	6.657902896E-2	3.504720032E-1	2.290318608E-1
2.503110855E0	8.042746782E-2	4.266384244E-1	1.832254827E-1
2.504692845E0	9.800432622E-2	5.022721887E-1	1.448759735E-1
2.507179739E0	1.155811921E-1	5.752428174E-1	1.012001261E-1
2.508485691E0	1.331580579E-1	6.466155052E-1	5.432848632E-2
2.511236970E0	1.486043930E-1	7.169229984E-1	7.456851192E-3
2.512943306E0	1.778991669E-1	8.271778226E-1	-6.231797114E-2
2.515284355E0	1.906823367E-1	8.644620776E-1	-8.628641814E-2
2.516533345E0	2.151834220E-1	9.454222322E-1	-1.331580579E-1
2.519342162E0	2.428802997E-1	1.030110717E0	-1.794970632E-1
2.520956921E0	2.838929892E-1	1.143561363E0	-2.418150306E-1
2.523409508E0	2.950782478E-1	1.177649856E0	-2.604571581E-1
2.524621921E0	3.201119602E-1	1.242630959E0	-2.982740402E-1
2.527467470E0	3.478088379E-1	1.311340570E0	-3.307646215E-1
2.528770037E0	3.723099232E-1	1.372593284E0	-3.605920076E-1
2.531465229E0	3.978762627E-1	1.424258590E0	-3.850930929E-1
2.532874537E0	4.197141826E-1	1.464205980E0	-4.053331316E-1
2.535690931E0	4.463458061E-1	1.521730304E0	-4.239752591E-1
2.537307152E0	4.628573954E-1	1.552090287E0	-4.287689328E-1
2.539741854E0	4.830974340E-1	1.589907169E0	-4.319647253E-1
2.540941614E0	5.129248500E-1	1.644235730E0	-4.314320982E-1
2.543799816E0	5.422195792E-1	1.701759934E0	-4.298342168E-1
2.545370498E0	5.656554103E-1	1.743305326E0	-4.277036786E-1
2.547870816E0	5.773733258E-1	1.743837953E0	-4.101268053E-1
2.549050998E0	6.029396653E-1	1.774197936E0	-3.739078343E-1
2.551928662E0	6.167881489E-1	1.773665309E0	-3.605920076E-1
2.553621806E0	6.135923266E-1	1.714543104E0	-3.526025414E-1
2.556012624E0	6.077333689E-1	1.633583069E0	-3.398193717E-1
2.557229537E0	5.997439027E-1	1.541437626E0	-3.190467060E-1
2.560069893E0	5.965480804E-1	1.445563912E0	-3.025351167E-1
2.561675152E0	6.034722924E-1	1.365136385E0	-3.036003709E-1
2.564154508E0	6.045376062E-1	1.280447841E0	-2.945456207E-1
2.565379114E0	5.997439027E-1	1.188302517E0	-2.945456207E-1
2.568212124E0	6.135923266E-1	1.130778193E0	-2.902845740E-1
2.569527998E0	6.317018270E-1	1.074851871E0	-2.753708661E-1
2.572342662E0	6.508765817E-1	1.021055937E0	-2.668487430E-1
2.573599229E0	6.673882008E-1	9.608685374E-1	-2.620550692E-1
2.576435739E0	6.732471585E-1	8.767126203E-1	-2.551308274E-1
2.578033844E0	6.679208279E-1	7.179882526E-1	-2.466087192E-1
2.580473085E0	6.609966159E-1	6.530070901E-1	-2.418150306E-1
2.581670383E0	6.412891746E-1	5.044026971E-1	-2.284992188E-1
2.584531124E0	6.114618182E-1	3.419498801E-1	-2.114549875E-1
2.586109306E0	5.635249019E-1	1.059938148E-1	-1.906823367E-1
2.588616316E0	5.432848930E-1	3.568635881E-2	-1.853560209E-1
2.589862537E0	5.187838078E-1	-7.882957160E-2	-1.693770438E-1
2.592674431E0	4.942827225E-1	-2.087918371E-1	-1.581917703E-1
2.594400691E0	4.857605994E-1	-2.593919039E-1	-1.549959779E-1
2.596733931E0	4.830974340E-1	-2.844256163E-1	-1.448759735E-1
2.597963191E0	4.772384763E-1	-2.940129936E-1	-1.257012039E-1
2.600792008E0	4.761732221E-1	-2.817624509E-1	-1.033306494E-1
2.602501652E0	4.713795185E-1	-2.588592768E-1	-8.415589482E-2
2.604828816E0	4.687163532E-1	-2.221076339E-1	-6.231797114E-2
2.606111306E0	4.596616030E-1	-1.896170676E-1	-3.834952042E-2
2.608886470E0	4.388889670E-1	-1.853560209E-1	-1.810949668E-2
2.610254652E0	4.090615511E-1	-2.103897333E-1	-2.130528912E-3
2.612892498E0	3.659183383E-1	-2.668487430E-1	1.438106969E-2
2.614500344E0	3.249056637E-1	-3.222424984E-1	1.491370238E-2
2.617125123E0	2.945456207E-1	-3.510046303E-1	2.130528912E-2
2.618727460E0	2.881540358E-1	-3.227751255E-1	3.089267015E-2
2.621161816E0	3.025351167E-1	-2.295644879E-1	5.060006306E-2
2.622509998E0	3.275688291E-1	-1.129180342E-1	7.190535218E-2
2.625219431E0	3.510046303E-1	4.261057824E-3	9.640643001E-2
2.626861768E0	3.733751774E-1	1.203748807E-1	1.182443574E-1
2.629287739E0	3.872236311E-1	2.178465873E-1	1.400822699E-1
2.630520344E0	4.026699662E-1	3.067961633E-1	1.533980817E-1
2.633344893E0	4.143878818E-1	3.877562582E-1	1.661812514E-1
2.635122114E0	4.277036786E-1	5.001416802E-1	1.709749401E-1
2.637385662E0	4.314320982E-1	5.400890708E-1	1.725728363E-1
2.638691729E0	4.372910559E-1	6.119944453E-1	1.640507281E-1
2.641443393E0	4.420847595E-1	6.812366247E-1	1.496696621E-1
2.643070691E0	4.388889670E-1	7.627293468E-1	1.272991002E-1
2.645479393E0	4.335626364E-1	7.835019827E-1	1.209075153E-1
2.646918191E0	4.127899706E-1	8.080030680E-1	1.081243455E-1
2.649536816E0	3.840278387E-1	8.058725595E-1	9.960222989E-2
2.651063652E0	3.366235793E-1	7.978830934E-1	9.161274135E-2
2.653666546E0	3.062635362E-1	8.016114831E-1	8.894958347E-2
2.655046575E0	2.775014043E-1	8.127967715E-1	9.214537591E-2
2.657759046E0	2.556634545E-1	8.341020942E-1	9.534116834E-2
2.659522652E0	2.247707993E-1	8.527442217E-1	1.086569726E-1
2.661810585E0	1.944107562E-1	8.724516034E-1	1.257012039E-1
2.663517537E0	1.661812514E-1	9.001484513E-1	1.507349163E-1
2.665868700E0	1.454086006E-1	9.411611557E-1	1.794970632E-1
2.667509998E0	1.193096191E-1	9.789780378E-1	2.119876295E-1
2.669937931E0	9.960222989E-2	1.023719192E0	2.476739883E-1
2.671174344E0	7.829693705E-2	1.071123362E0	2.849582434E-1
2.673995546E0	5.912217870E-2	1.116929770E0	3.233077526E-1
2.675793191E0	3.515372798E-2	1.151550889E0	3.573962152E-1
2.678046623E0	1.438106969E-2	1.190433025E0	3.946804702E-1
2.679300767E0	-5.858954508E-3	1.229847789E0	4.287689328E-1
2.682105123E0	-2.290318534E-2	1.272991061E0	4.633900523E-1
2.683806921E0	-3.834952042E-2	1.323058486E0	4.974785149E-1
2.686189469E0	-5.592638254E-2	1.365669012E0	5.299690962E-1
2.687654729E0	-7.243798673E-2	1.401355386E0	5.608617067E-1
2.690247931E0	-8.735168725E-2	1.435976505E0	5.864281058E-1
2.691679075E0	-1.102548689E-1	1.454085946E0	6.061354876E-1
2.694379392E0	-1.257012039E-1	1.466336489E0	6.231797338E-1
2.695797767E0	-1.390170157E-1	1.476456523E0	6.343649626E-1
2.698472162E0	-1.512675583E-1	1.472195506E0	6.396912932E-1
2.700255537E0	-1.763012707E-1	1.430117488E0	6.375607848E-1
2.702509008E0	-1.853560209E-1	1.408279657E0	6.343649626E-1
2.703971191E0	-1.928128600E-1	1.363538504E0	6.226470470E-1
2.706566662E0	-2.034655064E-1	1.308677435E0	6.050702333E-1
2.708174691E0	-2.119876295E-1	1.205346704E0	5.704491138E-1
2.710650662E0	-2.205097377E-1	1.121190786E0	5.416869521E-1
2.712081383E0	-2.290318608E-1	1.024251819E0	5.118595958E-1
2.714708892E0	-2.332929224E-1	9.262474179E-1	4.825648069E-1
2.716509306E0	-2.386192381E-1	8.245146871E-1	4.468784332E-1
2.718759738E0	-2.428802997E-1	7.195861340E-1	4.127899706E-1
2.720006806E0	-2.455434501E-1	6.162554622E-1	3.691141307E-1
2.722817854E0	-2.439455539E-1	5.097290277E-1	3.275688291E-1
2.724386537E0	-2.370213419E-1	4.042678475E-1	2.806971967E-1
2.726887892E0	-2.279665917E-1	2.988066673E-1	2.311623842E-1
2.728120844E0	-2.119876295E-1	1.933455020E-1	1.810949594E-1
2.730945200E0	-1.960086524E-1	8.362326026E-2	1.225054115E-1
2.732301691E0	-1.778991669E-1	-2.396845073E-2	6.604639441E-2
2.735076075E0	-1.581917703E-1	-1.342233270E-1	3.195793368E-3
2.736295229E0	-1.363538504E-1	-2.311623842E-1	-6.285060197E-2
2.739183354E0	-1.102548689E-1	-3.233077526E-1	-1.278317273E-1
2.740731460E0	-8.948221803E-2	-4.095941782E-1	-1.949433982E-1
2.743220161E0	-6.711166352E-2	-4.868258536E-1	-2.545982003E-1
2.744442767E0	-4.846953228E-2	-5.534048676E-1	-3.137203753E-1
2.747277931E0	-3.036003746E-2	-6.077333689E-1	-3.643204570E-1
2.748810498E0	-1.171790902E-2	-6.769755483E-1	-4.399542212E-1
2.751348084E0	-7.456851192E-3	-6.961503029E-1	-4.617921412E-1
2.752514229E0	-5.326322280E-3	-7.259777188E-1	-5.012069345E-1
2.755405277E0	-5.326322280E-4	-7.515440583E-1	-5.368933082E-1
2.757147267E0	-7.989482954E-3	-7.797735929E-1	-5.773733258E-1
2.759443084E0	-1.384843793E-2	-7.877630591E-1	-5.821670294E-1
2.760602921E0	-2.183792181E-2	-7.978830934E-1	-5.960154533E-1
2.763500507E0	-3.675162420E-2	-8.080030680E-1	-6.093312502E-1
2.765038114E0	-6.498113275E-2	-8.202536106E-1	-6.311691999E-1
2.767571277E0	-7.403588295E-2	-8.255799413E-1	-6.391586661E-1
2.768755498E0	-1.006674916E-1	-8.378304839E-1	-6.562029123E-1
2.771628469E0	-1.427454352E-1	-8.633968234E-1	-6.796387434E-1
2.772968767E0	-1.736381054E-1	-8.831042051E-1	-6.956176758E-1
2.775541460E0	-2.034655064E-1	-9.038769007E-1	-7.025418878E-1
2.776965229E0	-2.343581766E-1	-9.214537740E-1	-7.073355913E-1
2.779850507E0	-2.673813701E-1	-9.369000793E-1	-7.094660997E-1
2.781422844E0	-2.972087860E-1	-9.486179948E-1	-7.099987864E-1
2.783902546E0	-3.227751255E-1	-9.571400881E-1	-7.142598033E-1
2.785109460E0	-3.563309610E-1	-9.688580036E-1	-7.089334726E-1
2.787959354E0	-3.866910040E-1	-9.875001311E-1	-7.052050829E-1
2.789558537E0	-4.202468395E-1	-1.012533903E0	-6.977482438E-1
2.791996161E0	-4.500742257E-1	-1.035969734E0	-6.908239722E-1
2.793193575E0	-4.836300611E-1	-1.062601328E0	-6.870955825E-1
2.796053277E0	-5.091964006E-1	-1.086569786E0	-6.886934638E-1
2.797760575E0	-5.368933082E-1	-1.111603498E0	-6.897587180E-1
2.800111853E0	-5.629922748E-1	-1.132376075E0	-6.870955825E-1
2.801323537E0	-5.864281058E-1	-1.151550889E0	-6.961503029E-1
2.804168469E0	-6.061354876E-1	-1.171790957E0	-7.062703371E-1
2.805762998E0	-6.242449880E-1	-1.190433025E0	-7.174556255E-1
2.808252930E0	-6.412891746E-1	-1.208009839E0	-7.318366766E-1
2.809454690E0	-6.572681665E-1	-1.226652026E0	-7.398261428E-1
2.812309892E0	-6.663229465E-1	-1.245826840E0	-7.462177277E-1
2.813598421E0	-6.727145314E-1	-1.268197298E0	-7.382282615E-1
2.816436537E0	-6.780408025E-1	-1.296959519E0	-7.217166424E-1
2.817673460E0	-6.807039976E-1	-1.328384757E0	-6.993461251E-1
2.820534892E0	-6.828345060E-1	-1.352885842E0	-6.785734296E-1
2.822140152E0	-6.732471585E-1	-1.364071131E0	-6.482134461E-1
2.824571853E0	-6.716492176E-1	-1.366734266E0	-6.391586661E-1
2.825772960E0	-6.647250056E-1	-1.385909081E0	-6.189186573E-1
2.828629930E0	-6.578007936E-1	-1.405083776E0	-6.002765298E-1
2.830436614E0	-6.455502510E-1	-1.407214403E0	-5.938849449E-1
2.832714892E0	-6.380934119E-1	-1.410942793E0	-5.890912414E-1
2.833924460E0	-6.301039457E-1	-1.415736437E0	-5.917543769E-1
2.836772930E0	-6.210491657E-1	-1.422128081E0	-5.896238685E-1
2.838691114E0	-6.130596995E-1	-1.424791217E0	-5.992112756E-1
2.840835584E0	-6.056028605E-1	-1.431182742E0	-6.119944453E-1
2.842013729E0	-6.018744111E-1	-1.445563912E0	-6.183860302E-1
2.844893392E0	-5.981460214E-1	-1.463140726E0	-6.322344542E-1
2.846583883E0	-5.922870636E-1	-1.482315540E0	-6.407565475E-1
2.848962161E0	-5.885586143E-1	-1.499892354E0	-6.519418359E-1
2.850172152E0	-5.858954787E-1	-1.518001795E0	-6.647250056E-1
2.853020161E0	-5.741775632E-1	-1.520132422E0	-6.764429212E-1
2.854445152E0	-5.629922748E-1	-1.523328185E0	-6.892260909E-1
2.857011729E0	-5.528722405E-1	-1.525458694E0	-7.089334726E-1
2.858513344E0	-5.299690962E-1	-1.494033456E0	-7.238472104E-1
2.861259007E0	-5.044026971E-1	-1.455151200E0	-7.414240837E-1
2.862840498E0	-4.756405652E-1	-1.433845997E0	-7.653924823E-1
2.865296776E0	-4.687163532E-1	-1.441302776E0	-7.739146352E-1
2.866497229E0	-4.697816372E-1	-1.480717540E0	-7.877630591E-1
2.869354815E0	-4.788363874E-1	-1.545698762E0	-7.989483476E-1
2.870909421E0	-5.017395616E-1	-1.667671561E0	-8.010788560E-1
2.873425699E0	-5.097290277E-1	-1.704423189E0	-7.978830934E-1
2.874645844E0	-5.235774517E-1	-1.776328444E0	-7.882956862E-1
2.877483661E0	-5.331648588E-1	-1.841842294E0	-7.771103978E-1
2.879228114E0	-5.448827744E-1	-1.927063346E0	-7.515440583E-1
2.881523276E0	-5.480785370E-1	-1.952097058E0	-7.435545921E-1
2.882785421E0	-5.406216979E-1	-1.976065516E0	-7.163903713E-1
2.885581892E0	-5.289037824E-1	-1.979794025E0	-6.828345060E-1
2.887285690E0	-5.150553584E-1	-1.987783432E0	-6.343649626E-1
2.889651892E0	-4.942827225E-1	-1.969673991E0	-5.890912414E-1
2.890885421E0	-4.729774296E-1	-1.939313889E0	-5.486112237E-1
2.893710699E0	-4.452805519E-1	-1.898301244E0	-5.012069345E-1
2.895078383E0	-4.165183902E-1	-1.843972802E0	-4.601942301E-1
2.897841853E0	-3.893541694E-1	-1.785915852E0	-4.239752591E-1
2.899249729E0	-3.510046303E-1	-1.706553698E0	-3.888215125E-1
2.901934584E0	-3.169161677E-1	-1.621865153E0	-3.616572917E-1
2.903556575E0	-2.790992856E-1	-1.531850338E0	-3.446130455E-1
2.905986738E0	-2.434129268E-1	-1.438639641E0	-3.392867148E-1
2.907251190E0	-2.146507949E-1	-1.357146859E0	-3.414172530E-1
2.910044892E0	-1.842907518E-1	-1.271925807E0	-3.440804183E-1
2.911667421E0	-1.555286050E-1	-1.190965652E0	-3.579288721E-1
2.914114045E0	-1.272991002E-1	-1.113734007E0	-3.824299276E-1
2.915318075E0	-1.075917110E-1	-1.043426514E0	-4.138552547E-1
2.918172238E0	-8.522115648E-2	-9.843043685E-1	-4.506068528E-1
2.919867921E0	-7.350324839E-2	-9.123989940E-1	-5.203816891E-1
2.922248584E0	-6.764429063E-2	-8.884305358E-1	-5.448827744E-1
2.923537998E0	-6.018744037E-2	-8.420915604E-1	-5.906891227E-1
2.926306584E0	-5.752427876E-2	-8.037420511E-1	-6.301039457E-1
2.928013575E0	-6.178534031E-2	-7.653924823E-1	-6.817692518E-1
2.930391315E0	-6.657902896E-2	-7.563377619E-1	-7.014766335E-1
2.931710498E0	-7.510114461E-2	-7.430219650E-1	-7.249124646E-1
2.934449891E0	-8.735168725E-2	-7.334345579E-1	-7.414240837E-1
2.935784306E0	-1.038632840E-1	-7.350324988E-1	-7.504788041E-1
2.938560575E0	-1.379517466E-1	-7.568703890E-1	-7.462177277E-1
2.939941613E0	-1.613875628E-1	-7.797735929E-1	-7.281082273E-1
2.942674045E0	-1.896170676E-1	-8.096010089E-1	-7.062703371E-1
2.944303229E0	-2.167813182E-1	-8.436894417E-1	-6.807039976E-1
2.946743661E0	-2.476739883E-1	-8.777779341E-1	-6.492787004E-1
2.948124998E0	-2.796319127E-1	-9.118663669E-1	-6.183860302E-1
2.950801622E0	-3.115898669E-1	-9.475527406E-1	-5.837649107E-1
2.952531267E0	-3.451456726E-1	-9.821738005E-1	-5.486112237E-1
2.954885545E0	-3.744404614E-1	-1.016794920E0	-5.161206126E-1
2.956108921E0	-4.069310129E-1	-1.045024395E0	-4.799016416E-1
2.958943814E0	-4.367584288E-1	-1.073253989E0	-4.436826408E-1
2.960738729E0	-4.665858448E-1	-1.097222447E0	-4.143878818E-1
2.963027122E0	-4.905542731E-1	-1.114799261E0	-3.771036267E-1
2.964249960E0	-5.118595958E-1	-1.131843448E0	-3.504720032E-1
2.967085507E0	-5.336974859E-1	-1.146224499E0	-3.158509135E-1
2.968685498E0	-5.480785370E-1	-1.152616143E0	-2.817624509E-1
2.971155545E0	-5.635249019E-1	-1.157942414E0	-2.503371537E-1
2.972467998E0	-5.693838596E-1	-1.155811906E0	-2.151834220E-1
2.975213391E0	-5.763080716E-1	-1.148355126E0	-1.826928556E-1
2.976902806E0	-5.752428174E-1	-1.138767719E0	-1.496696621E-1
2.979360314E0	-5.752428174E-1	-1.120125532E0	-1.161138266E-1
2.980633844E0	-5.683186054E-1	-1.105744481E0	-8.255799860E-2
2.983453237E0	-5.624596477E-1	-1.087102413E0	-4.846953228E-2
2.985034537E0	-5.464806557E-1	-1.054611802E0	-2.663161140E-3
2.987489699E0	-5.406216979E-1	-1.045024395E0	1.278317347E-2
2.988704306E0	-5.278385282E-1	-1.023719192E0	4.474110901E-2
2.991547776E0	-5.123922229E-1	-9.981527925E-1	7.350324839E-2
2.993190421E0	-4.900216460E-1	-9.693906307E-1	1.177117229E-1
2.995618007E0	-4.745753109E-1	-9.539443254E-1	1.427454352E-1
2.996863883E0	-4.639226794E-1	-9.475527406E-1	1.683117896E-1
2.999675391E0	-4.500742257E-1	-9.416937828E-1	1.922802329E-1
3.001452152E0	-4.378236830E-1	-9.395632744E-1	2.098570913E-1
3.003712353E0	-4.218447208E-1	-9.331716895E-1	2.247707993E-1
3.004946267E0	-4.090615511E-1	-9.347695708E-1	2.391518652E-1
3.007770199E0	-3.968110085E-1	-9.337043166E-1	2.412824035E-1
3.009431960E0	-3.861583769E-1	-9.347695708E-1	2.370213419E-1
3.011839737E0	-3.749730885E-1	-9.374327064E-1	2.300971150E-1
3.013279652E0	-3.669835925E-1	-9.454222322E-1	2.162486911E-1
3.015898045E0	-3.605920076E-1	-9.592706561E-1	1.917476058E-1
3.017220498E0	-3.552657068E-1	-9.784454107E-1	1.640507281E-1
3.019927421E0	-3.568635881E-1	-1.003479123E0	1.241033077E-1
3.021454883E0	-3.616572917E-1	-1.032241225E0	8.202536404E-2
3.024124353E0	-3.669835925E-1	-1.068992853E0	3.621899337E-2
3.025779767E0	-3.771036267E-1	-1.105211854E0	-2.663161140E-3
3.028176006E0	-3.840278387E-1	-1.148887753E0	-4.420847446E-2
3.029483536E0	-3.957457542E-1	-1.190433025E0	-7.829693705E-2
3.032234622E0	-4.090615511E-1	-1.227717280E0	-1.038632840E-1
3.033940075E0	-4.229099751E-1	-1.263936281E0	-1.299622655E-1
3.036304929E0	-4.367584288E-1	-1.297492146E0	-1.512675583E-1
3.037794844E0	-4.452805519E-1	-1.310807943E0	-1.624528319E-1
3.040363276E0	-4.484763443E-1	-1.316666842E0	-1.629854590E-1
3.042219190E0	-4.511395097E-1	-1.303351045E0	-1.502022892E-1
3.044421353E0	-4.511395097E-1	-1.297492146E0	-1.411475390E-1
3.045720998E0	-4.447479248E-1	-1.272991061E0	-1.267664731E-1
3.048478583E0	-4.372910559E-1	-1.238902569E0	-1.134506613E-1
3.050143383E0	-4.223773479E-1	-1.174986720E0	-9.534116834E-2
3.052563506E0	-4.149205089E-1	-1.148355126E0	-8.788431436E-2
3.054093498E0	-3.962783813E-1	-1.091363430E0	-8.202536404E-2
3.056621737E0	-3.701793849E-1	-1.014664412E0	-7.616640627E-2
3.058151998E0	-3.542004228E-1	-9.651296139E-1	-7.243798673E-2
3.060753199E0	-3.366235793E-1	-9.177253246E-1	-7.510114461E-2
3.062246229E0	-3.185140789E-1	-8.708537221E-1	-7.723167539E-2
3.064846122E0	-2.998719513E-1	-8.293083906E-1	-8.735168725E-2
3.066466306E0	-2.838929892E-1	-8.037420511E-1	-1.006674916E-1
3.068883429E0	-2.716424465E-1	-7.824367285E-1	-1.118527651E-1
3.070200536E0	-2.588592768E-1	-7.685883045E-1	-1.251685768E-1
3.072942391E0	-2.444781959E-1	-7.621967196E-1	-1.390170157E-1
3.074716652E0	-2.306297570E-1	-7.552725077E-1	-1.491370201E-1
3.077028237E0	-2.205097377E-1	-7.472830415E-1	-1.581917703E-1
3.078382690E0	-2.066612989E-1	-7.424893379E-1	-1.667138934E-1
3.081086506E0	-2.002697140E-1	-7.382282615E-1	-1.752360016E-1
3.082864729E0	-1.896170676E-1	-7.313040495E-1	-1.826928556E-1
3.085145160E0	-1.810949594E-1	-7.259777188E-1	-1.858886480E-1
3.086403729E0	-1.725728363E-1	-7.201187611E-1	-1.896170676E-1
3.089203775E0	-1.677791476E-1	-7.206513882E-1	-1.917476058E-1
3.090875075E0	-1.629854590E-1	-7.206513882E-1	-1.922802329E-1
3.093273775E0	-1.603222936E-1	-7.227819562E-1	-1.848233789E-1
3.094567383E0	-1.624528319E-1	-7.265103459E-1	-1.757686287E-1
3.097331775E0	-1.613875628E-1	-7.318366766E-1	-1.640507281E-1
3.098722152E0	-1.635181010E-1	-7.387608886E-1	-1.528654546E-1
3.101345459E0	-1.651159972E-1	-7.494135499E-1	-1.395496428E-1
3.102774229E0	-1.704423130E-1	-7.558051348E-1	-1.278317273E-1
3.105572429E0	-1.789644361E-1	-7.707188129E-1	-1.129180342E-1
3.107191152E0	-1.864212751E-1	-7.803062201E-1	-1.065264493E-1
3.109610737E0	-1.960086524E-1	-7.909588814E-1	-1.038632840E-1
3.110895652E0	-2.024002522E-1	-8.053399324E-1	-9.853696078E-2
3.113669122E0	-2.162486911E-1	-8.149272799E-1	-9.161274135E-2
3.115290306E0	-2.210423797E-1	-8.202536106E-1	-8.255799860E-2
3.117739352E0	-2.348908186E-1	-8.282431364E-1	-7.616640627E-2
3.119025959E0	-2.466087192E-1	-8.330367804E-1	-6.870955974E-2
3.121797468E0	-2.604571581E-1	-8.362326026E-1	-6.711166352E-2
3.123538998E0	-2.721750736E-1	-8.415589333E-1	-6.604639441E-2
3.125845006E0	-2.860234976E-1	-8.372978568E-1	-6.817692518E-2
3.127101844E0	-2.966761589E-1	-8.399610519E-1	-7.403588295E-2
3.129902852E0	-3.067961633E-1	-8.330367804E-1	-7.137271762E-2
3.131532229E0	-3.121224940E-1	-8.293083906E-1	-6.338323653E-2
3.133971237E0	-3.126551211E-1	-8.159925938E-1	-5.273059011E-2
3.135244383E0	-3.174487948E-1	-8.021441102E-1	-4.261057824E-2
3.138029121E0	-3.142530024E-1	-7.803062201E-1	-2.769687586E-2
3.139511190E0	-3.089267015E-1	-7.488809228E-1	-5.326322280E-3
3.142160237E0	-2.998719513E-1	-7.179882526E-1	1.065264456E-2
3.143823383E0	-2.908172011E-1	-6.950850487E-1	2.663161233E-2
3.146252698E0	-2.801645398E-1	-6.631271243E-1	3.994741663E-2
3.147878498E0	-2.551308274E-1	-6.119944453E-1	6.977482140E-2
3.150305160E0	-2.466087192E-1	-5.965480804E-1	7.669904083E-2
3.151603459E0	-2.258360684E-1	-5.667206645E-1	8.894958347E-2
3.154363044E0	-2.050634027E-1	-5.352953672E-1	1.022653878E-1
3.156027306E0	-1.688444167E-1	-4.916195571E-1	1.230380461E-1
3.158432698E0	-1.565938741E-1	-4.751079381E-1	1.283643693E-1
3.159649421E0	-1.352885813E-1	-4.404868484E-1	1.422128081E-1
3.162490044E0	-1.123853996E-1	-4.074636400E-1	1.565938741E-1
3.164212459E0	-7.989483327E-2	-3.797667921E-1	1.731054783E-1
3.166547660E0	-7.723167539E-2	-3.776362538E-1	1.768338978E-1
3.167785229E0	-6.711166352E-2	-3.797667921E-1	1.800296903E-1
3.170605467E0	-6.764429063E-2	-4.197141826E-1	1.565938741E-1
3.172332806E0	-7.563377917E-2	-4.617921412E-1	1.001348570E-1
3.174688621E0	-8.735168725E-2	-5.123922229E-1	6.125270575E-2
3.176010921E0	-9.906959534E-2	-5.741775632E-1	2.929477207E-2
3.178745737E0	-1.155811921E-1	-6.434197426E-1	6.924218964E-3
3.180164652E0	-1.320927888E-1	-7.153250575E-1	-3.728425596E-3
3.182808921E0	-1.470064968E-1	-7.914915085E-1	-2.663161140E-3
3.184301459E0	-1.635181010E-1	-8.607336879E-1	5.326322280E-3
3.186968352E0	-1.789644361E-1	-9.203884602E-1	2.609897964E-2
3.188814883E0	-1.858886480E-1	-9.566074610E-1	5.326322466E-2
3.191004929E0	-1.800296903E-1	-9.614011645E-1	8.681905270E-2
3.192261036E0	-1.752360016E-1	-9.629990458E-1	1.182443574E-1
3.195063121E0	-1.640507281E-1	-9.464874864E-1	1.432780623E-1
3.196707036E0	-1.486043930E-1	-9.097358584E-1	1.613875628E-1
3.199147698E0	-1.283643693E-1	-8.532768488E-1	1.688444167E-1
3.200598152E0	-9.906959534E-2	-7.840346098E-1	1.731054783E-1
3.203205352E0	-6.498113275E-2	-7.009440064E-1	1.699096859E-1
3.204982536E0	-1.225054078E-2	-5.656554103E-1	1.640507281E-1
3.207262467E0	7.456851192E-3	-5.166532397E-1	1.619201899E-1
3.208459806E0	4.740426689E-2	-4.143878818E-1	1.491370201E-1
3.211320237E0	8.628641814E-2	-3.099919558E-1	1.379517466E-1
3.212935767E0	1.411475390E-1	-1.459412277E-1	1.150485575E-1
3.215388467E0	1.592570394E-1	-9.374327213E-2	1.102548689E-1
3.216616575E0	1.917476058E-1	8.522115648E-3	9.693906456E-2
3.219445621E0	2.205097377E-1	1.081243455E-1	8.628641814E-2
3.220790959E0	2.540655732E-1	2.434129268E-1	6.977482140E-2
3.223591044E0	2.759034932E-1	3.334277868E-1	5.326322466E-2
3.224909421E0	2.929477394E-1	4.175836742E-1	3.888215125E-2
3.227683660E0	3.083940744E-1	4.974785149E-1	2.556634694E-2
3.229384690E0	3.217098713E-1	5.763080716E-1	7.456851192E-3
3.231719813E0	3.366235793E-1	6.524744630E-1	-9.054748341E-3
3.232942613E0	3.440804183E-1	7.254450917E-1	-3.089267015E-2
3.235776544E0	3.552657068E-1	8.032094240E-1	-5.752427876E-2
3.237459267E0	3.627225459E-1	8.756473660E-1	-8.522115648E-2
3.239845429E0	3.664509654E-1	9.369000793E-1	-1.049285457E-1
3.241145382E0	3.707120419E-1	9.965549111E-1	-1.214401498E-1
3.243903044E0	3.733751774E-1	1.048220277E0	-1.347559541E-1
3.245718921E0	3.760383427E-1	1.097755075E0	-1.475391239E-1
3.247950044E0	3.771036267E-1	1.140898228E0	-1.539307088E-1
3.249194729E0	3.765709996E-1	1.171790957E0	-1.613875628E-1
3.252007467E0	3.755057156E-1	1.194161415E0	-1.688444167E-1
3.253617575E0	3.685815036E-1	1.198955178E0	-1.784317940E-1
3.256076083E0	3.616572917E-1	1.189367771E0	-1.842907518E-1
3.257495882E0	3.483414650E-1	1.155279279E0	-1.890844405E-1
3.260133621E0	3.382214606E-1	1.105211854E0	-1.885518134E-1
3.261494536E0	3.270362020E-1	1.046622276E0	-1.880191714E-1
3.264232267E0	3.126551211E-1	9.805759192E-1	-1.826928556E-1
3.265555382E0	2.988066673E-1	9.012137055E-1	-1.821602285E-1
3.268356236E0	2.817624509E-1	8.159925938E-1	-1.832254827E-1
3.269974613E0	2.561961114E-1	6.849650741E-1	-1.954760253E-1
3.272408698E0	2.498045117E-1	6.444849968E-1	-2.018676102E-1
3.273741575E0	2.380866110E-1	5.640575290E-1	-2.119876295E-1
3.276466813E0	2.263686955E-1	4.953479767E-1	-2.226402760E-1
3.278086152E0	2.146507949E-1	4.111920893E-1	-2.396845073E-1
3.280536044E0	2.114549875E-1	3.834952116E-1	-2.460760921E-1
3.281789690E0	2.066612989E-1	3.318298757E-1	-2.540655732E-1
3.284594005E0	1.960086524E-1	2.567287385E-1	-2.593919039E-1
3.286436613E0	1.928128600E-1	2.215750068E-1	-2.625876963E-1
3.288654352E0	1.928128600E-1	1.976065636E-1	-2.604571581E-1
3.289901959E0	1.917476058E-1	1.837581247E-1	-2.519350350E-1
3.292712275E0	1.933455020E-1	1.731054783E-1	-2.444781959E-1
3.294580652E0	1.960086524E-1	1.725728363E-1	-2.370213419E-1
3.296797005E0	1.981391907E-1	1.757686287E-1	-2.327602804E-1
3.298062229E0	1.965412945E-1	1.858886480E-1	-2.221076339E-1
3.300854159E0	1.960086524E-1	1.949433982E-1	-2.141181529E-1
3.302366190E0	1.928128600E-1	2.093244642E-1	-2.135855258E-1
3.304985352E0	1.896170676E-1	2.210423797E-1	-2.119876295E-1
3.306235498E0	1.821602285E-1	2.423476577E-1	-2.109223604E-1
3.309077659E0	1.789644361E-1	2.679139972E-1	-2.061286718E-1
3.310649113E0	1.747033745E-1	2.934803665E-1	-2.018676102E-1
3.313114198E0	1.645833552E-1	3.169161677E-1	-1.912149638E-1
3.314486652E0	1.576591432E-1	3.360909224E-1	-1.805623323E-1
3.317170967E0	1.432780623E-1	3.536677957E-1	-1.699096859E-1
3.318928690E0	1.342233270E-1	3.632551730E-1	-1.613875628E-1
3.321253582E0	1.203748807E-1	3.611246645E-1	-1.539307088E-1
3.322485882E0	1.081243455E-1	3.520699143E-1	-1.416801661E-1
3.325309890E0	8.894958347E-2	3.318298757E-1	-1.320927888E-1
3.327018190E0	6.178534031E-2	2.902845740E-1	-1.091896072E-1
3.329368890E0	5.166532472E-2	2.732403278E-1	-1.059938148E-1
3.330581344E0	2.822950855E-2	2.279665917E-1	-8.522115648E-2
3.333425736E0	9.587380104E-3	1.816275865E-1	-6.870955974E-2
3.335089690E0	-2.503371425E-2	1.017327532E-1	-4.314320907E-2
3.337494390E0	-3.355583176E-2	7.616640627E-2	-3.515372798E-2
3.338784459E0	-5.326322466E-2	2.183792181E-2	-1.491370238E-2
3.341551928E0	-7.563377917E-2	-5.699164793E-2	1.704423130E-2
3.342936229E0	-9.214537591E-2	-1.155811921E-1	3.728425503E-2
3.345697236E0	-1.017327532E-1	-1.731054783E-1	6.125270575E-2
3.346963998E0	-1.118527651E-1	-2.226402760E-1	8.681905270E-2
3.349789351E0	-1.123853996E-1	-2.711097896E-1	1.129180342E-1
3.351363498E0	-1.150485575E-1	-3.131877482E-1	1.352885813E-1
3.353825044E0	-1.155811921E-1	-3.488741219E-1	1.581917703E-1
3.355158844E0	-1.134506613E-1	-3.818973005E-1	1.784317940E-1
3.357882121E0	-1.081243455E-1	-4.149205089E-1	2.002697140E-1
3.359444459E0	-1.033306494E-1	-4.399542212E-1	2.141181529E-1
3.361952005E0	-9.534116834E-2	-4.543353021E-1	2.327602804E-1
3.363179229E0	-8.628641814E-2	-4.655205607E-1	2.545982003E-1
3.366009044E0	-7.882957160E-2	-4.671184719E-1	2.812298238E-1
3.367752652E0	-6.924218684E-2	-4.623247683E-1	3.046656251E-1
3.370056236E0	-5.432848632E-2	-4.420847595E-1	3.217098713E-1
3.371362690E0	-4.314320907E-2	-4.170510471E-1	3.334277868E-1
3.374113736E0	-3.089267015E-2	-3.882888854E-1	3.392867148E-1
3.375754575E0	-1.917476021E-2	-3.536677957E-1	3.392867148E-1
3.378183005E0	-8.522115648E-3	-3.158509135E-1	3.430151641E-1
3.379408075E0	7.456851192E-3	-2.636529505E-1	3.472762108E-1
3.382239659E0	1.597896591E-2	-2.093244642E-1	3.472762108E-1
3.383544113E0	2.716424316E-2	-1.592570394E-1	3.414172530E-1
3.386369582E0	3.888215125E-2	-1.043959185E-1	3.339604139E-1
3.387630113E0	5.113269389E-2	-5.060006306E-2	3.296993375E-1
3.390461005E0	6.018744037E-2	2.130528912E-3	3.286340833E-1
3.392119690E0	7.510114461E-2	6.977482140E-2	3.211772442E-1
3.394511659E0	7.669904083E-2	9.054747969E-2	3.201119602E-1
3.395752652E0	8.575379103E-2	1.283643693E-1	3.078614175E-1
3.398569851E0	9.374327213E-2	1.709749401E-1	2.950782478E-1
3.400619998E0	9.640643001E-2	1.896170676E-1	2.908172011E-1
3.402638620E0	9.853696078E-2	1.997370869E-1	2.796319127E-1
3.403877036E0	9.960222989E-2	2.050634027E-1	2.689792812E-1
3.406695505E0	1.006674916E-1	2.071939409E-1	2.498045117E-1
3.408501190E0	1.017327532E-1	2.103897333E-1	2.380866110E-1
3.410752543E0	1.081243455E-1	2.135855258E-1	2.210423797E-1
3.412101652E0	1.107875034E-1	2.162486911E-1	2.055960447E-1
3.414809543E0	1.166464612E-1	2.194444835E-1	1.880191714E-1
3.416466536E0	1.198422536E-1	2.135855258E-1	1.640507281E-1
3.418892043E0	1.214401498E-1	2.029328793E-1	1.427454352E-1
3.420160728E0	1.219727769E-1	1.810949594E-1	1.246359423E-1
3.422948390E0	1.171790883E-1	1.491370201E-1	1.006674916E-1
3.424379998E0	1.139832959E-1	1.097222418E-1	7.510114461E-2
3.426979767E0	1.081243455E-1	6.391586363E-2	4.527373984E-2
3.428352267E0	9.747169912E-2	9.054748341E-3	1.597896591E-2
3.431169043E0	8.735168725E-2	-4.314320907E-2	-1.171790902E-2
3.432816459E0	7.936219871E-2	-9.906959534E-2	-4.101268202E-2
3.435203966E0	6.817692518E-2	-1.539307088E-1	-6.870955974E-2
3.436524228E0	5.592638254E-2	-2.029328793E-1	-9.587380290E-2
3.439260659E0	4.633900523E-2	-2.498045117E-1	-1.187769845E-1
3.440895613E0	3.249056637E-2	-3.036003709E-1	-1.480717659E-1
3.443343389E0	3.036003746E-2	-3.211772442E-1	-1.544633508E-1
3.444620459E0	2.343581803E-2	-3.440804183E-1	-1.672465205E-1
3.447400774E0	1.917476021E-2	-3.611246645E-1	-1.747033745E-1
3.449129421E0	1.384843793E-2	-3.834952116E-1	-1.784317940E-1
3.451458659E0	1.225054078E-2	-3.904194236E-1	-1.752360016E-1
3.452769036E0	9.587380104E-3	-4.079962969E-1	-1.709749401E-1
3.455516543E0	5.858954508E-3	-4.261057973E-1	-1.608549356E-1
3.457153344E0	5.858954508E-3	-4.516721368E-1	-1.400822699E-1
3.459585543E0	5.326322280E-3	-4.639226794E-1	-1.203748807E-1
3.460847805E0	4.793690052E-3	-4.767058492E-1	-9.640643001E-2
3.463642620E0	9.587380104E-3	-4.793690145E-1	-7.030745596E-2
3.465316575E0	1.651159860E-2	-4.740426838E-1	-4.261057824E-2
3.467787582E0	2.503371425E-2	-4.516721368E-1	-1.118527725E-2
3.469017998E0	4.261057824E-2	-4.053331316E-1	1.384843793E-2
3.471879736E0	5.858954415E-2	-3.440804183E-1	3.941478580E-2
3.473564882E0	7.616640627E-2	-2.828277051E-1	4.953479767E-2
3.475916159E0	8.735168725E-2	-2.199771106E-1	5.805691332E-2
3.477319575E0	9.693906456E-2	-1.651159972E-1	6.444849819E-2
3.479973851E0	1.054611802E-1	-1.145159304E-1	6.551376730E-2
3.481557421E0	1.097222418E-1	-6.551376730E-2	6.817692518E-2
3.484043274E0	1.155811921E-1	-1.810949668E-2	7.403588295E-2
3.485279190E0	1.193096191E-1	2.982740477E-2	7.563377917E-2
3.488101351E0	1.283643693E-1	8.309062570E-2	7.456851006E-2
3.489859767E0	1.411475390E-1	1.688444167E-1	6.870955974E-2
3.492149351E0	1.454086006E-1	1.976065636E-1	6.391586363E-2
3.493371036E0	1.555286050E-1	2.519350350E-1	6.072007492E-2
3.496207043E0	1.640507281E-1	3.014698327E-1	5.273059011E-2
3.497821267E0	1.741707325E-1	3.557983339E-1	4.474110901E-2
3.500276120E0	1.757686287E-1	3.701793849E-1	4.420847446E-2
3.501520228E0	1.800296903E-1	3.893541694E-1	4.048004746E-2
3.504333620E0	1.842907518E-1	4.026699662E-1	4.048004746E-2
3.506444466E0	1.906823367E-1	4.133225977E-1	4.367584363E-2
3.508381767E0	1.954760253E-1	4.159857631E-1	5.326322466E-2
3.509938498E0	1.986718178E-1	4.165183902E-1	6.231797114E-2
3.512556158E0	2.071939409E-1	4.207794666E-1	8.096009493E-2
3.514196421E0	2.146507949E-1	4.234426320E-1	9.374327213E-2
3.516607158E0	2.194444835E-1	4.271710515E-1	1.075917110E-1
3.517844421E0	2.247707993E-1	4.277036786E-1	1.219727769E-1
3.520664658E0	2.269013226E-1	4.223773479E-1	1.352885813E-1
3.522474498E0	2.284992188E-1	4.159857631E-1	1.523328125E-1
3.524734620E0	2.290318608E-1	4.074636400E-1	1.768338978E-1
3.525973805E0	2.290318608E-1	3.925499618E-1	2.066612989E-1
3.528792505E0	2.205097377E-1	3.787015080E-1	2.306297570E-1
3.530561767E0	2.183792144E-1	3.675162494E-1	2.487392575E-1
3.532851197E0	2.151834220E-1	3.595267534E-1	2.668487430E-1
3.534124228E0	2.141181529E-1	3.648530841E-1	2.817624509E-1
3.536909005E0	2.146507949E-1	3.744404614E-1	2.966761589E-1
3.538895959E0	2.189118415E-1	3.962783813E-1	3.073287904E-1
3.540992889E0	2.279665917E-1	4.255731404E-1	3.227751255E-1
3.542232882E0	2.364887148E-1	4.633900523E-1	3.392867148E-1
3.545050774E0	2.466087192E-1	5.081311464E-1	3.488741219E-1
3.546746228E0	2.593919039E-1	5.550028086E-1	3.600593805E-1
3.549181697E0	2.721750736E-1	6.072007418E-1	3.749730885E-1
3.550459651E0	2.860234976E-1	6.530070901E-1	3.840278387E-1
3.553273889E0	2.998719513E-1	7.009440064E-1	3.968110085E-1
3.554874651E0	3.211772442E-1	7.733820081E-1	4.090615511E-1
3.557310812E0	3.275688291E-1	7.904262543E-1	4.122573435E-1
3.558750690E0	3.296993375E-1	7.771103978E-1	4.250405133E-1
3.561368543E0	3.110572100E-1	7.030745149E-1	4.442152679E-1
3.563189728E0	3.153182864E-1	6.791061163E-1	4.639226794E-1
3.565453889E0	3.270362020E-1	7.110640407E-1	4.649879336E-1
3.566713228E0	3.531351686E-1	7.739146352E-1	4.708468914E-1
3.569511427E0	3.563309610E-1	7.723167539E-1	4.857605994E-1
3.571392767E0	3.600593805E-1	7.446198463E-1	5.166532397E-1
3.573569351E0	3.781688809E-1	7.701861858E-1	5.241101384E-1
3.574815536E0	3.797667921E-1	7.446198463E-1	5.454154015E-1
3.577626889E0	3.739078343E-1	7.126619220E-1	5.656554103E-1
3.579315382E0	3.930825889E-1	7.360977530E-1	5.736449361E-1
3.581694966E0	4.063983858E-1	7.574030161E-1	5.906891227E-1
3.582916767E0	4.111920893E-1	7.669904232E-1	6.141249537E-1
3.585752350E0	4.250405133E-1	7.840346098E-1	6.412891746E-1
3.587093767E0	4.324973822E-1	7.882956862E-1	6.673882008E-1
3.589798459E0	4.383563101E-1	7.872304320E-1	6.956176758E-1
3.591179036E0	4.484763443E-1	7.920241356E-1	7.153250575E-1
3.593988735E0	4.580637217E-1	7.941546440E-1	7.366303802E-1
3.595645113E0	4.580637217E-1	7.760451436E-1	7.616640925E-1
3.598025966E0	4.649879336E-1	7.520766854E-1	7.819041014E-1
3.599279921E0	4.655205607E-1	7.190535069E-1	7.978830934E-1
3.602082620E0	4.692489803E-1	6.865629554E-1	8.090683818E-1
3.603693805E0	4.735100567E-1	6.439523697E-1	8.191883564E-1
3.606150158E0	4.735100567E-1	5.960154533E-1	8.330367804E-1
3.607414536E0	4.799016416E-1	5.518069863E-1	8.346347213E-1
3.610206273E0	4.799016416E-1	5.006743073E-1	8.372978568E-1
3.611971998E0	4.873584807E-1	4.559331834E-1	8.234494328E-1
3.614254389E0	4.942827225E-1	4.474110603E-1	8.127967715E-1
3.615492998E0	4.964132309E-1	4.223773479E-1	8.010788560E-1
3.618311927E0	5.017395616E-1	3.968110085E-1	7.850999236E-1
3.619975036E0	5.113269091E-1	3.749730885E-1	7.504788041E-1
3.622380120E0	5.129248500E-1	3.659183383E-1	7.376956344E-1
3.623742151E0	5.177185535E-1	3.483414650E-1	7.105314136E-1
3.626436889E0	5.278385282E-1	3.483414650E-1	6.807039976E-1
3.628007921E0	5.427522659E-1	3.557983339E-1	6.407565475E-1
3.630567543E0	5.539374948E-1	3.669835925E-1	6.125270724E-1
3.631848190E0	5.624596477E-1	3.771036267E-1	5.933523178E-1
3.634659081E0	5.757754445E-1	3.930825889E-1	5.640575290E-1
3.636330498E0	5.869607329E-1	4.149205089E-1	5.363606811E-1
3.638710812E0	6.013417840E-1	4.388889670E-1	5.145227313E-1
3.640052267E0	6.103965044E-1	4.522047639E-1	4.996090233E-1
3.642767312E0	6.151902080E-1	4.623247683E-1	4.852279723E-1
3.644356190E0	6.221144199E-1	4.852279723E-1	4.660531878E-1
3.646835004E0	6.210491657E-1	4.884237647E-1	4.527373910E-1
3.648031767E0	6.189186573E-1	4.814995229E-1	4.372910559E-1
3.650891312E0	6.130596995E-1	4.836300611E-1	4.255731404E-1
3.652663305E0	6.103965044E-1	4.830974340E-1	4.154531360E-1
3.654941196E0	6.002765298E-1	4.692489803E-1	4.053331316E-1
3.656154844E0	5.880259871E-1	4.527373910E-1	3.957457542E-1
3.658996696E0	5.731122494E-1	4.261057973E-1	3.893541694E-1
3.660621074E0	5.534048676E-1	3.920173049E-1	3.749730885E-1
3.663078196E0	5.299690962E-1	3.600593805E-1	3.637878001E-1
3.664406036E0	5.075985193E-1	3.265035450E-1	3.478088379E-1
3.667134773E0	4.799016416E-1	2.993393242E-1	3.360909224E-1
3.668503959E0	4.490089715E-1	2.780340314E-1	3.254382908E-1
3.671137959E0	4.170510471E-1	2.620550692E-1	3.115898669E-1
3.672615459E0	3.861583769E-1	2.418150306E-1	2.988066673E-1
3.675354235E0	3.483414650E-1	2.242381722E-1	2.897519469E-1
3.677032574E0	2.945456207E-1	2.055960447E-1	2.860234976E-1
3.679388966E0	2.796319127E-1	2.002697140E-1	2.865561247E-1
3.680605998E0	2.370213419E-1	1.736381054E-1	2.924150825E-1
3.683445465E0	1.938781291E-1	1.400822699E-1	3.036003709E-1
3.685076921E0	1.326254308E-1	7.563377917E-2	3.270362020E-1
3.687527235E0	9.161274135E-2	3.142530099E-2	3.451456726E-1
3.688785267E0	4.900216311E-2	-1.384843793E-2	3.600593805E-1
3.691583927E0	8.522115648E-3	-6.018744037E-2	3.802994192E-1
3.693323574E0	-3.142530099E-2	-9.587380290E-2	3.946804702E-1
3.695641235E0	-7.084008306E-2	-1.342233270E-1	4.106594622E-1
3.696891805E0	-1.081243455E-1	-1.704423130E-1	4.239752591E-1
3.699698427E0	-1.432780623E-1	-2.002697140E-1	4.426173866E-1
3.701318305E0	-1.736381054E-1	-2.263686955E-1	4.623247683E-1
3.703766081E0	-2.050634027E-1	-2.519350350E-1	4.788363874E-1
3.705028959E0	-2.311623842E-1	-2.695119083E-1	4.889563918E-1
3.707822888E0	-2.514024079E-1	-2.844256163E-1	4.990763962E-1
3.709193613E0	-2.716424465E-1	-2.966761589E-1	4.990763962E-1
3.711967850E0	-2.833603323E-1	-3.121224940E-1	4.942827225E-1
3.713289651E0	-2.982740402E-1	-3.265035450E-1	4.788363874E-1
3.716058888E0	-3.025351167E-1	-3.360909224E-1	4.617921412E-1
3.717766882E0	-3.089267015E-1	-3.494067490E-1	4.447479248E-1
3.720094388E0	-3.083940744E-1	-3.664509654E-1	4.229099751E-1
3.721467113E0	-3.089267015E-1	-3.813646734E-1	3.904194236E-1
3.724150273E0	-3.041329980E-1	-3.909520507E-1	3.664509654E-1
3.725721382E0	-2.945456207E-1	-4.000068009E-1	3.344930410E-1
3.728219311E0	-2.854908705E-1	-4.181163013E-1	2.950782478E-1
3.729449305E0	-2.743056118E-1	-4.303668439E-1	2.652508616E-1
3.732276158E0	-2.556634545E-1	-4.255731404E-1	2.476739883E-1
3.734027805E0	-2.274339646E-1	-4.303668439E-1	2.428802997E-1
3.736308773E0	-2.157160491E-1	-4.298342168E-1	2.386192381E-1
3.737587613E0	-1.954760253E-1	-4.266384244E-1	2.391518652E-1
3.740365927E0	-1.757686287E-1	-4.234426320E-1	2.295644879E-1
3.741953728E0	-1.507349163E-1	-4.095941782E-1	2.130528986E-1
3.744401619E0	-1.459412277E-1	-4.037352204E-1	2.055960447E-1
3.745605728E0	-1.390170157E-1	-3.920173049E-1	1.672465205E-1
3.748458081E0	-1.438107044E-1	-3.797667921E-1	1.150485575E-1
3.749758074E0	-1.677791476E-1	-3.547330499E-1	1.651159860E-2
3.752582459E0	-1.949433982E-1	-3.419498801E-1	-5.858954415E-2
3.753986574E0	-2.279665917E-1	-3.275688291E-1	-1.363538504E-1
3.756680234E0	-2.673813701E-1	-3.067961633E-1	-2.130528986E-1
3.758363959E0	-3.126551211E-1	-2.711097896E-1	-2.881540358E-1
3.760730850E0	-3.547330499E-1	-2.189118415E-1	-3.488741219E-1
3.761895767E0	-3.978762627E-1	-1.326254308E-1	-4.069310129E-1
3.764788465E0	-4.388889670E-1	-3.728425503E-2	-4.506068528E-1
3.766357997E0	-4.862932265E-1	4.101268202E-2	-4.639226794E-1
3.768856850E0	-5.310343504E-1	1.118527651E-1	-4.596616030E-1
3.770098844E0	-5.709817410E-1	1.842907518E-1	-4.410194755E-1
3.772914427E0	-6.098638773E-1	2.450108230E-1	-4.117247164E-1
3.774575344E0	-6.460828781E-1	2.865561247E-1	-3.797667921E-1
3.776990542E0	-6.775081754E-1	3.137203753E-1	-3.451456726E-1
3.778216882E0	-7.041398287E-1	3.323625028E-1	-3.142530024E-1
3.781047273E0	-7.185208797E-1	3.494067490E-1	-2.940129936E-1
3.782609844E0	-7.249124646E-1	3.643204570E-1	-2.849582434E-1
3.785098696E0	-7.174556255E-1	3.834952116E-1	-2.822950780E-1
3.786364267E0	-6.950850487E-1	4.042678475E-1	-2.822950780E-1
3.789155657E0	-6.657902598E-1	4.207794666E-1	-3.046656251E-1
3.790434767E0	-6.322344542E-1	4.229099751E-1	-3.440804183E-1
3.793229382E0	-5.890912414E-1	4.213120937E-1	-3.941478431E-1
3.794480536E0	-5.406216979E-1	4.101268053E-1	-4.554005563E-1
3.797377888E0	-4.809668958E-1	3.925499618E-1	-5.299690962E-1
3.798935613E0	-3.787015080E-1	3.568635881E-1	-6.450176239E-1
3.801413850E0	-3.419498801E-1	3.430151641E-1	-6.780408025E-1
3.802564805E0	-2.657834888E-1	3.057309091E-1	-7.254450917E-1
3.805470542E0	-1.922802329E-1	2.593919039E-1	-7.526093125E-1
3.807016151E0	-7.776430249E-2	1.800296903E-1	-7.707188129E-1
3.809549421E0	2.663161140E-3	1.352885813E-1	-7.653924823E-1
3.810701997E0	8.522115648E-2	9.853696078E-2	-7.605988383E-1
3.813610542E0	1.731054783E-1	7.190535218E-2	-7.446198463E-1
3.815257382E0	2.530003190E-1	5.379585549E-2	-7.206513882E-1
3.817681767E0	3.328951299E-1	3.675162420E-2	-6.902913451E-1
3.818854959E0	4.042678475E-1	2.183792181E-2	-6.562029123E-1
3.821748734E0	4.767058492E-1	5.326322280E-3	-6.157228351E-1
3.823286651E0	5.379585624E-1	-1.012001187E-2	-5.752428174E-1
3.825817965E0	5.970807076E-1	-3.249056637E-2	-5.267732739E-1
3.826987882E0	6.450176239E-1	-5.592638254E-2	-4.751079381E-1
3.829875503E0	6.865629554E-1	-8.362326026E-2	-4.202468395E-1
3.831249459E0	7.190535069E-1	-1.070590764E-1	-3.664509654E-1
3.833921844E0	7.467503548E-1	-1.241033077E-1	-3.158509135E-1
3.835286690E0	7.691209316E-1	-1.374191195E-1	-2.753708661E-1
3.838114426E0	7.813714743E-1	-1.326254308E-1	-2.434129268E-1
3.839655497E0	7.882956862E-1	-1.182443574E-1	-2.199771106E-1
3.842145151E0	7.888283134E-1	-9.906959534E-2	-2.024002522E-1
3.843310844E0	7.835019827E-1	-6.870955974E-2	-1.869539171E-1
3.846209311E0	7.717841268E-1	-3.036003746E-2	-1.741707325E-1
3.847744151E0	7.430219650E-1	3.994741663E-2	-1.635181010E-1
3.850278503E0	7.329019308E-1	6.764429063E-2	-1.565938741E-1
3.851449459E0	7.137271762E-1	1.267664731E-1	-1.379517466E-1
3.854336234E0	7.052050829E-1	1.986718178E-1	-1.091896072E-1
3.856022997E0	7.382282615E-1	3.717772961E-1	1.384843793E-2
3.858367811E0	7.664577961E-1	4.745753109E-1	6.870955974E-2
3.859539882E0	8.665926456E-1	7.685883045E-1	1.709749401E-1
3.862425772E0	9.827064872E-1	1.094559193E0	2.615224123E-1
3.863968344E0	1.086037159E0	1.374191165E0	3.787015080E-1
3.866494234E0	1.093493938E0	1.366734266E0	4.127899706E-1
3.867671036E0	1.058872819E0	1.211738348E0	4.857605994E-1
3.870551772E0	9.358348250E-1	8.303736448E-1	6.029396653E-1
3.871858728E0	8.234494328E-1	5.768406987E-1	7.084008455E-1
3.874649113E0	7.057377100E-1	3.094593287E-1	8.101336360E-1
3.875895728E0	5.906891227E-1	7.190535218E-2	8.426241875E-1
3.878774542E0	4.559331834E-1	-9.960222989E-2	8.048073053E-1
3.880337959E0	2.689792812E-1	-1.938781291E-1	7.195861340E-1
3.882824965E0	-1.065264456E-3	-1.922802329E-1	5.858954787E-1
3.884029767E0	-3.270362020E-1	-5.486112088E-2	4.261057973E-1
3.886882003E0	-6.615292430E-1	1.960086524E-1	2.716424465E-1
3.888427574E0	-9.512811303E-1	5.198490620E-1	1.288969964E-1
3.890952003E0	-1.171258211E0	8.676578999E-1	2.343581803E-2
3.892130767E0	-1.311873198E0	1.201618314E0	-4.474110901E-2
3.895009542E0	-1.389104843E0	1.487641811E0	-7.030745596E-2
3.896669805E0	-1.413073301E0	1.697498918E0	-6.444849819E-2
3.899086157E0	-1.394431114E0	1.813612700E0	-3.568635881E-2
3.900318690E0	-1.348092198E0	1.820536971E0	6.391586736E-3
3.903143465E0	-1.286306858E0	1.733185291E0	5.273059011E-2
3.904982690E0	-1.161670923E0	1.466336489E0	1.102548689E-1
3.907226734E0	-1.113734007E0	1.358212233E0	1.246359423E-1
3.908401382E0	-1.012001276E0	1.124386668E0	1.438107044E-1
3.911283772E0	-8.996158242E-1	8.937568665E-1	1.406149119E-1
3.912637536E0	-7.808388472E-1	6.700513363E-1	1.251685768E-1
3.915220113E0	-6.615292430E-1	4.676510990E-1	9.693906456E-2
3.916679036E0	-5.400890708E-1	2.908172011E-1	5.219795927E-2
3.919504926E0	-3.611246645E-1	9.534116834E-2	-1.225054078E-2
3.921149382E0	-2.498045117E-1	1.970739290E-2	-5.219795927E-2
3.923540311E0	-1.432780623E-1	-5.326322280E-3	-8.735168725E-2
3.924848613E0	-4.207794741E-2	1.225054078E-2	-1.193096191E-1
3.927597003E0	4.900216311E-2	7.243798673E-2	-1.507349163E-1
3.929276190E0	1.395496428E-1	1.651159972E-1	-1.810949594E-1
3.931679618E0	2.194444835E-1	2.828277051E-1	-2.077265680E-1
3.932873036E0	2.934803665E-1	4.234426320E-1	-2.332929224E-1
3.935736541E0	3.637878001E-1	5.795038939E-1	-2.625876963E-1
3.937411344E0	4.293015897E-1	7.435545921E-1	-2.908172011E-1
3.939814349E0	4.916195571E-1	9.097358584E-1	-3.206445873E-1
3.941019767E0	5.512743592E-1	1.076982379E0	-3.552657068E-1
3.943871926E0	6.066681147E-1	1.231445670E0	-3.914846778E-1
3.945607459E0	6.609966159E-1	1.376321673E0	-4.287689328E-1
3.947908888E0	7.153250575E-1	1.506816626E0	-4.697816372E-1
3.949154651E0	7.653924823E-1	1.626658797E0	-5.123922229E-1
3.951966964E0	8.122641444E-1	1.731054783E0	-5.544701219E-1
3.953308344E0	8.559399843E-1	1.820004344E0	-5.960154533E-1
3.956112118E0	9.108011127E-1	1.918008685E0	-6.327670813E-1
3.957343690E0	9.837717414E-1	2.018143415E0	-6.615292430E-1
3.960204772E0	1.087635040E0	2.126800537E0	-6.807039976E-1
3.961825190E0	1.278849959E0	2.299373388E0	-6.849650741E-1
3.964241426E0	1.348092198E0	2.361691236E0	-6.849650741E-1
3.965427690E0	1.476456523E0	2.471946239E0	-6.748450398E-1
3.968298926E0	1.568069220E0	2.544384241E0	-6.514092088E-1
3.969875728E0	1.647964120E0	2.595516920E0	-5.667206645E-1
3.972367157E0	1.654888391E0	2.606702089E0	-5.305017233E-1
3.973554113E0	1.654888391E0	2.625344276E0	-4.703142643E-1
3.976424426E0	1.623995662E0	2.624811649E0	-4.175836742E-1
3.978174420E0	1.520132422E0	2.495382071E0	-3.605920076E-1
3.980455118E0	1.478054404E0	2.418683052E0	-3.494067490E-1
3.981675113E0	1.382180691E0	2.232794285E0	-3.387540877E-1
3.984512464E0	1.254881501E0	1.891377091E0	-3.430151641E-1
3.986100536E0	1.169127703E0	1.605886221E0	-3.579288721E-1
3.988581887E0	1.085504532E0	1.314536333E0	-3.712446690E-1
3.989836305E0	9.997506738E-1	1.052481294E0	-3.749730885E-1
3.992639695E0	9.097358584E-1	8.261125684E-1	-3.755057156E-1
3.993964343E0	8.181231022E-1	6.343649626E-1	-3.696467578E-1
3.996620228E0	7.238472104E-1	4.724447727E-1	-3.579288721E-1
3.998025613E0	6.258428693E-1	3.387540877E-1	-3.419498801E-1
4.000862503E0	5.347627401E-1	2.380866110E-1	-3.238403797E-1
4.002439613E0	4.399542212E-1	1.725728363E-1	-3.020024598E-1
4.004913041E0	3.526025414E-1	1.336906850E-1	-2.769687474E-1
4.006106151E0	2.684466541E-1	1.214401498E-1	-2.508697808E-1
4.008970887E0	1.885518134E-1	1.310275346E-1	-2.306297570E-1
4.010544690E0	1.198422536E-1	1.544633508E-1	-2.029328793E-1
4.013040118E0	6.231797114E-2	1.885518134E-1	-1.800296903E-1
4.014240036E0	1.171790902E-2	2.221076339E-1	-1.587243974E-1
4.017096657E0	-2.556634694E-2	2.498045117E-1	-1.326254308E-1
4.018791843E0	-5.858954415E-2	2.604571581E-1	-9.534116834E-2
4.021179233E0	-6.285060197E-2	2.583266199E-1	-8.575379103E-2
4.022378190E0	-6.711166352E-2	2.402171344E-1	-6.125270575E-2
4.025235464E0	-6.018744037E-2	2.077265680E-1	-3.994741663E-2
4.026829036E0	-4.048004746E-2	1.390170157E-1	-1.225054078E-2
4.029318349E0	-2.929477207E-2	1.145159304E-1	5.326322280E-4
4.030632959E0	-1.171790902E-2	5.965480953E-2	1.917476021E-2
4.033374810E0	1.331580617E-2	2.663161140E-3	3.834952042E-2
4.034907036E0	5.592638254E-2	-8.841694891E-2	6.924218684E-2
4.037503656E0	8.575379103E-2	-1.539307088E-1	9.534116834E-2
4.038813805E0	1.166464612E-1	-2.194444835E-1	1.161138266E-1
4.041594887E0	1.411475390E-1	-2.838929892E-1	1.368864775E-1
4.043356882E0	1.725728363E-1	-3.472762108E-1	1.523328125E-1
4.045630003E0	1.992044598E-1	-4.111920893E-1	1.709749401E-1
4.046909382E0	2.290318608E-1	-4.697816372E-1	1.837581247E-1
4.049685849E0	2.545982003E-1	-5.209143162E-1	1.933455020E-1
4.051361651E0	2.775014043E-1	-5.672533512E-1	1.949433982E-1
4.053768272E0	3.009372056E-1	-6.087986231E-1	2.002697140E-1
4.055013420E0	3.163835406E-1	-6.412891746E-1	1.986718178E-1
4.057825310E0	3.323625028E-1	-6.625944972E-1	1.976065636E-1
4.059559036E0	3.366235793E-1	-6.711165905E-1	1.922802329E-1
4.061874695E0	3.328951299E-1	-6.737797856E-1	1.880191714E-1
4.063151651E0	3.249056637E-1	-6.689860821E-1	1.794970632E-1
4.065931272E0	3.099919558E-1	-6.551376581E-1	1.709749401E-1
4.067760190E0	2.892192900E-1	-6.370281577E-1	1.619201899E-1
4.070000810E0	2.679139972E-1	-6.093312502E-1	1.459412277E-1
4.071566843E0	2.391518652E-1	-5.784385800E-1	1.304948926E-1
4.074058118E0	2.114549875E-1	-5.411543250E-1	1.113201380E-1
