"Time (s)"	"Linear Acceleration x (m/s^2)"	"Linear Acceleration y (m/s^2)"	"Linear Acceleration z (m/s^2)"
2.281359500E-2	-3.458422422E-2	-2.793973684E-2	-3.995141983E-1
3.096078700E-2	5.822527409E-2	-1.324772835E-3	-4.194412231E-1
3.908732600E-2	2.701098919E-1	1.105372906E-1	-4.373435974E-1
4.728986400E-2	4.433924556E-1	2.511706352E-1	-9.016227722E-1
5.541840200E-2	4.695774317E-1	2.964114547E-1	-1.362239838E0
6.354378700E-2	3.002380133E-1	2.163158059E-1	-1.341788292E0
7.163790200E-2	1.434462547E0	6.941980124E-2	-9.445953369E-1
7.976282500E-2	-1.422879696E-1	-6.332333684E-1	-9.810743332E-1
8.777065400E-2	-3.714526892E-1	-5.705769062E-1	-6.421298981E-1
9.609201800E-2	1.520568013E0	-5.222827792E-1	-1.641483307E-1
1.042176710E-1	1.436580420E0	-2.729451358E-1	8.568429947E-1
1.123505560E-1	7.087645531E-1	2.223885059E-1	1.051355362E0
1.204915940E-1	-2.697813511E-2	6.095491052E-1	9.537010193E-1
1.286785560E-1	-8.000544310E-1	6.128113270E-1	9.093255997E-1
1.368072870E-1	2.378696442E0	8.579399586E-1	8.476753235E-1
1.449486330E-1	7.427449226E-1	-9.949913025E-1	1.344986916E0
1.530855560E-1	4.272516966E-1	-9.014469385E-1	1.484232903E0
1.612132100E-1	-2.937246561E-1	-9.227494001E-1	1.219321251E0
1.692506540E-1	3.152914047E-1	-6.149128079E-1	6.426324844E-1
1.775445560E-1	5.480103493E-1	-6.507684588E-1	-3.953056335E-1
1.856724790E-1	3.268852234E-1	-6.639327407E-1	-1.232936859E0
1.937613250E-1	1.280219793E0	-3.206362724E-1	-2.068286419E0
2.018883630E-1	7.222735882E-1	-2.430754900E-1	-1.975765705E0
2.100775170E-1	3.974254131E-1	-4.735618830E-2	-2.056133747E0
2.182217860E-1	2.365219593E-1	4.942710996E-1	-1.835732937E0
2.263482860E-1	-2.550866604E-1	7.795524597E-1	-1.747779846E0
2.344888250E-1	-9.206957817E-1	6.882433891E-1	-1.701216698E0
2.426303630E-1	-2.467974901E0	5.039116144E-1	-1.557474136E0
2.507153460E-1	-4.748722553E0	2.943416238E-1	-6.100902557E-1
2.589453630E-1	-6.185492992E0	5.437034369E-2	5.716714859E-1
2.670857480E-1	-6.075771332E0	4.916048050E-2	1.301520348E0
2.752178250E-1	-6.527700424E0	-2.551144361E-2	1.795544624E0
2.833440170E-1	-3.950704098E0	-5.388656259E-1	9.030704498E-1
2.915465170E-1	-5.363717079E-1	-1.077071667E0	3.049573898E-1
2.996736710E-1	1.636785030E0	-1.776639700E0	8.233108521E-1
3.078002860E-1	1.471901655E0	-2.142060518E0	4.326734543E-1
3.158938630E-1	7.880444527E-1	-1.836311698E0	5.304327011E-1
3.239869780E-1	-1.363587379E-1	-1.602220774E0	9.988479614E-1
3.319803850E-1	3.666572571E-1	-1.061131716E0	1.042453766E0
3.403180170E-1	1.187100649E0	-2.332109213E-1	9.913930893E-1
3.484445170E-1	9.480738640E-1	6.749159098E-1	7.945957184E-1
3.565524400E-1	5.573487282E-1	1.170633674E0	6.491527557E-1
3.646935170E-1	2.572712898E-1	1.579529405E0	5.770673752E-1
3.728807090E-1	-9.286141396E-1	1.671785474E0	8.991394043E-1
3.810092860E-1	-2.140277386E0	1.805906057E0	1.622776985E0
3.891504400E-1	-2.204782724E0	2.154866695E0	1.937685966E0
3.972579400E-1	9.729518890E-1	2.000054359E0	8.555316925E-2
4.053845550E-1	-8.520686626E-1	2.529025555E0	2.135419846E-1
4.134703840E-1	-1.376854181E0	1.753822803E0	1.040334702E-1
4.217160930E-1	-6.540751457E-1	7.266494632E-1	-2.867727280E-1
4.298426320E-1	-6.718091965E-1	4.714172482E-1	-3.026123047E-1
4.379436320E-1	-5.881078243E-1	2.765548229E-2	-3.916969299E-1
4.460381320E-1	-4.732811451E-1	9.464108944E-2	-1.700382233E-1
4.542279010E-1	-7.213749886E-1	5.735216737E-1	-5.833339691E-2
4.623722850E-1	-6.698541641E-1	8.240774870E-1	-2.991333008E-1
4.704994780E-1	-5.774312019E-1	8.392091990E-1	-4.005146027E-1
4.786089010E-1	-6.147195101E-1	7.400379181E-1	-4.402952194E-1
4.867043620E-1	-6.086827517E-1	3.965480030E-1	-4.986095428E-1
4.947398840E-1	-4.943782091E-1	7.863640785E-2	-6.443471909E-1
5.030207470E-1	-5.646959543E-1	-1.731352210E-1	-8.769664764E-1
5.111598620E-1	-5.270932913E-1	-3.440008163E-1	-1.077719688E0
5.192686310E-1	-3.837683201E-1	-5.923894644E-1	-1.206027985E0
5.273936700E-1	-3.598792553E-1	-9.078344703E-1	-1.078129768E0
5.355957470E-1	-4.268268347E-1	-1.002708673E0	-1.271450043E0
5.437233240E-1	-4.431643486E-1	-1.313292980E0	-1.380517960E0
5.518477850E-1	-3.553398848E-1	-1.614094973E0	-1.523692131E0
5.599495160E-1	-3.709431887E-1	-1.750307083E0	-1.512022018E0
5.680738620E-1	-4.272767305E-1	-1.847978473E0	-1.199944496E0
5.761741920E-1	-2.941681147E-1	-2.031322002E0	-1.082647324E0
5.844052470E-1	-1.014754772E-1	-2.352661610E0	-1.262474060E0
6.006430540E-1	-7.892060280E-2	-2.767798662E0	-9.466209412E-1
6.087846310E-1	6.463241577E-2	-2.916541576E0	-9.163150787E-1
6.169727460E-1	1.411720514E-1	-2.962553501E0	-8.268642426E-1
6.251013620E-1	2.032275200E-1	-3.051352262E0	-7.475862503E-1
6.332424390E-1	3.163698912E-1	-3.092703581E0	-5.407972336E-1
6.413536310E-1	4.324256182E-1	-3.147057056E0	-4.481382370E-1
6.494802460E-1	5.675575733E-1	-3.034005642E0	-4.440793991E-1
6.575210770E-1	5.919008255E-1	-2.822500229E0	-5.544958115E-1
6.658117460E-1	6.349476576E-1	-2.683661222E0	-7.756414413E-1
6.739378230E-1	6.951366663E-1	-2.354901314E0	-8.404750824E-1
6.820389770E-1	5.872628689E-1	-2.097175121E0	-7.795038223E-1
6.901652850E-1	6.114492416E-1	-2.099679470E0	-7.918357849E-1
6.983534000E-1	6.738216877E-1	-2.020746231E0	-6.422557831E-1
7.064985920E-1	5.845835209E-1	-1.923353195E0	-4.798336029E-1
7.146273610E-1	5.685234070E-1	-1.769378185E0	-3.791961670E-1
7.227396690E-1	4.862489700E-1	-1.616667032E0	-2.589178085E-1
7.308827840E-1	4.507706165E-1	-1.490202069E0	-2.395725250E-1
7.389067690E-1	4.410281181E-1	-1.413887262E0	-3.647994995E-1
7.471997460E-1	4.092736244E-1	-1.371626139E0	-3.955354691E-1
7.553424770E-1	4.555072784E-1	-1.375663400E0	-2.919397354E-1
7.634535540E-1	4.776034355E-1	-1.300667524E0	-4.088020325E-2
7.715812840E-1	3.654017448E-1	-1.094713926E0	7.530403137E-2
7.796861690E-1	3.748941422E-1	-9.107343554E-1	2.129220963E-1
7.877818610E-1	4.042303562E-1	-7.101220489E-1	4.456644058E-1
7.959090150E-1	4.892854691E-1	-6.204073429E-1	5.627307892E-1
8.040087840E-1	5.607206821E-1	-5.399820805E-1	4.990301132E-1
8.121356300E-1	5.122573376E-1	-4.548744559E-1	6.172389984E-1
8.201192690E-1	3.734927177E-1	-4.332168102E-1	8.581733704E-1
8.284657460E-1	3.871397972E-1	-5.832840204E-1	1.034504890E0
8.365593990E-1	4.514408112E-1	-6.871637702E-1	1.339108467E0
8.446735920E-1	4.965758324E-1	-5.483145118E-1	1.571661949E0
8.527819380E-1	4.617133141E-1	-3.713189960E-1	1.466133118E0
8.609703220E-1	3.740096092E-1	-1.990295947E-3	1.268211365E0
8.772422070E-1	3.559970856E-2	6.906290054E-1	1.311122894E0
8.853583990E-1	-3.027057648E-2	8.345637321E-1	1.397075653E0
8.934831300E-1	-2.604579926E-2	7.233846188E-1	1.191203117E0
9.015981530E-1	-1.635370255E-1	5.681811571E-1	8.770790100E-1
9.098143220E-1	-6.876373291E-2	4.312168360E-1	8.890314102E-1
9.179405910E-1	2.553558350E-2	4.167727232E-1	1.118247986E0
9.341676680E-1	-1.786999702E-1	4.974139929E-1	1.189108849E0
9.423543220E-1	-2.599277496E-1	4.204278886E-1	1.149794579E0
9.504955910E-1	-3.815431595E-1	3.807308376E-1	1.091910362E0
9.667299760E-1	-3.743920326E-1	3.039792776E-1	1.350101471E0
9.748712070E-1	-2.096815109E-1	1.866824180E-1	1.483057022E0
9.828617300E-1	-2.104678154E-1	3.266361058E-1	1.597006798E0
9.911847450E-1	-2.110099792E-1	5.069228411E-1	1.586398125E0
9.993247060E-1	-3.209471703E-1	7.730600238E-1	1.556399345E0
1.007436437E0	-4.136548042E-1	1.127348661E0	1.554448128E0
1.015564245E0	-5.025067329E-1	1.453151345E0	1.486380577E0
1.023766937E0	-6.255345345E-1	1.739272356E0	1.289781570E0
1.031895745E0	-7.901110649E-1	1.919762850E0	1.141547203E0
1.040020899E0	-9.819397926E-1	1.948657751E0	1.016690254E0
1.048122014E0	-1.092293739E0	1.883859158E0	9.055109024E-1
1.056248206E0	-1.210142136E0	1.736573935E0	9.003949165E-1
1.064246346E0	-1.194965839E0	1.562659144E0	1.020908356E0
1.072577937E0	-1.316835880E0	1.405689240E0	1.064388752E0
1.080703591E0	-1.371268272E0	1.256636143E0	8.869919777E-1
1.088815245E0	-1.385880470E0	1.134793162E0	6.789064407E-1
1.096956975E0	-1.426623821E0	9.485086203E-1	6.633510590E-1
1.105146398E0	-1.495641232E0	7.940381765E-1	7.601470947E-1
1.113276129E0	-1.451713562E0	5.880357623E-1	4.398088455E-1
1.121416821E0	-1.287630081E0	4.573175311E-1	-8.695888519E-2
1.129527898E0	-1.125532627E0	4.355705082E-1	-1.350345612E-1
1.137618129E0	-9.526243210E-1	3.553843498E-1	-9.062194824E-2
1.145606115E0	-8.299064636E-1	3.404899836E-1	2.749633789E-2
1.153946475E0	-6.849207878E-1	3.762603998E-1	-5.252933502E-2
1.162072744E0	-4.048824310E-1	3.623842895E-1	-1.768312454E-1
1.170173321E0	-2.645592690E-1	5.801537633E-1	4.707050323E-2
1.178300052E0	-2.867116928E-1	6.870663166E-1	-8.072185516E-2
1.186488706E0	1.415586472E-2	4.428068995E-1	-3.320560455E-1
1.194634283E0	5.136537552E-2	2.388311327E-1	-2.565340996E-1
1.202761206E0	4.266405106E-2	-2.173602581E-2	-1.858167648E-1
1.210872975E0	6.386518478E-2	-1.987442970E-1	-2.969932556E-1
1.219014321E0	2.278933525E-1	-3.478170037E-1	-3.753213882E-1
1.227031345E0	3.601856232E-1	-3.449164033E-1	-5.701766014E-1
1.235331283E0	3.946866989E-1	-2.382951975E-1	-6.994953156E-1
1.243473167E0	5.909304619E-1	-1.144450903E-1	-7.785110474E-1
1.251586936E0	8.117666245E-1	-7.492268085E-2	-7.658114433E-1
1.259714282E0	9.809989929E-1	-1.564738750E-1	-6.851682663E-1
1.267822205E0	1.000851154E0	-1.770120859E-1	-7.291698456E-1
1.275917321E0	1.000074387E0	-1.839129925E-1	-1.041022778E0
1.284045128E0	1.150825500E0	-2.709175348E-1	-9.430155754E-1
1.292147782E0	1.043680668E0	-3.067846298E-1	-4.118199348E-1
1.300273859E0	6.146068573E-1	-2.886239290E-1	-4.497337341E-1
1.308276884E0	6.729345322E-1	-3.084659576E-1	-1.034005165E0
1.316605975E0	8.028259277E-1	-2.815818787E-1	-1.454356670E0
1.324732244E0	6.737174988E-1	-1.963796616E-1	-1.450506687E0
1.332853244E0	5.028986931E-1	-8.358073235E-2	-1.430665016E0
1.340994513E0	3.716106415E-1	3.661870956E-2	-1.657454967E0
1.349184590E0	6.585392952E-1	-1.247205734E-1	-2.091343880E0
1.357315628E0	4.794049263E-1	1.476142406E-1	-1.943115711E0
1.365458051E0	3.504962921E-1	5.679252148E-1	-1.355046749E0
1.373576474E0	1.637063026E-1	9.586001635E-1	-1.026259899E0
1.381704667E0	2.272357941E-1	1.197688580E0	-1.144433022E0
1.389701461E0	5.557184219E-1	1.426766038E0	-1.048629284E0
1.398037013E0	5.048327446E-1	1.831967950E0	-4.160676003E-1
1.406163936E0	4.452333450E-1	2.134693623E0	-3.604865074E-1
1.414273090E0	6.788015366E-1	1.868499517E0	-9.046530724E-1
1.422399974E0	7.308244705E-1	1.191287756E0	-7.677211761E-1
1.430587820E0	4.289045334E-1	4.545133114E-1	-4.508748055E-1
1.438733589E0	2.043123245E-1	-2.611479759E-1	-4.181618690E-1
1.446862397E0	-1.205463409E-1	-6.882638931E-1	-4.087176323E-1
1.454970974E0	-2.811374664E-1	-9.603507519E-1	-6.773734093E-1
1.463111282E0	-6.846899986E-1	-1.004252911E0	-4.209971428E-1
1.471089268E0	-5.373826027E-1	-1.320743084E0	-3.259248734E-1
1.479429166E0	-1.883759499E-1	-1.478471279E0	-7.349014282E-1
1.487573012E0	2.313370705E-1	-1.562361240E0	-8.904099464E-1
1.495686897E0	7.909631729E-2	-9.082822800E-1	-5.443949699E-1
1.503783589E0	-2.260928154E-1	-3.867733479E-1	-3.808379173E-1
1.511988474E0	8.444800377E-1	-1.769931316E-1	-9.935755730E-1
1.520119205E0	8.462924957E-1	3.098573685E-1	-1.299787521E0
1.528212858E0	7.671360970E-1	7.773034573E-1	-1.151460171E0
1.536309858E0	7.357025146E-1	8.284068108E-1	-1.036128998E-1
1.544436974E0	7.090067863E-1	6.936049461E-2	4.425396919E-1
1.552580691E0	1.398636818E0	-8.913476467E-1	-3.084077835E-1
1.560769127E0	2.556615353E0	-1.944975853E0	-6.258673668E-1
1.568896512E0	3.305477142E0	-3.313619137E0	1.370611191E-1
1.577029435E0	3.103121758E0	-4.818985939E0	1.767065525E0
1.585170935E0	3.505452156E0	-5.617239952E0	2.764777184E0
1.593358397E0	3.264890671E0	-5.516064644E0	2.855833530E0
1.601487820E0	3.129205227E0	-4.417913437E0	2.953949451E0
1.609629166E0	2.482880592E0	-3.930370808E0	2.335490704E0
1.617764973E0	2.921799183E0	-3.443226099E0	1.711333752E0
1.625892627E0	2.990099907E0	-3.084214926E0	1.733780861E0
1.633925076E0	3.101472855E0	-3.129830837E0	1.432551384E0
1.642225550E0	3.156037807E0	-3.010545969E0	6.121630669E-1
1.650351627E0	2.928441525E0	-2.861705780E0	-4.640550613E-1
1.658441127E0	2.168827057E0	-3.209689140E0	-1.383471012E0
1.666566665E0	1.547127724E0	-2.204164982E0	-3.187864304E0
1.674752242E0	2.208032131E0	-7.925348282E-1	-3.757407188E0
1.682893896E0	2.468205452E0	6.776230335E-1	-3.920800924E0
1.691020665E0	2.277393818E0	1.476877928E0	-4.077086926E0
1.699127973E0	2.439045906E0	1.835354090E0	-3.996016979E0
1.707269358E0	2.611343384E0	1.562359571E0	-2.916116476E0
1.715266076E0	1.929664612E0	7.244257331E-1	-2.285832644E0
1.723586319E0	2.338949203E0	3.110518754E-1	-1.943761349E0
1.731727973E0	1.568238258E0	-1.438755035E0	-1.358750105E0
1.739836473E0	1.438260078E0	-2.662737846E0	-2.223313332E0
1.747963319E0	9.632215500E-1	-3.631712914E0	-1.860907316E0
1.756166165E0	1.937618256E-1	-3.901296616E0	-9.478807449E-1
1.764295242E0	1.222763062E-1	-4.223144054E0	-6.329383850E-1
1.772420473E0	-4.088644981E-1	-5.018888474E0	-4.502983093E-1
1.781571127E0	-1.454948425E0	-5.780223846E0	4.388241768E-1
1.789732242E0	-1.704908371E0	-6.515810013E0	1.603691578E0
1.797785268E0	-2.034985542E0	-5.650038719E0	1.419249535E0
1.806064088E0	-1.429510593E0	-4.948790550E0	2.391207695E0
1.814191280E0	-2.473950386E-1	-3.712815523E0	4.138498783E0
1.822326934E0	-1.812612057E0	-5.072355270E0	3.098699093E0
1.830468973E0	-7.574181557E-1	-5.149742603E0	3.412148952E0
1.838656203E0	4.149446487E-1	-7.198750496E0	2.645755768E0
1.846783626E0	9.938797951E-1	-8.385311127E0	1.739331722E0
1.854925088E0	7.393188477E-1	-8.605120659E0	1.383315086E0
1.863065511E0	-2.334918976E-1	-8.588756561E0	1.484138489E0
1.871193126E0	-2.530706596E1	-1.976701021E0	-9.785884857E0
1.879276653E0	-2.938605881E1	4.605372906E0	-1.350450611E1
1.887524472E0	-1.289055634E1	4.446527481E0	-6.417477131E0
1.895650857E0	-3.103320122E0	3.053977966E0	-8.696095943E-1
1.904797088E0	9.968762398E-1	2.494423389E0	-2.382049561E-1
1.921148088E0	7.388800144E0	-9.280080795E-1	3.263884544E0
1.929292664E0	1.177984428E1	-3.068617344E0	3.729499340E0
1.937419511E0	6.318364620E0	-5.719723701E0	3.138735056E0
1.945556088E0	5.443820477E0	-7.094417572E0	1.304236412E0
1.953695434E0	2.923767567E0	-6.030799389E0	6.357214451E-1
1.961768806E0	-1.116909027E0	-5.721791744E0	1.039664268E0
1.970013395E0	-3.453193665E0	-6.557099819E0	5.116841793E-1
1.978153472E0	-6.543349266E0	-6.368911743E0	-3.630955219E-1
1.986286549E0	-8.517141342E0	-6.146909714E0	-2.137566090E0
1.994412357E0	-9.739758492E0	-5.214097977E0	-3.454850674E0
2.002464422E0	-1.100567245E1	-3.031057835E0	-4.333075047E0
2.010611703E0	-1.114740086E1	-1.071891785E0	-4.697214127E0
2.018737164E0	-9.907280922E0	7.941741943E-1	-5.349179268E0
2.026826318E0	-1.190062618E1	5.199129105E0	-6.139198303E0
2.034951318E0	-1.280134296E1	9.272747993E0	-6.568203926E0
2.042978229E0	-1.317926598E1	1.233305168E1	-5.628800869E0
2.051279356E0	-1.191078663E1	1.432725525E1	-2.457826853E0
2.059405049E0	-8.709622383E0	1.360978794E1	2.353790998E-1
2.067538164E0	-4.695988655E0	1.172966194E1	2.636118889E0
2.075677395E0	-1.018049121E0	9.780377388E0	2.598804712E0
2.083863664E0	1.656630397E0	7.453425407E0	8.478066921E-1
2.091990702E0	3.254716873E0	5.369296074E0	-9.097297192E-1
2.100132048E0	3.870750427E0	3.248086929E0	-1.738680720E0
2.108267433E0	2.854087830E0	1.478818893E0	-1.991598725E0
2.116395241E0	2.527212381E0	-2.217569351E-1	-1.562980175E0
2.124419999E0	2.311260700E0	-1.611564159E0	-9.911429882E-1
2.132728587E0	1.755005598E0	-2.589298725E0	-7.152537107E-1
2.140856664E0	1.323155642E0	-3.354136944E0	-7.028806210E-1
2.148946894E0	1.520245075E0	-3.851494312E0	-3.549916744E-1
2.157073356E0	1.315860987E0	-3.760011196E0	-7.257137299E-1
2.165225268E0	1.051075697E0	-3.316966534E0	-1.106713891E0
2.173403779E0	9.750540257E-1	-2.608075619E0	-8.520767689E-1
2.181529625E0	6.071023941E-1	-1.686721325E0	-7.996849418E-1
2.189643114E0	2.699089050E-1	-8.924274445E-1	-5.511363745E-1
2.197811010E0	1.292835474E0	-8.630237579E-1	-2.511169910E-1
2.205857229E0	7.068355083E-1	-8.264341354E-1	-2.942961454E-1
2.214116383E0	1.594293594E0	-1.094702244E0	-3.980433941E-1
2.222267586E0	2.373077154E0	-1.107055664E0	-8.954077959E-1
2.230387883E0	3.724254370E0	-7.080593109E-1	-9.807006717E-1
2.238533548E0	7.728727341E0	-5.191001892E-1	-1.351510525E0
2.246687922E0	5.032284737E0	1.561284065E0	4.878407717E-1
2.254864548E0	2.247942686E0	3.397602081E0	3.841881752E-1
2.262990279E0	4.495964050E-1	2.957808495E0	-1.341935396E0
2.271076740E0	-5.658590794E-1	1.491222382E0	-2.599944353E0
2.279201394E0	-1.659699440E0	5.361423492E-1	-3.241374731E0
2.287196614E0	-2.322027206E0	-1.163959503E-2	-3.175150871E0
2.295529663E0	-1.811116457E0	-3.028726578E-1	-2.016875267E0
2.303656240E0	-1.210415602E0	-2.910871506E-1	-8.244742751E-1
2.311792345E0	-8.960807323E-1	4.555225372E-2	3.092961311E-1
2.319934971E0	-4.226186275E-1	3.814840317E-1	6.713858843E-1
2.328083999E0	-1.776008606E-1	7.317533493E-1	4.662253857E-1
2.336254240E0	2.039356232E-1	6.556348801E-1	1.373744011E-2
2.344395383E0	4.111480713E-1	4.911642075E-1	-4.370177984E-1
2.352504778E0	5.084838867E-1	2.415437698E-1	-6.996663213E-1
2.360629278E0	6.220941544E-1	-3.421592712E-2	-1.150687218E0
2.368658883E0	9.794030190E-1	-4.417533875E-1	-1.344105959E0
2.376962855E0	1.109342575E0	-7.948150635E-1	-1.071120620E0
2.385087883E0	1.152223110E0	-9.995331764E-1	-6.755617857E-1
2.393189240E0	1.226854324E0	-1.546973705E0	2.042976618E-1
2.401317663E0	6.538581848E-2	-1.523453236E0	-4.693230987E-1
2.409493460E0	-8.854250908E-1	-1.327701569E0	-3.589359522E-1
2.417651740E0	-5.394113064E-1	-9.920549393E-1	-4.567257762E-1
2.425779932E0	1.739835739E-2	-6.265659332E-1	-6.111614704E-1
2.433887345E0	4.149761200E-1	-3.671741486E-2	-5.450839400E-1
2.442028201E0	6.167769432E-1	2.297163010E-1	-1.753709316E-1
2.450172729E0	7.055053711E-1	5.608778000E-1	-1.800353527E-1
2.458344893E0	7.118344307E-1	8.061857224E-1	-1.087690592E-1
2.466484739E0	5.695891380E-1	9.682006836E-1	6.698620319E-2
2.474600162E0	4.965734482E-2	9.236011505E-1	9.935140610E-3
2.482725470E0	-6.403698921E-1	6.551504135E-1	-3.632169366E-1
2.490890614E0	-7.996704578E-1	3.343820572E-1	-2.465396523E-1
2.499053393E0	-2.480354309E-1	1.031370163E-1	-6.529951096E-2
2.507179739E0	5.816607475E-1	-5.851268768E-2	5.603253841E-2
2.515284355E0	8.998913765E-1	-7.121849060E-2	9.839367867E-2
2.523409508E0	9.130101204E-1	1.659803391E-1	3.984740973E-1
2.531430575E0	6.153898239E-1	2.619123459E-1	4.153901339E-1
2.539741854E0	9.006452560E-2	1.272697449E-1	2.186398506E-1
2.547870816E0	-3.270592690E-1	1.422462463E-1	5.632237196E-1
2.556012114E0	-8.642563820E-1	4.002647400E-1	8.728170395E-2
2.564154508E0	-4.845566750E-1	-2.634429932E-2	2.293292284E-1
2.572333691E0	-6.007454395E-1	-4.210090637E-2	7.607624531E-1
2.580473085E0	-5.165832043E-1	-2.020359039E-2	6.082744598E-1
2.588616316E0	-5.375630856E-1	-3.265838623E-1	-4.646902680E-1
2.596733931E0	3.955297470E-1	-1.008798122E0	-1.630523205E-1
2.604828816E0	2.810544968E-1	-1.513128757E0	-1.298261881E-1
2.612849729E0	7.330846786E-1	-1.713812351E0	-9.034283161E-1
2.621161816E0	1.319178104E0	-1.669062614E0	-5.131205320E-1
2.629287739E0	8.453040123E-1	-1.822719097E0	5.800503492E-1
2.637385662E0	1.628053665E0	-1.647963047E0	1.857774258E-1
2.653666546E0	2.118185997E0	-6.223802567E-1	-1.283859968E0
2.661810585E0	1.335853577E0	-7.294368744E-2	-1.396070719E0
2.669937931E0	4.690027237E-2	3.840694427E-1	-1.516280651E0
2.678046623E0	-8.049237728E-1	1.086627960E0	-1.506471634E0
2.686189469E0	-1.396188021E0	1.976755142E0	-1.413825631E0
2.694211806E0	-1.612636089E0	2.529308319E0	-1.562938213E0
2.702509008E0	-1.509066343E0	2.699343681E0	-1.221505880E0
2.710650662E0	-1.207073212E0	2.266180992E0	-6.898892522E-1
2.718759738E0	-1.271853447E0	1.739576340E0	-5.758737922E-1
2.726887892E0	-1.066608906E0	1.227568626E0	-1.751911640E-2
2.735050614E0	-6.326251030E-1	9.266414642E-1	7.915045023E-1
2.743220161E0	-3.564357758E-2	6.446132660E-1	1.400740862E0
2.751334421E0	9.377527237E-2	3.548784256E-1	1.433552265E0
2.759429383E0	-2.362346649E-2	2.556753159E-1	1.040317178E0
2.767571277E0	-3.566789627E-2	1.708927155E-1	6.775383949E-1
2.775520614E0	4.422149658E-1	1.358880997E-1	4.398599863E-1
2.783902546E0	1.503372192E-2	1.299705505E-1	4.052715302E-1
2.791996161E0	-4.975991249E-1	-1.928901672E-2	3.655076027E-1
2.800111853E0	-1.577687263E-1	-3.347911835E-1	3.757815361E-1
2.808252930E0	1.812963486E-1	-4.381370544E-1	4.329111576E-1
2.816394806E0	-6.592302322E-1	-2.899503708E-1	6.149429083E-1
2.824571853E0	-1.796047688E0	-3.091087341E-1	7.575985193E-1
2.832714892E0	-1.592196941E0	-4.185237885E-1	5.609351397E-1
2.840835584E0	-9.353373051E-1	-5.345945358E-1	3.481930494E-1
2.848962161E0	-6.473803520E-1	-6.298732758E-1	3.879630566E-2
2.856973075E0	-3.050315380E-1	-5.688381195E-1	6.868791580E-2
2.865296776E0	1.486134529E-1	-5.325870514E-1	1.765266657E-1
2.873425699E0	3.529841900E-1	-7.718343735E-1	-9.650446177E-1
2.881523276E0	-1.758279800E-1	-7.164211273E-1	-7.786514163E-1
2.889651892E0	-7.770838737E-1	-3.850507736E-1	-1.861217022E-1
2.897841853E0	-1.066480160E0	9.402847290E-2	3.535284996E-1
2.905986738E0	1.300270557E-1	3.412055969E-1	5.663034916E-1
2.914114045E0	1.949012756E0	4.020252228E-1	2.717983723E-1
2.922248584E0	3.900555611E0	1.882114410E-1	-1.394423246E-1
2.930391315E0	4.583260536E0	-1.555404663E-1	-5.470823646E-1
2.938524998E0	4.193765163E0	-4.320859909E-1	-9.382517338E-1
2.946743661E0	2.856915712E0	-5.055646896E-1	-1.125316620E0
2.954885545E0	1.987519741E0	-2.933063507E-1	-1.045091510E0
2.963027122E0	1.267021894E0	5.867958069E-3	-7.958955765E-1
2.979360314E0	-5.141739845E-1	2.499256134E-1	3.159518242E-1
2.987489699E0	-1.202404976E0	1.505794525E-1	8.235585690E-1
2.995618007E0	-1.817740798E0	-2.210140228E-2	1.090336919E0
3.003712353E0	-2.012915611E0	-1.438617706E-1	1.122862577E0
3.011839737E0	-1.367855549E0	-2.686691284E-2	1.015908122E0
3.019863267E0	-9.043192863E-2	-7.205867767E-2	6.444786787E-1
3.028176006E0	9.586856365E-1	-2.408552170E-1	1.228173971E-1
3.036304929E0	3.877360821E-1	-2.034711838E-1	-9.292232990E-2
3.044421353E0	-7.441689968E-1	6.447029114E-2	-1.745291948E-1
3.052563506E0	-1.183671474E0	4.100446701E-1	-2.122554779E-1
3.060753199E0	-6.138014793E-1	4.857025146E-1	-2.635512352E-1
3.068883429E0	-5.084705353E-2	2.285203934E-1	-4.074187875E-1
3.077028237E0	-1.245021820E-3	7.078742981E-2	-3.988759518E-1
3.085145160E0	1.345324516E-2	-3.043079376E-2	-4.318035245E-1
3.093273775E0	1.591086388E-2	-1.845073700E-1	-4.048574567E-1
3.101299806E0	-1.306121349E-1	-6.343059540E-1	-3.750038743E-1
3.109610737E0	1.891396046E-1	-7.060689926E-1	-3.134884834E-1
3.117739352E0	2.895090580E-1	-5.078344345E-1	-1.795543432E-1
3.125845006E0	7.069306374E-1	-3.763351440E-1	-1.067593098E-1
3.133971237E0	6.221139431E-1	-3.837060928E-1	2.172930241E-1
3.142160237E0	-1.518504620E-1	1.075553894E-2	5.212805271E-1
3.150305160E0	-3.138368130E-1	2.408847809E-1	7.091127634E-1
3.158432698E0	-4.283769131E-1	2.369918823E-1	7.117713690E-1
3.166547660E0	-9.015591145E-1	2.958707809E-1	4.464081526E-1
3.174688621E0	1.127810001E0	-1.410341263E-1	-3.266822100E-1
3.182758536E0	8.763258457E-1	-5.511198044E-1	-4.624758363E-1
3.191004929E0	-4.052419662E-1	-5.296630859E-1	-4.277758598E-1
3.199147698E0	-6.908774376E-1	2.154397964E-1	-3.443877101E-1
3.223591044E0	-9.735970497E-1	1.784696579E-1	-1.240082264E0
3.231719813E0	-7.589306831E-1	-3.728618622E-1	-1.289905906E0
3.239845429E0	4.503202438E-2	-6.197252274E-1	-1.170509458E0
3.247950044E0	-4.261519909E-1	-5.042419434E-1	-9.397788644E-1
3.256076083E0	-4.494886398E-1	-2.096157074E-1	-6.582447290E-1
3.264185152E0	-7.688040733E-1	-2.843761444E-2	-3.839429021E-1
3.272408698E0	-1.131999493E-1	1.127939224E-1	-7.181167603E-2
3.280536044E0	4.695916176E-1	3.833131790E-1	2.242816091E-1
3.288654352E0	4.080643654E-1	3.657360077E-1	2.550096512E-1
3.296797005E0	1.662218571E-1	1.605710983E-1	1.851548553E-1
3.304985352E0	4.461524487E-1	1.537551880E-1	-1.507002711E-1
3.306224229E0	4.978919029E-1	1.808538437E-1	-2.023059726E-1
3.309077659E0	4.428253174E-1	2.143735886E-1	-2.477958202E-1
3.310637459E0	3.470573425E-1	2.478923798E-1	-3.004682064E-1
3.313114198E0	2.488949299E-1	2.646512985E-1	-3.555348814E-1
3.321253582E0	1.275477409E-1	1.040010452E-1	-4.854626954E-1
3.329368890E0	7.740950584E-2	-2.030239105E-1	-5.286164284E-1
3.337494390E0	-1.468677521E-1	-1.899909973E-1	-4.353746772E-1
3.345682382E0	-4.149491787E-1	-3.142280579E-1	-1.287324429E-1
3.353825044E0	-3.073282242E-1	-6.412229538E-1	1.339244843E-1
3.361952005E0	-8.453536034E-2	-6.232185364E-1	2.060390115E-1
3.370056236E0	-6.002247334E-1	-4.235630035E-1	1.853472590E-1
3.378183005E0	-8.718061447E-2	-1.364717484E-1	1.440507770E-1
3.386369582E0	-1.824538708E-1	5.418586731E-2	1.268291473E-2
3.394511659E0	-5.313885212E-1	2.072248459E-1	-2.527147532E-2
3.402638620E0	-5.550069809E-1	1.724290848E-1	-5.385345221E-2
3.410752543E0	-3.441636562E-1	5.115318298E-2	6.196367741E-2
3.418892043E0	-7.906579971E-2	-6.589794159E-2	2.199895382E-1
3.426924075E0	2.722265720E-1	-2.509403229E-2	1.046402454E-1
3.435203966E0	6.299569607E-1	1.247930527E-1	-5.922377110E-3
3.443343389E0	6.196253300E-1	2.267322540E-1	-1.082069874E-1
3.451458659E0	3.446979523E-1	1.810789108E-1	-1.225152016E-1
3.459585543E0	1.133747101E-1	-2.708826065E-1	-2.627636194E-1
3.467787582E0	1.798214912E-1	-9.230556488E-1	-3.236938715E-1
3.475916159E0	7.597529888E-1	-8.603677750E-1	-2.538356483E-1
3.484043274E0	7.120356560E-1	-9.778404236E-2	-3.381465077E-1
3.492149351E0	5.748260021E-1	1.844196320E-1	8.673256636E-2
3.500276120E0	6.565957069E-1	2.106828690E-1	4.239441156E-1
3.508329382E0	3.600974083E-1	1.468973160E-1	5.751981735E-1
3.516607158E0	-2.224087715E-2	7.514190674E-2	7.149389386E-1
3.524734620E0	-2.100565434E-1	-1.354312897E-2	5.358467698E-1
3.532851197E0	-5.730273724E-1	-1.045331955E-1	3.031535149E-1
3.540992889E0	-4.663121700E-1	-1.609649658E-1	4.105681777E-1
3.549181697E0	-4.869487286E-1	-2.704257965E-1	4.838845134E-1
3.557310812E0	-6.629045010E-1	-1.579685211E-1	3.971989751E-1
3.565453889E0	-3.387820721E-1	-9.838495255E-1	-1.166854501E-1
3.573569351E0	-7.944114208E-1	-8.420658112E-1	-9.687924385E-2
3.589753921E0	-1.362090349E0	-7.465543747E-1	-1.206301451E-1
3.598025966E0	-1.186443806E0	-6.117439270E-1	-2.172712088E-1
3.606150158E0	-6.644670963E-1	-4.972372055E-1	-2.112401128E-1
3.614254389E0	2.423214912E-1	-3.207368851E-1	-9.081310034E-2
3.622380120E0	1.146152020E0	-2.253150940E-2	-4.936170578E-2
3.630567543E0	1.572559357E0	4.166154861E-1	1.055848002E-1
3.638710812E0	1.536812782E0	6.442775726E-1	1.389294267E-1
3.646835004E0	1.180686474E0	5.420341492E-1	5.547112226E-2
3.654941196E0	8.526735306E-1	2.763643265E-1	-4.710865021E-2
3.663078196E0	8.340997696E-1	-1.280794144E-1	-1.378457546E-1
3.671092267E0	8.816332817E-1	-4.754800797E-1	-2.189598680E-1
3.679388966E0	7.670989037E-1	-8.228492737E-1	-3.322013617E-1
3.687527235E0	-3.129358292E-1	-8.006305695E-1	-4.981141090E-1
3.695641235E0	-3.410310745E-1	-8.262929916E-1	-4.864762127E-1
3.703766081E0	-1.357693672E-1	-5.539655685E-1	-3.790358305E-1
3.711967850E0	4.115695953E-1	2.684898376E-1	-5.359277129E-2
3.720094388E0	8.993597031E-1	1.087754250E0	2.962310314E-1
3.728219311E0	1.065464020E0	1.710950851E0	6.914122701E-1
3.736308773E0	5.587577820E-2	1.817890167E0	9.952691793E-1
3.744401619E0	-2.142639160E-1	1.578826904E0	8.067644238E-1
3.752542267E0	1.362814903E0	2.517840385E0	-2.550838888E-1
3.760730850E0	1.182095528E0	4.434958458E0	-1.264036775E0
3.768851613E0	-1.229170799E0	4.900282860E0	-1.435628653E0
3.776990542E0	-3.383912802E0	3.460205078E0	-1.025379181E0
3.785091421E0	-2.096405506E0	1.391049385E0	7.432222366E-2
3.793209844E0	1.552023888E-1	-4.258832932E-1	1.277821779E0
3.801403113E0	1.623674393E0	-1.087975502E0	2.206853867E0
3.809530151E0	-1.110086679E0	-4.111862183E-1	2.370124340E0
3.817664882E0	-2.243124247E0	-3.025798798E-1	2.648715019E0
3.825817965E0	-2.401771069E0	-7.560195923E-1	2.154456139E0
3.833863459E0	-2.284298897E0	-2.006023884E0	1.601815820E0
3.842130113E0	-7.664904594E-1	-3.964161396E0	9.929769635E-1
3.850278503E0	4.218564034E-1	-5.513850212E0	3.864107728E-1
3.858358497E0	-1.035030603E0	-6.121843338E0	9.162912965E-1
3.866480113E0	-3.445140123E0	-6.999607563E0	3.076010942E0
3.874631651E0	2.202653885E-1	-8.366732597E0	-2.762587786E0
3.882821767E0	6.407537937E0	-1.829841137E0	-4.362718105E0
3.890944190E0	8.658986092E0	3.662668228E0	-1.178054047E1
3.899080997E0	1.489822865E0	6.341673851E0	-4.708952010E-1
3.907226734E0	-7.961962223E-1	6.750308990E0	5.056402206E0
3.915189728E0	1.265172958E0	6.298800468E0	5.906126499E0
3.923540311E0	2.143781662E0	4.802083015E0	4.685427189E0
3.931679618E0	4.969067574E-1	2.388828278E0	2.516339302E0
3.939814349E0	-7.304382324E-2	9.985876083E-1	1.374866128E0
3.947908888E0	1.515402794E-1	1.167545319E-1	1.248936653E0
3.956112118E0	5.487031937E-1	-3.922214508E-1	1.534591794E0
3.964241426E0	-5.378723145E-3	-6.349201202E-1	4.996281624E0
3.972367157E0	-2.237102985E0	-1.268471241E0	3.794522285E0
3.980455118E0	-3.114271641E0	-1.515662670E0	-3.115603924E-1
3.988581887E0	-1.129573822E0	-1.887627125E0	-1.544090509E-1
3.996589997E0	-8.863930702E-1	-2.051622391E0	-3.045858741E-1
4.004913041E0	-6.435770988E-1	-1.748343468E0	-8.570545912E-1
4.013040118E0	-2.373237610E-1	-1.149435520E0	-7.268828154E-1
4.021179233E0	1.874349117E-1	-6.543140411E-1	6.063215733E-1
4.037503656E0	-5.782127380E-3	-8.723068237E-2	2.024097443E0
4.045630003E0	-1.628603935E-1	9.801197052E-2	1.584619999E0
4.053768272E0	1.747193336E-1	2.152824402E-2	8.833008409E-1
4.061874695E0	4.385547638E-1	1.527433395E-1	-1.184089184E-1
4.070000810E0	6.922080517E-1	4.127073288E-1	-1.388279915E0
4.078021997E0	1.114155293E0	5.995426178E-1	-1.882180929E0
4.086328502E0	1.845204830E0	6.523323059E-1	-1.728873730E0
4.094452541E0	2.262042046E0	7.592992783E-1	-1.585823417E0
4.102546695E0	1.694476128E0	1.124473572E0	-9.138435721E-1
4.110641425E0	1.118862629E-1	4.471101761E-1	2.824941874E-1
4.124498459E0	7.076563835E-1	-4.062089920E-1	-1.438046694E-1
4.126972887E0	5.831580162E-1	-3.224124908E-1	-1.940829158E-1
4.135099695E0	-9.350626469E-1	-9.051923752E-1	2.233688831E-1
4.143242233E0	-7.910585403E-1	-1.537135601E0	1.504442096E-1
4.151383271E0	-2.009205818E-1	-1.158309460E0	-1.355605721E-1
4.159535613E0	5.607318878E-2	-9.114170074E-1	-3.239580989E-1
4.183948887E0	5.119473934E-1	-1.860542297E-1	-1.521824121E0
4.197646497E0	5.638992786E-1	-6.887245178E-2	-1.531226158E0
4.200282425E0	6.046006680E-1	-8.323764801E-2	-1.610234737E0
4.208410771E0	7.087209225E-1	-2.475004196E-1	-1.812142968E0
4.216535463E0	7.847867012E-1	-4.644651413E-1	-1.890733361E0
4.224629348E0	3.739438057E-1	-8.594312668E-1	-1.643178225E0
4.232719348E0	1.768045425E-1	-1.177188873E0	-1.484171867E0
4.240725959E0	2.217338085E-1	-1.360292912E0	-1.438390732E0
4.249047348E0	3.520464897E-1	-1.391342163E0	-1.424960732E0
4.257173233E0	3.237485886E-1	-1.155926704E0	-1.440618873E0
4.265285732E0	2.439413071E-1	-8.740901947E-1	-1.433160305E0
4.273423425E0	2.484931946E-1	-6.091918945E-1	-1.471886158E0
4.281609540E0	2.873988152E-1	-3.468570709E-1	-1.440840364E0
4.289736309E0	2.663495541E-1	-2.887678146E-1	-1.330001235E0
4.297876848E0	-3.570437431E-2	-2.800149918E-1	-1.218587875E0
4.305991540E0	-8.656835556E-2	-4.957656860E-1	-1.118493795E0
4.314085578E0	-1.451671124E-1	-6.128005981E-1	-1.055470705E0
4.330418271E0	-5.302548409E-2	-6.923084259E-1	-1.032177448E0
4.338543732E0	-8.104562759E-3	-6.642961502E-1	-1.072058916E0
4.346647117E0	-2.081048489E-1	-5.495767593E-1	-1.154336810E0
4.354774309E0	-1.408429146E-1	-6.057252884E-1	-1.150466919E0
4.362962232E0	-4.573283195E-1	-5.488805771E-1	-1.191125870E0
4.371106578E0	-5.777211189E-1	-4.285058975E-1	-1.060890198E0
4.379232347E0	-2.640738487E-1	-3.134231567E-1	-7.503398061E-1
4.387346232E0	3.164517879E-1	-2.289581299E-1	-3.850119114E-1
4.395486847E0	9.793555737E-1	-1.414747238E-1	-2.718281746E-2
4.403545074E0	1.509289026E0	9.815216064E-3	2.741457820E-1
4.411800732E0	1.860599041E0	2.372388840E-1	3.819077015E-1
4.419906343E0	2.100386143E0	5.100727081E-1	3.737385273E-1
4.428048616E0	2.112706184E0	8.169107437E-1	1.850354671E-1
4.436172655E0	2.106955051E0	1.132155418E0	-4.664742947E-2
4.444304497E0	1.610669613E0	1.369758606E0	-3.360930681E-1
4.452506770E0	8.351716995E-1	1.568419456E0	-6.148766279E-1
4.460633886E0	6.945848465E-2	1.290307999E0	-1.049618959E0
4.468726882E0	-3.069095612E-1	8.821067810E-1	1.879334450E-2
4.476865270E0	-3.150377274E-1	1.884918213E-1	1.288884282E0
4.484889382E0	-7.771635056E-2	-1.924619675E-1	1.793016553E0
4.493196616E0	3.202524185E-1	-3.515377045E-1	1.445301771E0
4.501322809E0	3.823585510E-1	-5.308523178E-1	1.034789324E0
4.509431308E0	-1.831879616E-1	-3.751068115E-1	6.038826704E-1
4.517575732E0	-5.281465054E-1	-1.673536301E-1	1.418037415E-1
4.525762732E0	-8.233962059E-1	1.862239838E-2	-1.799001694E-1
4.533892770E0	-1.295155525E0	2.032108307E-1	-4.154605865E-1
4.542034116E0	-1.333457947E0	2.885684967E-1	-6.908038855E-1
4.550140270E0	-1.383089066E0	3.847112656E-1	-9.433177710E-1
4.558264847E0	-1.585805655E0	4.358901978E-1	-1.014287949E0
4.566332843E0	-1.961674452E0	4.687414169E-1	-9.600707889E-1
4.574595193E0	-2.337718010E0	5.978355408E-1	-8.206816912E-1
4.582721501E0	-2.417853594E0	7.138299942E-1	-6.348986626E-1
4.590826616E0	-2.439300060E0	8.455419540E-1	-4.389818907E-1
4.598953577E0	-2.312093496E0	9.278240204E-1	-2.063856125E-1
4.607142539E0	-2.211613417E0	1.055210114E0	4.093861580E-2
4.615288308E0	-2.093115568E0	1.149368286E0	2.095330954E-1
4.623414885E0	-1.997910023E0	1.252130508E0	2.961913943E-1
4.631529500E0	-1.850188613E0	1.278726578E0	3.313238025E-1
4.639671770E0	-1.631866455E0	1.235384941E0	3.584316373E-1
4.647697651E0	-1.124275446E0	1.055529594E0	3.174431324E-1
4.655987885E0	-7.188923359E-1	8.734149933E-1	2.387311459E-1
4.664127728E0	-8.603367805E-1	7.240114212E-1	1.387329102E-1
4.672243039E0	-8.703989983E-1	6.198015213E-1	3.708523512E-1
4.680368962E0	-7.287719250E-1	3.622550964E-1	6.388895512E-1
4.688571539E0	-3.117842674E-1	8.429336548E-2	4.268326163E-1
4.696707154E0	2.884531021E-2	-1.567583084E-1	4.124757648E-1
4.704832462E0	1.605517864E-1	-2.759990692E-1	4.167144299E-1
4.712938962E0	2.533271313E-1	-3.211889267E-1	3.622345328E-1
4.721032731E0	3.807482719E-1	-2.790870667E-1	3.238500953E-1
4.729023535E0	5.535988808E-1	-2.397222519E-1	3.122494221E-1
4.737366038E0	6.111216545E-1	-1.796646118E-1	2.836881876E-1
4.745492731E0	7.683396339E-1	-1.576213837E-1	2.572722435E-1
4.753608346E0	9.068224430E-1	-1.063880920E-1	1.620221138E-1
4.761716731E0	1.059105635E0	-9.468650818E-2	7.121682167E-2
4.769885958E0	1.166729450E0	-9.483051300E-2	5.109405518E-2
4.778033692E0	1.162397861E0	-2.954673767E-2	6.275135279E-2
4.786175461E0	1.145603418E0	1.086330414E-2	2.844780684E-2
4.794293230E0	1.100877047E0	-2.830505371E-3	-9.801924229E-2
4.802421769E0	1.011323929E0	-6.336212158E-2	-1.987002492E-1
4.810425420E0	8.394582272E-1	-1.997737885E-1	-2.739666700E-1
4.818754423E0	6.635060310E-1	-2.802600861E-1	-3.085972667E-1
4.826846230E0	5.049068928E-1	-3.006591797E-1	-3.104732633E-1
4.834951653E0	3.768048286E-1	-2.854795456E-1	-2.718336582E-1
4.843078115E0	1.937596798E-1	-2.469005585E-1	-2.397592068E-1
4.851252766E0	6.040167809E-2	-1.904020309E-1	-2.319681048E-1
4.859410999E0	-5.689215660E-2	-1.265497208E-1	-2.506026626E-1
4.867537807E0	-1.784601212E-1	-7.641315460E-2	-2.585976720E-1
4.875650612E0	-3.240022659E-1	-5.286979675E-2	-2.206947207E-1
4.883794192E0	-5.527086258E-1	-1.804828644E-2	-1.635561585E-1
4.891836843E0	-1.517496109E-1	2.326011658E-3	-2.082822323E-1
4.900107922E0	2.198767662E-1	-3.481864929E-3	-2.300062776E-1
4.908246922E0	5.528926849E-1	6.123161316E-2	-2.450324297E-1
4.916362653E0	4.157640934E-1	1.156806946E-1	-2.552791238E-1
4.924487192E0	2.644982338E-1	1.340770721E-1	-2.402499914E-1
4.932669612E0	2.833812237E-1	-2.155876160E-2	-2.329849601E-1
4.940818461E0	2.933158875E-1	3.783988953E-2	-3.633009195E-1
4.948942384E0	2.904462814E-1	2.916049957E-2	-5.094985962E-1
4.957046768E0	2.660591602E-1	-2.516326904E-1	-4.833420515E-1
4.965171961E0	3.974802494E-1	-5.234994888E-1	-4.883788824E-1
4.973183035E0	5.689287186E-1	-4.603691101E-1	-4.909529686E-1
4.981502114E0	5.117695332E-1	-4.857349396E-1	-4.028111696E-1
4.989627230E0	4.031097889E-1	-5.034265518E-1	-3.499103189E-1
4.997740037E0	2.631268501E-1	-5.450038910E-1	-3.671433330E-1
5.005878614E0	2.153344154E-1	-4.806289673E-1	-4.942713380E-1
5.014066383E0	3.781447411E-1	-3.385114670E-1	-6.560184956E-1
5.022196999E0	4.496471882E-1	-2.730131149E-1	-6.862286329E-1
5.030337576E0	3.509442806E-1	-3.460121155E-1	-5.662994981E-1
5.038453845E0	7.117605209E-2	-5.282030106E-1	-3.485678434E-1
5.046580191E0	-1.743505001E-1	-6.565074921E-1	-2.305679917E-1
5.054561497E0	-3.472943306E-1	-6.567506790E-1	-2.557843924E-1
5.062910381E0	-5.062088966E-1	-6.651105881E-1	-2.871401310E-1
5.071004768E0	-5.776629448E-1	-6.524057388E-1	-3.337981105E-1
5.079108999E0	-5.175905228E-1	-4.816961288E-1	-4.206309617E-1
5.087236306E0	-3.428194523E-1	-1.671504974E-1	-5.013442039E-1
5.095425037E0	-2.484176159E-1	1.183509827E-1	-4.449062943E-1
5.103568614E0	-9.949007034E-1	-9.048557281E-2	1.638957560E-1
5.111696152E0	-1.537287116E0	-2.086114883E-1	5.088334680E-1
5.119813922E0	-1.704231858E0	-1.557445526E-1	7.335607409E-1
5.127955345E0	-1.642133236E0	1.178274155E-1	8.180682063E-1
5.135972189E0	-1.665056229E0	5.817584991E-1	9.700942636E-1
5.144272421E0	-1.481569648E0	1.162503242E0	1.240039349E0
5.152412921E0	-1.329724789E0	1.562521935E0	1.610936999E0
5.160520498E0	-1.271766186E0	1.868852615E0	2.052749157E0
5.168646844E0	-1.241536617E0	2.094956398E0	2.442859650E0
5.176830381E0	-1.213173389E0	2.358326912E0	2.902817249E0
5.184977883E0	-1.208509207E0	2.608689308E0	3.504342794E0
5.193104960E0	-1.191304684E0	2.872380257E0	4.006395340E0
5.201193498E0	-9.935131073E-1	3.082501411E0	4.652560711E0
5.209319421E0	-5.646226406E-1	3.191398621E0	5.417902946E0
5.217385612E0	4.517412186E-2	3.137137413E0	5.909081459E0
5.225650383E0	7.071807384E-1	2.781133652E0	5.857998371E0
5.233777806E0	1.297672749E0	2.134120941E0	5.222205162E0
5.241912690E0	1.375471830E0	1.341177940E0	4.466205597E0
5.250054229E0	9.406645298E-1	4.623661041E-1	3.472805023E0
5.258240844E0	7.795550823E-1	-3.741550446E-1	2.587320089E0
5.266368344E0	9.740550518E-1	-1.075071335E0	1.865085363E0
5.274509459E0	1.156259298E0	-1.560545921E0	1.519258499E0
5.282647229E0	1.341817141E0	-1.925677299E0	1.535402298E0
5.290775421E0	1.620001793E0	-2.187221527E0	1.733785868E0
5.298836804E0	1.898010254E0	-2.191662788E0	1.882104158E0
5.307110613E0	1.995390654E0	-1.950003147E0	1.962898493E0
5.315238882E0	1.794425726E0	-1.607649326E0	1.899579287E0
5.323337267E0	1.249434710E0	-1.351050854E0	1.720427752E0
5.331466036E0	6.341516972E-1	-1.179137230E0	1.502343893E0
5.339652651E0	-2.359056473E-2	-1.034558296E0	1.369969130E0
5.347795613E0	-3.563694954E-1	-9.898014069E-1	1.383879542E0
5.355888844E0	-4.016845226E-1	-8.782491684E-1	1.194832563E0
5.364003921E0	-1.557266712E-1	-7.135877609E-1	9.141381979E-1
5.372144228E0	-3.928661346E-2	-6.527557373E-1	7.333724499E-1
5.380148073E0	3.117995262E-1	-6.898784637E-1	5.484502316E-1
5.388464113E0	5.994007587E-1	-7.249937057E-1	3.681862354E-1
5.396572613E0	6.591587067E-1	-8.869237900E-1	2.842893600E-1
5.404687767E0	7.686357498E-1	-1.065035343E0	2.554240227E-1
5.412781920E0	7.280216217E-1	-1.300608635E0	2.762153149E-1
5.420986343E0	8.146615028E-1	-1.406772137E0	1.212794781E-1
5.429118036E0	9.348938465E-1	-1.230387211E0	-1.200914383E-1
5.437244728E0	9.089798927E-1	-1.074795723E0	-3.378552198E-1
5.445351382E0	8.473620415E-1	-9.018087387E-1	-4.982575178E-1
5.453479882E0	7.206993103E-1	-7.639837265E-1	-6.069438457E-1
5.461484342E0	6.834526062E-1	-5.227193832E-1	-7.221931219E-1
5.469809728E0	6.558370590E-1	-3.365936279E-1	-8.420027494E-1
5.477935959E0	5.801982880E-1	2.682876587E-2	-9.374797344E-1
5.486042036E0	4.037027359E-1	4.295988083E-1	-1.040085793E0
5.494181189E0	9.643459320E-2	6.653118134E-1	-1.033146858E0
5.502366189E0	-2.168188095E-1	9.366636276E-1	-9.406878352E-1
5.510493305E0	-3.782594204E-1	1.431427002E0	-7.874593139E-1
5.518635382E0	-6.689476967E-1	1.772514343E0	-6.340601444E-1
5.526749535E0	-1.331963778E0	1.941473007E0	-3.250526190E-1
5.534875766E0	-1.622183323E0	2.075126648E0	7.584989071E-2
5.542875804E0	-1.925042391E0	2.139157295E0	5.333787203E-1
5.551205573E0	-1.754228830E0	2.192237854E0	8.551747799E-1
5.559300651E0	-1.719441891E0	2.366016388E0	1.088500381E0
5.567386304E0	-1.708379745E0	2.445544243E0	1.277939916E0
5.575479997E0	-1.848813891E0	2.501883507E0	1.464048743E0
5.583647650E0	-1.953832269E0	2.551729202E0	1.490876794E0
5.591808843E0	-1.767398477E0	2.593586922E0	1.315646648E0
5.599933497E0	-1.678405881E0	2.521105766E0	1.125026703E0
5.608064535E0	-1.555075407E0	2.385500908E0	8.615648746E-1
5.616168304E0	-1.650823951E0	2.173374176E0	6.251090765E-1
5.624169342E0	-1.821397662E0	1.923122406E0	4.812200069E-1
5.632480689E0	-1.641381264E0	1.691920280E0	3.063757420E-1
5.640527958E0	-1.284968376E0	1.530528069E0	1.138591766E-1
5.648641227E0	-1.320714235E0	1.268633842E0	-1.056289673E-2
5.656764612E0	-1.364531636E0	9.164342880E-1	-7.191932201E-2
5.664964573E0	-1.375418067E0	5.038003922E-1	-1.373882294E-1
5.673090266E0	-1.305914760E0	-3.431892395E-2	-1.894880533E-1
5.681212919E0	-1.101099730E0	-4.466381073E-1	-2.327201366E-1
5.689315342E0	-6.391403675E-1	-7.008609772E-1	-2.952136993E-1
5.697441804E0	-3.963561058E-1	-8.206100464E-1	-1.633116007E-1
5.705434573E0	-4.320082664E-1	-1.038698196E0	-2.078938484E-2
5.713770958E0	-6.389873028E-1	-1.347644329E0	9.160113335E-2
5.721884881E0	-7.668324709E-1	-1.604389191E0	1.622185707E-1
5.730008188E0	-8.965545893E-1	-1.881077766E0	3.279590607E-1
5.738147727E0	-9.824676514E-1	-2.222129822E0	4.230556488E-1
5.746333111E0	-9.854755402E-1	-2.461784840E0	5.512943268E-1
5.754461650E0	-8.101121187E-1	-2.590613842E0	6.500754356E-1
5.762601881E0	-7.650054693E-1	-2.727374554E0	6.746919155E-1
5.770732611E0	-8.018852472E-1	-2.786273479E0	5.639834404E-1
5.778823419E0	-1.044229984E0	-2.938867569E0	4.285154343E-1
5.786879496E0	-1.773929596E0	-3.372948647E0	5.206956863E-1
5.795152727E0	-1.815864801E0	-3.375319004E0	4.230289459E-1
5.803278265E0	-1.073380589E0	-3.119883537E0	5.113930702E-1
5.811366188E0	-5.634716749E-1	-2.886546612E0	5.668418407E-1
5.819490803E0	-5.657197237E-1	-2.615328312E0	5.859377384E-1
5.827664150E0	-9.763545990E-1	-2.499715328E0	5.803987980E-1
5.835817996E0	-1.187940359E0	-2.529988289E0	5.790553093E-1
5.843943765E0	-1.339196205E0	-2.783724785E0	4.891448021E-1
5.852076880E0	-1.275679350E0	-3.055596828E0	3.644969463E-1
5.860217534E0	-1.376893520E0	-3.264139652E0	2.179522514E-1
5.868217265E0	-1.180899739E0	-3.225287437E0	2.090365887E-1
5.884679034E0	-9.208165407E-1	-2.308805943E0	6.014957428E-1
5.892794188E0	-8.467252254E-1	-1.830340862E0	8.917577267E-1
5.900921303E0	-7.214375734E-1	-1.528434277E0	1.082901239E0
5.909068765E0	-5.654630661E-1	-1.353110313E0	1.184437513E0
5.917252880E0	-3.665010929E-1	-1.338474274E0	1.176844120E0
5.925376342E0	-2.996482849E-1	-1.630739689E0	1.072570801E0
5.933479111E0	-3.802371025E-2	-1.765872955E0	8.196921349E-1
5.941602418E0	4.304542542E-1	-1.559617996E0	4.763948917E-1
5.949629496E0	9.078536034E-1	-7.084026337E-1	2.889151573E-1
5.957927841E0	1.165413022E0	6.482887268E-1	3.647527695E-1
5.966052149E0	1.169979572E0	2.230947495E0	4.663786888E-1
5.974175919E0	8.268067837E-1	3.745633125E0	5.139572620E-1
5.982323495E0	5.190296173E-1	5.416069031E0	7.112780809E-1
5.990510764E0	4.848003387E-2	7.107003212E0	1.273319125E0
5.998638226E0	-2.120565176E-1	8.181492805E0	1.725196838E0
6.006778610E0	-5.183283091E-1	8.097897530E0	1.965660095E0
6.014909303E0	-1.288288116E0	6.627032280E0	1.727433681E0
6.023027457E0	-1.537827849E0	4.608215332E0	1.074869156E0
6.031012342E0	-7.896616459E-1	2.408576965E0	6.346387863E-1
6.039361918E0	-1.139204502E-1	1.078481674E0	2.898434401E-1
6.047486841E0	1.066465616E0	4.256343842E-2	2.724230289E-1
6.055581649E0	9.390304089E-1	-3.761425018E-1	1.045205593E-1
6.063705456E0	-1.056718826E-2	-6.648025513E-1	-1.520901322E-1
6.071891995E0	-8.752329350E-1	-7.528638840E-1	-1.864206791E-1
6.080033187E0	-1.450976133E0	-1.024566650E0	-2.160155773E-2
6.088156033E0	-1.654888988E0	-1.312823296E0	1.408941746E-1
6.096295110E0	-1.650748849E0	-1.733943939E0	1.661255360E-1
6.104435187E0	-1.566346169E0	-2.269400120E0	1.178306341E-1
6.112596765E0	-1.581681013E0	-2.727760315E0	5.863845348E-2
6.120748687E0	-1.848214030E0	-3.197950840E0	-1.169893146E-1
6.128887110E0	-2.243705750E0	-3.680661678E0	-3.189010024E-1
6.137018687E0	-2.371729851E0	-3.965840340E0	-5.772403479E-1
6.145143610E0	-2.580823421E0	-4.217958450E0	-7.488206625E-1
6.153342957E0	-2.821113586E0	-4.368327141E0	-1.045622230E0
6.161473725E0	-3.134861708E0	-4.283790588E0	-1.395968199E0
6.169598764E0	-3.436235189E0	-4.064672947E0	-1.385749578E0
6.177686110E0	-3.554898500E0	-3.615087032E0	-1.179373026E0
6.185809994E0	-3.019510746E0	-2.787363052E0	-9.354897738E-1
6.193797380E0	-2.546273708E0	-1.784934998E0	-3.376001120E-1
6.202137688E0	-2.082727909E0	-8.773603439E-1	6.973961592E-1
6.210264648E0	-1.264079809E0	-1.363058090E-1	1.709020257E0
6.218391380E0	-7.622575760E-1	6.331186295E-1	2.797880173E0
6.226535840E0	-4.214615822E-1	1.213755608E0	3.932482243E0
6.234722263E0	3.642210960E-1	1.767273903E0	4.882183552E0
6.242851840E0	3.794469833E-1	1.792433739E0	5.477879524E0
6.250992725E0	1.388955116E-2	1.508988380E0	5.498468399E0
6.259126148E0	-3.505337238E-1	8.964128494E-1	4.528084755E0
6.267250879E0	-5.277628899E-1	3.332204819E-1	2.875549793E0
6.275245188E0	-5.900182724E-1	-3.888063431E-1	6.890414953E-1
6.283576688E0	-2.187380791E-1	-6.666250229E-1	-1.074923396E0
6.291704879E0	-2.637195587E-1	-5.208959579E-1	-2.471207857E0
6.299798917E0	-3.883297443E-1	-1.147813797E-1	-3.363839626E0
6.307923379E0	-3.809711933E-1	4.544696808E-1	-3.875012398E0
6.316110879E0	-3.224358559E-1	1.619324684E0	-4.301373005E0
6.324253725E0	-5.035114288E-2	2.587585449E0	-4.312326908E0
6.332379032E0	2.367930412E-1	3.272030830E0	-3.965359688E0
6.340513302E0	7.297644615E-1	4.425036430E0	-3.077165127E0
6.348654455E0	1.075967312E0	5.317473412E0	-1.635408878E0
6.356646457E0	1.137262821E0	6.155918121E0	3.480658531E-1
6.364968840E0	1.713632584E0	6.151967049E0	2.310361862E0
6.373112763E0	2.327212811E0	4.870172501E0	3.625185013E0
6.381243419E0	2.035297871E0	3.060924530E0	3.871402264E0
6.389369186E0	1.532351494E0	1.341189384E0	3.231629372E0
6.397516034E0	1.022259235E0	1.308155060E-2	1.808341742E0
6.405694455E0	4.905352592E-1	-8.864893913E-1	6.900366545E-1
6.413820147E0	2.719593048E-1	-1.692217827E0	-2.676642537E-1
6.421906455E0	8.557319641E-2	-2.326341152E0	-9.607820511E-1
6.430031109E0	5.079545975E-1	-2.884700298E0	-1.290868759E0
6.438044880E0	7.968440056E-1	-3.267660141E0	-1.346971989E0
6.446355878E0	1.052192211E0	-3.284807682E0	-1.169848442E0
6.454479955E0	1.240354538E0	-2.883622169E0	-7.295369506E-1
6.462619647E0	1.635251999E0	-2.384298801E0	-3.827877343E-1
6.470759955E0	1.851113319E0	-1.837020874E0	9.556174278E-3
6.478909072E0	1.935521126E0	-1.330119610E0	4.197038412E-1
6.487073993E0	1.948709011E0	-8.967723846E-1	7.046180964E-1
6.495213339E0	1.860983372E0	-5.916361809E-1	7.950903177E-1
6.503352186E0	1.539498329E0	-4.180774689E-1	5.604822040E-1
6.511476109E0	1.190784454E0	-3.759384155E-1	5.259513855E-2
6.519498803E0	9.583549500E-1	-4.382309914E-1	-3.969866633E-1
6.527801647E0	7.064137459E-1	-4.981822968E-1	-7.472584844E-1
6.535925339E0	4.689474106E-1	-5.565390587E-1	-8.820095062E-1
6.544018724E0	2.555704117E-1	-5.575037003E-1	-8.506063819E-1
6.552143685E0	1.884384155E-1	-5.474395752E-1	-6.976016164E-1
6.560291611E0	4.375333786E-1	-5.016279221E-1	-3.769301176E-1
6.568470954E0	5.053668022E-1	-4.068799019E-1	2.460557222E-2
6.576595993E0	5.259208679E-1	-2.680883408E-1	1.944352388E-1
6.584710608E0	5.335469246E-1	-8.920383453E-2	1.379506588E-1
6.592850070E0	4.773240089E-1	-3.921604156E-2	-5.736204982E-2
6.600856149E0	4.228606224E-1	1.987409592E-2	-3.206049800E-1
6.609159800E0	3.332028389E-1	-7.814407349E-3	-6.605210304E-1
6.617298339E0	3.330168724E-1	-1.127414703E-1	-8.987177610E-1
6.625409031E0	3.097047806E-1	-2.906737328E-1	-1.084845543E0
6.633498877E0	3.291559219E-1	-3.245968819E-1	-1.104387641E0
6.641695726E0	2.478928566E-1	-2.600541115E-1	-9.817375541E-1
6.649825493E0	1.516695023E-1	-1.109328270E-1	-7.742395997E-1
6.657949800E0	4.401063919E-2	9.128665924E-2	-5.720492601E-1
6.666053108E0	-2.778143883E-1	3.650674820E-1	-4.597913623E-1
6.674144300E0	-7.041921616E-1	5.777101517E-1	-4.743785262E-1
6.682123803E0	-1.183640480E0	8.048434258E-1	-5.045390129E-1
6.690469685E0	-1.627254486E0	1.026231766E0	-5.239045024E-1
6.698590992E0	-1.922116756E0	1.198195457E0	-4.747219384E-1
6.706703569E0	-2.200240135E0	1.355215549E0	-3.225428462E-1
6.714808877E0	-2.435755253E0	1.476906776E0	-1.400388777E-1
6.722967226E0	-2.618426085E0	1.558429241E0	6.717237830E-2
6.731120915E0	-2.683477640E0	1.566226959E0	2.648315430E-1
6.739259262E0	-2.637330532E0	1.490314960E0	4.604200125E-1
6.747370838E0	-2.399738073E0	1.369996071E0	5.594058633E-1
6.755495185E0	-1.772673845E0	1.136308670E0	4.605363309E-1
6.763544072E0	-1.013886452E0	8.444271088E-1	2.602569163E-1
6.771822146E0	-3.361053467E-1	5.645952225E-1	8.917363733E-2
6.779946569E0	2.726144791E-1	2.487277985E-1	-8.438172936E-2
6.788036188E0	7.165384293E-1	-9.839916229E-2	-2.865415215E-1
6.796160761E0	1.062654495E0	-4.278097153E-1	-4.744593501E-1
6.804321611E0	1.337671757E0	-6.617808342E-1	-5.717768669E-1
6.812492877E0	1.690016270E0	-9.747567177E-1	-4.738200307E-1
6.820617684E0	1.734288692E0	-1.148667336E0	-2.789165974E-1
6.828756684E0	1.830300331E0	-1.178856373E0	1.496732682E-1
6.836863261E0	2.030279160E0	-1.133502007E0	6.669216156E-1
6.844829457E0	2.156380177E0	-1.108420372E0	1.166951180E0
6.853171184E0	2.056579113E0	-9.867696762E-1	1.498273373E0
6.861311184E0	1.716911316E0	-7.494993210E-1	1.528031230E0
6.869416184E0	1.305792332E0	-4.202394485E-1	1.268046856E0
6.877539876E0	9.209146500E-1	-1.586132050E-1	8.808128238E-1
6.885537841E0	5.191783905E-1	4.320335388E-2	4.763999581E-1
6.893866415E0	1.095924377E-1	2.308778763E-1	1.583689004E-1
6.910050457E0	-3.908720016E-1	5.095024109E-1	-7.804542780E-3
6.918175645E0	-3.773407936E-1	6.900033951E-1	9.969839454E-2
6.926358530E0	-2.372107506E-1	1.000904083E0	3.374029994E-1
6.934496761E0	-1.435709000E-2	1.369470596E0	4.945540428E-1
6.942619568E0	3.347930908E-1	1.781840324E0	5.276683569E-1
6.950732761E0	6.999335289E-1	2.088822365E0	3.408017159E-1
6.958870915E0	8.883814812E-1	2.255159378E0	-2.172872424E-2
6.966867534E0	8.160247803E-1	2.217234612E0	-4.139838219E-1
6.975179876E0	6.245379448E-1	2.159308434E0	-7.660501003E-1
6.983318722E0	7.191753387E-1	2.224741936E0	-7.593103051E-1
6.991450837E0	5.847854614E-1	2.040631294E0	-5.920177698E-1
6.999572684E0	2.786765099E-1	1.679210663E0	-4.733808935E-1
7.007738495E0	-1.526689529E-2	1.308802605E0	-3.683885038E-1
7.015895645E0	-2.531156540E-1	9.433522224E-1	-1.799497604E-1
7.024016914E0	-3.694882393E-1	5.439558029E-1	2.190682888E-1
7.032117530E0	-4.966907501E-1	1.524696350E-1	6.179817319E-1
7.040239722E0	-6.965274811E-1	-1.012930870E-1	7.204013467E-1
7.048295649E0	-9.857153893E-1	-2.603974342E-1	5.750344992E-1
7.056575030E0	-1.269282818E0	-2.650756836E-1	4.147921801E-1
7.064697991E0	-1.520420551E0	-2.334723473E-1	3.618552685E-1
7.072802645E0	-1.626296520E0	-1.568455696E-1	3.646638393E-1
7.080908529E0	-1.735072613E0	-3.794908524E-2	3.508338928E-1
7.089077687E0	-1.790637016E0	9.187221527E-2	2.754231691E-1
7.097216914E0	-1.819101810E0	2.467393875E-1	2.017468214E-1
7.105309029E0	-1.827066898E0	3.981838226E-1	1.499619484E-1
7.113422222E0	-1.766180992E0	5.598173141E-1	1.437919140E-1
7.121544337E0	-1.727476597E0	7.233905792E-1	9.645068645E-2
7.129669649E0	-1.781644106E0	8.450622559E-1	-8.920669556E-3
7.137868145E0	-1.675921440E0	9.218010902E-1	-1.239975691E-1
7.145991914E0	-1.487313747E0	9.840669632E-1	-2.650277615E-1
7.154092721E0	-1.213907242E0	1.040768623E0	-4.103653431E-1
7.162215568E0	-8.297553062E-1	1.047322273E0	-4.870318174E-1
7.170400298E0	-4.606599808E-1	9.951457977E-1	-4.664415121E-1
7.178541491E0	-1.299762726E-1	8.895092010E-1	-3.544859886E-1
7.186664991E0	9.186840057E-2	7.381076813E-1	-2.010509968E-1
7.194776414E0	2.636566162E-1	6.504154205E-1	-3.439438343E-2
7.202914221E0	3.019700050E-1	4.506101608E-1	6.688690186E-2
7.210886610E0	2.791781425E-1	1.739540100E-1	1.299225092E-1
7.219220221E0	2.840838432E-1	-1.977634430E-1	1.656601429E-1
7.227356606E0	2.358927727E-1	-6.320643425E-1	1.603696346E-1
7.235467337E0	2.133383751E-1	-9.788427353E-1	1.058907509E-1
7.243555913E0	5.009078979E-2	-1.273449898E0	2.576422691E-2
7.251720149E0	-1.701955795E-1	-1.449039459E0	-2.639091015E-2
7.259879721E0	-3.463473320E-1	-1.570753098E0	-3.106033802E-2
7.268002798E0	-4.388308525E-1	-1.616884708E0	-2.919673920E-3
7.276103413E0	-4.748697281E-1	-1.617077351E0	2.691805363E-2
7.284226183E0	-4.419655800E-1	-1.573901653E0	7.706475258E-2
7.292408567E0	-3.608121872E-1	-1.489981651E0	1.033371687E-1
7.298099726E0	-3.051590919E-1	-1.449438572E0	1.611065865E-1
7.300550144E0	-2.764286995E-1	-1.432679176E0	1.754717827E-1
7.308674375E0	-1.956095695E-1	-1.252909184E0	2.611547709E-1
7.316786798E0	-1.001520157E-1	-1.036272049E0	3.818820715E-1
7.324922259E0	-6.899595261E-2	-6.623592377E-1	5.369167328E-1
7.333042418E0	-1.470241547E-1	-2.365674973E-1	7.344657183E-1
7.341229682E0	-3.207592964E-1	1.587991714E-1	8.930889368E-1
7.349365803E0	-5.329976082E-1	5.122661591E-1	9.994907379E-1
7.357469687E0	-7.231354713E-1	7.210741043E-1	1.004665256E0
7.365603298E0	-9.098095894E-1	8.029661179E-1	9.525896311E-1
7.373661572E0	-1.056947231E0	7.861194611E-1	9.724355936E-1
7.381931682E0	-1.162381411E0	6.802444458E-1	9.450094700E-1
7.390056182E0	-1.247925997E0	4.664297104E-1	8.796299696E-1
7.398160374E0	-1.149204493E0	1.089773178E-1	8.154114485E-1
7.406284682E0	-9.029517174E-1	-2.122459412E-1	7.582831383E-1
7.414469951E0	-7.002940178E-1	-5.249943733E-1	7.446620464E-1
7.422611067E0	-5.537772179E-1	-6.906752586E-1	6.571037769E-1
7.430734797E0	-4.423708916E-1	-7.792716026E-1	5.507335663E-1
7.438847028E0	-3.272795677E-1	-8.131055832E-1	4.227454662E-1
7.446983297E0	-2.005376816E-1	-8.216090202E-1	2.693312168E-1
7.455007687E0	-9.320116043E-2	-8.150320053E-1	6.183147430E-2
7.463292028E0	1.456642151E-2	-8.707165718E-1	-1.075160503E-1
7.471430297E0	1.462903023E-1	-9.217290878E-1	-2.446526289E-1
7.479541105E0	2.382397652E-1	-9.423980713E-1	-3.466556072E-1
7.487663797E0	2.784533501E-1	-9.061632156E-1	-3.378591537E-1
7.495864874E0	3.692488670E-1	-8.030786514E-1	-3.164525032E-1
7.503990912E0	4.506711960E-1	-6.622653008E-1	-2.110983133E-1
7.512114028E0	4.968137741E-1	-5.728545189E-1	-4.386281967E-2
7.520204643E0	4.894399643E-1	-5.093803406E-1	1.438076496E-1
7.536283149E0	2.237253189E-1	-3.669528961E-1	3.370376825E-1
7.544655143E0	1.361598969E-1	-1.772270203E-1	3.450856209E-1
7.552781258E0	5.464887619E-2	1.143264771E-1	3.113203049E-1
7.560896451E0	7.098722458E-2	5.984563828E-1	1.986141205E-1
7.569037489E0	1.193113327E-1	1.219713211E0	5.476236343E-3
7.577201418E0	1.872797012E-1	1.759680748E0	-1.842520237E-1
7.585346841E0	1.985473633E-1	2.029901505E0	-4.361999035E-1
7.593495374E0	1.000685692E-1	1.891824722E0	-6.338469982E-1
7.601602681E0	-1.321115494E-1	1.583944321E0	-7.968387008E-1
7.609730104E0	-3.896665573E-1	1.249251366E0	-8.804482818E-1
7.617740802E0	-6.540284157E-1	8.906373978E-1	-7.299165130E-1
7.626059341E0	-8.221697807E-1	5.759325027E-1	-4.205249548E-1
7.634180264E0	-8.021888733E-1	2.396316528E-1	-1.457810402E-3
7.642290066E0	-5.331335068E-1	-1.676292419E-1	3.704416752E-1
7.650416950E0	-1.115207672E-1	-4.927873611E-1	5.603795052E-1
7.658524649E0	3.536677361E-1	-8.394222260E-1	5.674788952E-1
7.666745995E0	7.846074104E-1	-1.145321369E0	4.014453888E-1
7.674836610E0	1.131167889E0	-1.386759281E0	3.789019585E-2
7.682965719E0	1.392320156E0	-1.527307987E0	-4.629755020E-1
7.691076143E0	1.546507359E0	-1.516598701E0	-1.002697945E0
7.699034149E0	1.642234802E0	-1.382802963E0	-1.479355216E0
7.707386764E0	1.604678154E0	-1.154520988E0	-1.877142429E0
7.715532802E0	1.597735882E0	-9.545540810E-1	-2.015558004E0
7.723682065E0	1.574687958E0	-8.180317879E-1	-1.968697786E0
7.731774456E0	1.218101025E0	-7.512173653E-1	-1.874862552E0
7.739883110E0	1.404309750E0	-6.579809189E-1	-1.577843189E0
7.748106264E0	1.664610386E0	-5.248489380E-1	-1.100291967E0
7.756241495E0	1.807876110E0	-3.887462616E-1	-6.121623516E-1
7.764347719E0	1.703054428E0	-5.469036102E-2	-1.330952644E-1
7.772472335E0	1.479001999E0	2.863721848E-1	2.242770195E-1
7.780501610E0	1.271130562E0	6.152048111E-1	4.130251408E-1
7.788796418E0	1.124896526E0	8.331079483E-1	4.185892344E-1
7.796930565E0	9.615736008E-1	9.800539017E-1	1.934038401E-1
7.805037642E0	7.529492378E-1	1.045355797E0	-1.192592382E-1
7.813146104E0	4.650363922E-1	9.869298935E-1	-4.454376698E-1
7.821267648E0	-1.474809647E-2	8.508100510E-1	-6.816722155E-1
7.829462187E0	-3.808612823E-1	6.852912903E-1	-7.074091434E-1
7.837595495E0	-6.166620255E-1	5.096416473E-1	-5.200957656E-1
7.845723103E0	-7.084722519E-1	3.311576843E-1	-1.635546088E-1
7.853850142E0	-6.735615730E-1	1.986894608E-1	3.487372398E-1
7.861822302E0	-6.052260399E-1	1.404943466E-1	7.877233028E-1
7.878310488E0	-6.033077240E-1	1.579771042E-1	1.210974455E0
7.886408526E0	-5.587501526E-1	9.452247620E-2	1.142026901E0
7.894536302E0	-3.978714943E-1	-1.058578491E-4	9.074034095E-1
7.902631187E0	-2.036576271E-1	-5.334472656E-2	6.055884957E-1
7.910872642E0	-5.806159973E-2	-9.630489349E-2	2.585592866E-1
7.918999295E0	5.035495758E-2	-1.405439377E-1	7.120907307E-3
7.927115719E0	1.464419365E-1	-2.139220238E-1	-2.100523114E-1
7.935225680E0	3.088588715E-1	-3.010597229E-1	-3.647980690E-1
7.943317456E0	4.302105904E-1	-3.263602257E-1	-4.823495448E-1
7.951545142E0	4.401607513E-1	-3.863506317E-1	-4.443841279E-1
7.959688565E0	4.370222092E-1	-4.605770111E-1	-3.381431699E-1
7.975934757E0	4.573202133E-1	-5.865135193E-1	-2.887904644E-2
7.984080456E0	4.420547485E-1	-6.226329803E-1	8.170157671E-2
7.992266526E0	4.178481102E-1	-6.457014084E-1	1.506639719E-1
8.000392641E0	2.754826546E-1	-4.930191040E-1	2.137187123E-1
8.008499026E0	6.996822357E-2	-3.123021126E-1	2.313974500E-1
8.016626603E0	-9.975099564E-2	-1.014919281E-1	2.086556554E-1
8.024726418E0	-2.009239197E-1	1.262578964E-1	1.918781996E-1
8.032959141E0	-2.314825058E-1	2.421922684E-1	1.289502382E-1
8.041086641E0	-2.482571602E-1	3.553829193E-1	1.801216602E-2
8.049201295E0	-2.804374695E-1	4.468259811E-1	-1.007086039E-1
8.057341680E0	-3.077054024E-1	5.055360794E-1	-1.668158770E-1
8.065529141E0	-3.831467628E-1	4.239788055E-1	-2.152723968E-1
8.073656756E0	-3.551306725E-1	2.781372070E-1	-2.898607850E-1
8.081796333E0	-3.498525620E-1	1.602201462E-1	-3.175823092E-1
8.089913218E0	-3.178324699E-1	-1.070404053E-2	-3.047912121E-1
8.098042256E0	-2.996125221E-1	-1.469354630E-1	-2.043519318E-1
8.106052187E0	-2.601404190E-1	-4.371914864E-1	-2.420328557E-1
8.114377872E0	-3.678293228E-1	-6.024808884E-1	-2.504975796E-1
8.122503756E0	-4.323787689E-1	-7.782034874E-1	-2.839082479E-1
8.130607333E0	-5.172729492E-1	-8.957829475E-1	-2.059666514E-1
8.138733218E0	-7.065525055E-1	-7.992906570E-1	-8.589008451E-2
8.146921025E0	-6.360993385E-1	-9.150018692E-1	-2.325505763E-1
8.155064410E0	-6.223478317E-1	-7.390136719E-1	-3.459029496E-1
8.163191795E0	-6.016645432E-1	-6.246657372E-1	-4.416887164E-1
8.171308525E0	-4.200291634E-1	-6.659336090E-1	-5.287951827E-1
8.179448794E0	-3.950390816E-1	-5.880360603E-1	-5.216296911E-1
8.187460764E0	-1.297430992E-1	-2.686386108E-1	-5.772771835E-1
8.212027294E0	2.073574066E-2	6.871871948E-1	-5.684844851E-1
8.220152987E0	1.177334785E-1	8.820762634E-1	-4.675123096E-1
8.228330879E0	1.181697845E-1	9.707117081E-1	-3.086920083E-1
8.236480640E0	1.126656532E-1	1.085128784E0	-2.518418431E-1
8.240537256E0	5.544281006E-2	1.117720604E0	-2.193789631E-1
8.242114494E0	1.952981949E-2	1.151239395E0	-2.169847637E-1
8.244572179E0	-2.595996857E-2	1.177575111E0	-2.074079514E-1
8.252677179E0	-1.703414917E-1	1.171162605E0	-1.018218249E-1
8.260802371E0	-2.690715790E-1	1.073833466E0	1.006020606E-2
8.268904456E0	-4.374675751E-1	8.522729874E-1	1.898464113E-1
8.277133833E0	-5.802679062E-1	6.035881042E-1	2.768813074E-1
8.285257794E0	-6.978349686E-1	2.968177795E-1	2.561542988E-1
8.293370486E0	-8.173136711E-1	5.796909332E-2	1.963978857E-1
8.301509640E0	-8.382430077E-1	-1.440248489E-1	7.784940302E-2
8.309694725E0	-7.760405540E-1	-3.013792038E-1	-4.994110763E-2
8.317822794E0	-7.306494713E-1	-4.676551819E-1	-1.183654070E-1
8.325962102E0	-6.437683105E-1	-5.678920746E-1	-1.551692337E-1
8.334077025E0	-5.937108994E-1	-5.881357193E-1	-1.783203930E-1
8.342200409E0	-5.525522232E-1	-5.150337219E-1	-1.712871343E-1
8.350255648E0	-5.236811638E-1	-4.021072388E-1	-9.519594908E-2
8.358529640E0	-4.446907043E-1	-2.995738983E-1	-4.048407078E-3
8.366654755E0	-4.114570618E-1	-1.658210754E-1	-1.114067435E-2
8.374759871E0	-4.400606155E-1	-6.818675995E-2	-8.735474944E-2
8.382886101E0	-4.863314629E-1	-6.235694885E-2	-9.880453348E-3
8.391072909E0	-5.238690376E-1	-9.802913666E-2	1.291665137E-1
8.399216409E0	-5.422525406E-1	-1.980457306E-1	3.115527928E-1
8.407341524E0	-5.262660980E-1	-2.936658859E-1	4.361810088E-1
8.415454409E0	-5.723862648E-1	-3.771715164E-1	4.482194185E-1
8.423594024E0	-6.696476936E-1	-4.087324142E-1	3.541844487E-1
8.431622686E0	-7.565474510E-1	-4.381189346E-1	1.912311912E-1
8.439909447E0	-9.103665352E-1	-5.676846504E-1	-8.165562153E-2
8.448047601E0	-9.868543148E-1	-7.628412247E-1	-3.617335558E-1
8.456161370E0	-1.107268095E0	-1.101561069E0	-6.647187471E-1
8.464224524E0	-1.254690647E0	-1.495613575E0	-9.433788657E-1
8.472349110E0	-1.485254049E0	-1.974581718E0	-1.193551779E0
8.480521379E0	-1.700423002E0	-2.460915565E0	-1.392399788E0
8.488569186E0	-1.929052353E0	-2.928519249E0	-1.515673757E0
8.504882533E0	-2.822364807E0	-3.991908550E0	-1.654886484E0
8.513049832E0	-2.911310673E0	-4.145478249E0	-1.843600154E0
8.521180293E0	-3.079098701E0	-4.424692631E0	-1.869645596E0
8.529306409E0	-3.185250998E0	-4.546195030E0	-1.878328323E0
8.537440024E0	-3.490768909E0	-4.736915112E0	-1.684298873E0
8.545581101E0	-3.856163263E0	-4.854825020E0	-1.475569487E0
8.553730263E0	-4.090975285E0	-4.836222172E0	-1.232733727E0
8.561767033E0	-4.301827908E0	-4.690218449E0	-1.021341205E0
8.569918648E0	-4.368817806E0	-4.427781105E0	-7.277287245E-1
8.578180994E0	-4.278286934E0	-4.086001396E0	-3.645184040E-1
8.586183340E0	-4.147357941E0	-3.640914917E0	7.978487015E-2
8.594468062E0	-3.783569336E0	-2.988745689E0	1.212336779E0
8.602582524E0	-3.221436501E0	-2.044500351E0	3.380272388E0
8.610708908E0	-2.484542131E0	-9.799590111E-1	6.688130379E0
8.618796062E0	-1.336614609E0	1.172361374E-1	1.052863693E1
8.626924254E0	2.715997696E-1	1.031029224E0	1.260187721E1
8.635094186E0	1.109224796E0	9.736971855E-1	9.983175278E0
8.643115686E0	1.423111439E0	1.352629662E-1	3.611063719E0
8.651215302E0	9.665336609E-1	7.194228172E-1	-2.238440514E-1
8.659361148E0	1.392608643E0	2.603373528E0	-2.280782461E0
8.667524763E0	2.334619522E0	4.891895294E0	-3.212057590E0
8.675785177E0	3.828599453E0	7.681959629E0	-3.233558655E0
8.683900331E0	5.082048416E0	1.087928581E1	-2.209241152E0
8.692040869E0	5.484871864E0	1.369716549E1	-3.147089481E-1
8.700174639E0	9.268583298E0	1.756239700E1	1.488018513E0
8.708299639E0	1.298483467E1	2.192797470E1	3.073518515E0
8.716417879E0	1.594997025E1	2.501504898E1	2.199129105E0
8.724407840E0	1.955545616E1	2.657379150E1	8.863183260E-1
8.732655686E0	2.146673584E1	2.272233200E1	-5.922170877E-1
8.740700648E0	1.742621231E1	1.576373005E1	-1.432606220E0
8.748813994E0	1.241173172E1	1.086125088E1	3.737038374E-1
8.757112369E0	8.994483948E0	7.814651489E0	2.513047695E0
8.765224994E0	7.516610622E0	5.676117897E0	3.473084927E0
8.773363725E0	7.184359550E0	4.296744347E0	3.274214745E0
8.781497869E0	6.788344383E0	3.456170082E0	2.713850498E0
8.789637831E0	5.927966118E0	2.933975220E0	1.887620330E0
8.797718340E0	4.804193020E0	2.607359886E0	9.796996713E-1
8.805810571E0	3.449419022E0	2.403353691E0	6.894761324E-2
8.813949609E0	2.119703293E0	2.118817329E0	-6.520601511E-1
8.822102725E0	6.879534721E-1	1.655982018E0	-1.400831819E0
8.830213186E0	-3.609457016E-1	4.436016083E-1	-1.695414782E0
8.838528484E0	-1.749535561E0	-9.242706299E-1	-1.690066814E0
8.846641061E0	-2.838350773E0	-2.094481945E0	-1.623441219E0
8.854763686E0	-3.797217369E0	-3.183316708E0	-1.397258162E0
8.862853023E0	-4.655537605E0	-4.407323837E0	-9.555901289E-1
8.870980830E0	-5.163816452E0	-5.436677933E0	-6.583852768E-1
8.879088763E0	-5.722174644E0	-6.414064407E0	-5.544117093E-1
8.887240340E0	-6.034320354E0	-7.066430092E0	-6.053586602E-1
8.895387186E0	-6.039772511E0	-7.528654575E0	-5.051280260E-1
8.903421225E0	-6.034556389E0	-7.794293404E0	-3.999240398E-1
8.911591840E0	-6.138314247E0	-8.130687714E0	-1.738026142E-1
8.919811446E0	-6.159344673E0	-8.423108101E0	7.031214237E-2
8.927912830E0	-5.898903370E0	-8.797477722E0	2.381055653E-1
8.936054445E0	-5.991128445E0	-9.207396507E0	2.841705680E-1
8.944186099E0	-6.014492035E0	-9.721094131E0	1.200799420E-1
8.952311792E0	-6.009410858E0	-1.005921745E1	-1.094521657E-1
8.960381417E0	-6.261283398E0	-1.032237053E1	-4.525938332E-1
8.968401494E0	-6.336997032E0	-1.057729912E1	-7.451708913E-1
8.976627148E0	-6.520421982E0	-1.067965889E1	-1.116154075E0
8.984798109E0	-6.751347065E0	-1.071763611E1	-1.489002466E0
8.992836840E0	-6.657742023E0	-1.064931297E1	-1.786226273E0
9.001125445E0	-6.531933784E0	-1.056135559E1	-1.845517397E0
9.009255022E0	-6.164396286E0	-1.031869698E1	-1.756947875E0
9.017382484E0	-5.760201454E0	-1.032076740E1	-1.553142548E0
9.025515637E0	-5.430330276E0	-1.018301678E1	-1.386415243E0
9.033654560E0	-5.181138515E0	-1.010652733E1	-1.260620236E0
9.041803455E0	-4.915663719E0	-1.009276867E1	-1.141747236E0
9.049842994E0	-4.837782860E0	-1.015182400E1	-1.036925435E0
9.057945609E0	-4.874897003E0	-1.025512981E1	-9.526809454E-1
9.066120878E0	-4.699779510E0	-1.034155750E1	-8.656861186E-1
9.074236032E0	-4.600005150E0	-1.036795425E1	-8.660134077E-1
9.082523330E0	-4.492637157E0	-1.035297871E1	-7.707467675E-1
9.090644791E0	-4.334689140E0	-1.026723289E1	-6.664917469E-1
9.098771829E0	-4.275964737E0	-1.018940926E1	-5.727528334E-1
9.106861022E0	-4.213446140E0	-1.016747093E1	-4.276708364E-1
9.114955522E0	-3.654050827E0	-1.006693363E1	-3.022513390E-1
9.123077224E0	-3.041685104E0	-9.930825233E0	-3.451188803E-1
9.131153301E0	-2.799335480E0	-9.566850662E0	-2.309279442E-1
9.139322109E0	-2.607841492E0	-8.947567940E0	8.174562454E-2
9.147478301E0	-2.216252327E0	-7.970180511E0	1.339840889E0
9.155599378E0	-1.196767330E0	-5.643711090E0	7.749271393E0
9.163817598E0	-1.212336779E0	-5.465407848E0	5.848404884E0
9.171931060E0	-3.203303099E0	-7.836208344E0	-2.541462421E0
9.180072945E0	-3.835495710E0	-8.071206093E0	-3.643657684E0
9.188204637E0	-1.611991405E0	-5.411314487E0	-4.932024479E0
9.196329214E0	1.848434925E0	1.338538170E0	-7.279071808E0
9.204424071E0	4.682924271E0	1.278376293E1	-3.456496716E0
9.212407340E0	7.561741829E0	2.421148300E1	-1.935618401E0
9.220626378E0	1.127655125E1	3.568628693E1	2.023917675E0
9.228901494E0	1.231172466E1	4.427396393E1	6.270150661E0
9.236975147E0	1.241652393E1	4.767296600E1	3.572872400E0
9.245160060E0	1.390615654E1	4.628782272E1	-2.215789318E0
9.253289329E0	1.556647491E1	4.214907455E1	1.203077912E0
9.261413675E0	9.930202484E0	2.756232834E1	3.904479504E0
9.269547213E0	5.742541790E0	1.650876999E1	5.799676180E-1
9.277682917E0	3.365678787E0	9.151652336E0	-2.207873106E0
9.285815532E0	1.729656219E0	5.106911659E0	-2.368070602E0
9.293875609E0	7.432332039E-1	2.513391495E0	-1.620491385E0
9.301996609E0	1.356782913E-1	7.707967758E-1	-8.307815790E-1
9.310125224E0	-1.087522507E-1	-2.418270111E-1	-5.336742997E-1
9.318246647E0	-7.924673557E-1	-1.093153477E0	-6.198024750E-1
9.326540021E0	-1.084702730E0	-1.546036720E0	-1.067154408E0
9.334653686E0	-1.036685705E0	-1.881054878E0	-1.762860179E0
9.342782598E0	-7.933907509E-1	-2.066132069E0	-2.222470045E0
9.350869136E0	-7.759592533E-1	-2.434124947E0	-2.039578438E0
9.358995521E0	-1.246045828E0	-2.934134483E0	-1.531921387E0
9.367156686E0	-1.510320425E0	-3.469711781E0	-7.449082732E-1
9.375217686E0	-1.713393450E0	-3.973723412E0	-2.625547051E-1
9.383317263E0	-2.037412405E0	-4.428936481E0	-1.246818900E-1
9.391450955E0	-2.412439823E0	-4.852370739E0	-1.127830744E-1
9.399591647E0	-2.837689161E0	-5.244373798E0	-1.157046556E-1
9.405330340E0	-2.857874393E0	-5.485297203E0	-1.091824174E-1
9.407851251E0	-2.865056992E0	-5.523604393E0	-1.115766168E-1
9.415976790E0	-2.891997814E0	-5.848547935E0	6.062400341E-2
9.424117405E0	-2.745809793E0	-6.235272408E0	5.743649006E-1
9.432250597E0	-2.774241686E0	-6.632425785E0	1.240291476E0
9.440375982E0	-2.751967430E0	-6.538391113E0	1.316888928E0
9.448493416E0	-2.386212826E0	-5.805453777E0	1.156108618E0
9.456577301E0	-1.832669735E0	-4.989771366E0	1.185110569E0
9.464672378E0	-1.103529930E0	-4.137440205E0	1.433552146E0
9.472763916E0	-2.325191498E-1	-3.229606152E0	1.770611525E0
9.480896532E0	5.113852024E-1	-2.577249527E0	2.196390152E0
9.489166213E0	1.364344597E0	-2.120880127E0	2.745204687E0
9.497294982E0	2.389773130E0	-1.883803844E0	3.010287285E0
9.505421674E0	3.351630926E0	-1.695424557E0	2.787840128E0
9.513555636E0	4.170245171E0	-1.565035343E0	1.947520018E0
9.521697328E0	4.412735939E0	-1.397848129E0	7.683777213E-1
9.529817070E0	4.575683594E0	-1.332415104E0	-3.159288168E-1
9.537895032E0	4.114452362E0	-1.320679665E0	-1.016253948E0
9.546046109E0	3.365031004E0	-1.140593529E0	-1.209121466E0
9.554328828E0	2.758767128E0	-1.169102669E0	-9.772261977E-1
9.562394339E0	2.071978331E0	-1.302042961E0	-4.811115265E-1
9.570594558E0	1.461337566E0	-1.479633808E0	1.832107902E-1
9.578715789E0	1.030755997E0	-1.670690060E0	7.981678843E-1
9.586802378E0	6.665210724E-1	-1.829819202E0	1.268242121E0
9.594901943E0	3.822953701E-1	-1.927882195E0	1.675202131E0
9.603027174E0	5.822873116E-2	-2.007378101E0	2.084515333E0
9.611124916E0	-4.747476578E-1	-2.167677402E0	2.593128443E0
9.619194416E0	-1.029587984E0	-2.586814880E0	2.936085701E0
9.627310878E0	-1.614040375E0	-3.026226044E0	3.116039515E0
9.635503263E0	-2.026328087E0	-3.358831406E0	3.244901419E0
9.643616070E0	-2.368635654E0	-3.457785130E0	3.309356689E0
9.659790186E0	-2.346019983E0	-2.333447933E0	2.687979460E0
9.667985686E0	-1.841390610E0	-1.119751453E0	1.731093526E0
9.676117532E0	-1.014852285E0	-1.624374390E-1	6.399641037E-1
9.684115109E0	3.528594971E-5	2.601346970E-1	-5.276479125E-1
9.692585327E0	9.788284302E-1	3.146047592E-1	-1.592551470E0
9.700677712E0	2.190750122E0	-5.441188812E-2	-2.075542688E0
9.708801943E0	4.893093586E0	-8.199329376E-1	-2.114768267E0
9.716889558E0	6.178821087E0	-1.470399857E0	-1.824953079E0
9.725015404E0	6.288797379E0	-2.139439583E0	-9.311150908E-1
9.733156724E0	6.419845581E0	-2.887548923E0	5.161626339E-1
9.741232647E0	6.173083305E0	-3.452120781E0	1.762849331E0
9.749337109E0	5.317506790E0	-3.737294197E0	2.644112825E0
9.757463686E0	4.372085571E0	-3.733222485E0	3.059361935E0
9.765635532E0	3.546317101E0	-3.359987736E0	2.997351408E0
9.773969942E0	3.048697948E0	-2.668399811E0	2.495208979E0
9.782063635E0	2.873479843E0	-1.923575401E0	1.672644496E0
9.790204211E0	2.714821339E0	-1.271855354E0	7.508367300E-1
9.798343442E0	2.377207279E0	-6.786370277E-1	1.073623449E-1
9.806467481E0	2.083378792E0	-1.439352036E-1	-3.340703249E-1
9.814592955E0	1.755392551E0	3.403587341E-1	-6.694973707E-1
9.822729032E0	1.411193371E0	8.374013901E-1	-6.366562843E-1
9.830681378E0	1.154345989E0	1.251180649E0	-4.244748354E-1
9.838906724E0	8.189263344E-1	1.842029572E0	-1.887035668E-1
9.846995839E0	4.048700333E-1	2.339903831E0	-3.592170775E-1
9.855385211E0	1.436758041E-2	2.732526779E0	-9.029945731E-1
9.863483416E0	-3.669433594E-1	2.913922310E0	-1.478626251E0
9.871615903E0	-6.410446167E-1	2.617937088E0	-1.858657837E0
9.879729673E0	-5.296244621E-1	1.659447670E0	-1.818617105E0
9.887868788E0	-3.308134079E-1	5.955438614E-1	-1.584941626E0
9.896017108E0	-4.581365585E-1	-2.539849281E-1	-1.092262745E0
9.904018147E0	-7.941894531E-1	-1.134843349E0	-1.524956226E-1
9.912174224E0	-6.513071060E-1	-1.691729069E0	5.050687194E-1
9.920292685E0	-3.316335678E-1	-2.070086479E0	9.898921847E-1
9.928421685E0	-3.509616852E-2	-2.083314896E0	1.263479233E0
9.936802711E0	-3.763484955E-2	-1.774456501E0	1.407839537E0
9.944893647E0	-9.967184067E-2	-1.338288307E0	1.803125381E0
9.953021865E0	-3.871126175E-1	-8.790092468E-1	1.880034685E0
9.961115134E0	-4.673981667E-1	-5.300741196E-1	1.549582839E0
9.969238711E0	-2.462430000E-1	-2.941951752E-1	1.258898973E0
9.977292070E0	2.656044960E-1	-6.012678146E-2	9.444342256E-1
9.985428993E0	6.831750870E-1	1.643366814E-1	5.998135805E-1
9.993466301E0	9.063544273E-1	3.476858139E-1	9.714567661E-2
1.000167518E1	9.181656837E-1	3.218240738E-1	-2.102578282E-1
1.000981730E1	9.134025574E-1	1.864285469E-1	-1.380764246E-1
1.001817902E1	9.718804359E-1	-1.051683426E-1	2.437978983E-1
1.002627290E1	1.049681187E0	-3.925175667E-1	5.916144848E-1
1.003441294E1	8.088188171E-1	-5.070490837E-1	9.389373064E-1
1.004251886E1	8.671755791E-1	-5.636453629E-1	1.026002884E0
1.005064290E1	9.884262085E-1	-5.270090103E-1	9.128882885E-1
1.005880118E1	1.042348385E0	-4.241619110E-1	6.567723751E-1
1.006682715E1	1.016599655E0	-3.368444443E-1	2.848082781E-1
1.007496346E1	1.076065063E0	-3.385334015E-1	8.582830429E-3
1.008304496E1	1.172453880E0	-4.650549889E-1	3.613281250E-2
1.009119553E1	1.150499344E0	-6.362924576E-1	1.229974031E-1
1.009954583E1	8.385105133E-1	-6.898584366E-1	1.156824827E-1
1.010765229E1	1.064861774E0	-8.204088211E-1	3.067594767E-1
1.011577633E1	1.211743832E0	-1.005373955E0	6.258263588E-1
1.012389002E1	1.259108543E0	-1.149598122E0	7.300772667E-1
1.013203033E1	4.801244736E-1	-1.122928619E0	6.133959293E-1
1.014019172E1	2.531909943E-2	-1.048997879E0	4.053652287E-1
1.014818622E1	-1.626324654E-1	-1.065174580E0	2.832531929E-1
1.015636499E1	-6.642661095E-1	-1.016169548E0	1.206834316E-1
1.016450138E1	-9.936690331E-1	-1.076887131E0	-8.709836006E-2
1.017260949E1	-1.283624172E0	-1.204292774E0	-2.738270760E-1
1.018100075E1	-1.458710670E0	-1.273233414E0	-4.842177629E-1
1.018909179E1	-1.509917736E0	-1.210593224E0	-6.191376448E-1
1.019721559E1	-1.495913029E0	-1.105531693E0	-6.610559225E-1
1.020531813E1	-1.542980671E0	-9.947896004E-1	-6.221770048E-1
1.021344075E1	-1.500734806E0	-9.715871811E-1	-5.259687901E-1
1.022154368E1	-1.371324539E0	-9.687037468E-1	-3.425648212E-1
1.022959880E1	-1.279744148E0	-9.566907883E-1	-2.115540504E-1
1.023779403E1	-1.101383686E0	-9.499096870E-1	-1.139163971E-1
1.024594765E1	-8.547172546E-1	-7.145566940E-1	1.455798149E-1
1.025402834E1	-5.146846771E-1	-2.113699913E-1	3.431017399E-1
1.026240971E1	-2.282619476E-1	4.354815483E-1	3.629586697E-1
1.027050179E1	1.016492844E-1	1.148463726E0	2.787139416E-1
1.027864209E1	7.358236313E-1	2.047590733E0	3.683829308E-1
1.028677944E1	9.732909203E-1	2.798749924E0	7.063293457E-1
1.029490467E1	1.075399876E0	3.685023785E0	1.415101051E0
1.030300953E1	1.385081291E0	5.046029568E0	2.396114826E0
1.031109722E1	1.404371262E0	6.568285942E0	3.015746117E0
1.031915103E1	1.846267223E0	7.345783234E0	3.001458645E0
1.032731426E1	2.538059711E0	8.843116760E0	2.000134945E0
1.033543280E1	3.816986084E0	1.089839554E1	1.535503864E-1
1.034381379E1	3.133810043E0	1.304430008E1	-8.984788060E-1
1.035192344E1	4.990912437E0	1.475056362E1	-1.428058028E0
1.036004798E1	6.064957619E0	1.595235252E1	-1.921663046E0
1.036818044E1	7.221115112E0	1.651056480E1	-1.383747458E0
1.037631986E1	8.905259132E0	1.629784203E1	-4.564157128E-1
1.038442980E1	9.720358849E0	1.414863396E1	5.101391077E-1
1.039248907E1	7.563521862E0	1.115513420E1	2.630061150E0
1.040054792E1	5.645208359E0	8.863792419E0	2.832937717E0
1.040875403E1	4.370850563E0	7.333290577E0	2.470341682E0
1.041686661E1	3.215425968E0	5.906112671E0	1.402086020E0
1.042525244E1	1.857823849E0	4.572789192E0	3.836970329E-1
1.043334463E1	4.787278175E-1	2.990223885E0	-4.875403643E-1
1.044146782E1	-3.756680489E-1	1.146255493E0	-1.063946724E0
1.044955482E1	-6.027183533E-1	-9.138283730E-1	-1.424177051E0
1.045767986E1	-6.811766624E-1	-3.154032230E0	-1.686246395E0
1.046571645E1	-8.663372993E-1	-5.373000145E0	-2.129482508E0
1.047386138E1	-1.152895927E0	-7.645246983E0	-2.400999069E0
1.048200526E1	-1.347329617E0	-9.399345398E0	-2.488586187E0
1.049012030E1	-1.106644869E0	-1.103429794E1	-2.765808582E0
1.049835222E1	-6.166863441E-1	-1.269540215E1	-3.022892475E0
1.051472732E1	-3.516016006E-1	-1.603595543E1	-2.741557360E0
1.052286752E1	-4.551097155E-1	-1.724012756E1	-2.745130777E0
1.053100071E1	-7.352917194E-1	-1.811498260E1	-2.389284372E0
1.053912632E1	-1.112315059E0	-1.883047485E1	-1.553648472E0
1.054721676E1	-2.763173580E0	-1.968527985E1	2.686682224E0
1.055529453E1	-3.835458755E0	-2.055970383E1	5.182107449E0
1.056337538E1	-4.304451466E0	-2.108596039E1	4.897280693E0
1.057151688E1	-4.745651722E0	-2.054875183E1	2.848725796E0
1.057968488E1	-4.505989552E0	-1.954943085E1	3.894196749E-1
1.058803690E1	-4.121560097E0	-1.873629189E1	-2.190475225E0
1.059583772E1	-4.031691551E0	-1.757265472E1	-3.546381474E0
1.060404661E1	-3.954690456E0	-1.637062836E1	-4.286116600E0
1.061224030E1	-3.609704494E0	-1.540597343E1	-4.495433331E0
1.062062449E1	-3.718852043E0	-1.426563740E1	-4.146369934E0
1.062901736E1	-4.037600517E0	-1.333445072E1	-3.534566402E0
1.063714452E1	-4.064660072E0	-1.285194397E1	-2.391661167E0
1.064528452E1	-4.513251305E0	-1.241692924E1	-1.408327103E0
1.065342071E1	-4.836989880E0	-1.216810131E1	-5.521938801E-1
1.066154571E1	-4.512113094E0	-1.210719109E1	-2.935357094E-1
1.066960930E1	-3.946410418E0	-1.169215202E1	-7.392091751E-1
1.067761253E1	-3.939073801E0	-1.148666096E1	-1.347421885E0
1.068589830E1	-3.377292871E0	-1.098445320E1	-2.030426741E0
1.069386015E1	-3.266359329E0	-1.042720509E1	-3.084637403E0
1.070214376E1	-2.657082558E0	-9.383298874E0	-5.061434269E0
1.071068763E1	-2.317430258E0	-7.973929882E0	-6.911603928E0
1.071882771E1	-3.358295918E0	-6.226106644E0	-8.444379807E0
1.072695302E1	-5.342102051E0	-4.502369404E0	-9.248839378E0
1.073508586E1	-8.126039505E0	-2.385365963E0	-9.912056923E0
1.074322644E1	-9.437517166E0	-8.268566132E-1	-9.111674309E0
1.075131849E1	-1.079759312E1	5.789947510E-1	-7.756749153E0
1.075919118E1	-1.209746838E1	2.515001297E0	-5.658483982E0
1.076758453E1	-1.304944611E1	4.419084549E0	-3.246448040E0
1.077559095E1	-1.471769905E1	6.724483967E0	-2.756534815E-1
1.078389538E1	-1.550642014E1	8.858261108E0	2.225470066E0
1.079244698E1	-1.589835835E1	1.079983902E1	3.676858187E0
1.080057378E1	-1.626894379E1	1.234999657E1	4.041906834E0
1.080866690E1	-1.602111244E1	1.373236179E1	3.997865677E0
1.081675486E1	-1.452557564E1	1.428265572E1	4.328003883E0
1.082487955E1	-1.216471672E1	1.404608345E1	4.887917519E0
1.083306540E1	-8.563274384E0	1.259298706E1	4.695187092E0
1.084084376E1	-5.840079308E0	1.160337543E1	3.836698055E0
1.084915957E1	-3.619606018E0	1.107001019E1	2.642408371E0
1.085730861E1	-1.919160604E0	1.064481449E1	1.620234013E0
1.086553919E1	-1.221329689E0	1.046250057E1	7.962026596E-1
1.087410005E1	-1.694126606E0	1.171541691E1	-1.561608791E0
1.088222659E1	-2.328236341E0	1.477133369E1	-2.408290863E0
1.089036582E1	-1.702747107E0	1.743746758E1	-4.894968987E0
1.089849705E1	-1.393659115E-1	1.736963844E1	-5.782558918E0
1.090662248E1	2.051775217E0	1.489976692E1	-5.034530640E0
1.091478080E1	4.113198280E0	1.168338776E1	-3.863221169E0
1.092262411E1	4.626744270E0	8.441663742E0	-2.906978130E0
1.093091457E1	2.627446413E0	6.000698566E0	-3.239624023E0
1.093900611E1	4.516928196E-1	3.729895115E0	-3.745231628E0
1.094725576E1	-1.147053242E0	1.871037006E0	-3.580000877E0
1.096394332E1	-3.326305628E0	-4.930505753E-1	-3.417996407E0
1.097206909E1	-4.281011581E0	-1.117578983E0	-3.556583405E0
1.098020228E1	-5.008734703E0	-1.396914959E0	-3.736176968E0
1.098834117E1	-5.752234459E0	-1.364393234E0	-4.012752533E0
1.099645119E1	-6.218039513E0	-1.309571266E0	-4.075977802E0
1.100427468E1	-5.429118156E0	-1.258792400E0	-3.602036476E0
1.101266015E1	-4.210568905E0	-1.302096367E0	-2.685181141E0
1.102072465E1	-2.890630960E0	-1.266227245E0	-1.826953888E0
1.102898292E1	-2.250961304E0	-1.310925484E0	-9.842295647E-1
1.103756678E1	-1.746999264E0	-1.175455570E0	-3.776721954E-1
1.104569494E1	-1.373280048E0	-1.160835266E0	4.847798347E-1
1.105382028E1	-1.180091858E0	-9.983220100E-1	9.642491341E-1
1.106190792E1	-1.109407902E0	-1.044369221E0	1.598428965E0
1.107003499E1	-9.298014641E-1	-1.163836956E0	2.213723660E0
1.107817276E1	-6.480193138E-1	-1.336956501E0	2.572545767E0
1.108597826E1	-2.176470757E-1	-1.519538879E0	2.838369846E0
1.109439011E1	2.090220451E-1	-1.784498215E0	3.023669958E0
1.110240999E1	7.302048206E-1	-1.950175762E0	3.165286064E0
1.111070076E1	1.156038523E0	-2.231081963E0	3.274088383E0
1.111925382E1	1.538207531E0	-2.323723316E0	3.249826670E0
1.112738155E1	1.905586720E0	-2.316784382E0	3.143733263E0
1.113551940E1	2.221569061E0	-2.271802425E0	2.894480944E0
1.114365101E1	2.533628464E0	-2.201179028E0	2.598577023E0
1.115177748E1	2.820834398E0	-2.167490959E0	2.302671432E0
1.115986661E1	3.007575989E0	-2.127014160E0	1.938564301E0
1.116775888E1	3.107200146E0	-2.173632145E0	1.687543392E0
1.117608692E1	3.247700691E0	-2.250599861E0	1.505474091E0
1.118411018E1	3.148471355E0	-2.319156647E0	1.359184265E0
1.119248868E1	2.880434275E0	-2.393600941E0	1.314121246E0
1.120094936E1	2.456054688E0	-2.451776981E0	1.330436707E0
1.120909255E1	2.113833427E0	-2.529920578E0	1.375453949E0
1.121721763E1	1.862472296E0	-2.569434643E0	1.369653702E0
1.122534982E1	1.682296753E0	-2.604291439E0	1.375411510E0
1.123349105E1	1.591761112E0	-2.631032467E0	1.332349300E0
1.124161695E1	1.509264231E0	-2.679122925E0	1.209814548E0
1.124945072E1	1.378292322E0	-2.723288536E0	9.763655663E-1
1.125780226E1	1.262727261E0	-2.811840773E0	6.683182716E-1
1.126591676E1	1.183300972E0	-2.860542536E0	4.374341965E-1
1.127417930E1	1.125807762E0	-2.860540152E0	1.950678825E-1
1.128271163E1	1.090101957E0	-2.774897337E0	2.617549896E-2
1.129083798E1	1.042563677E0	-2.598442316E0	-3.387498856E-2
1.129896328E1	1.002875805E0	-2.348160267E0	3.903055191E-2
1.130705863E1	9.703145027E-1	-2.092782497E0	1.161785126E-1
1.131518394E1	9.972515106E-1	-1.780285835E0	1.568679810E-1
1.132331295E1	9.898214340E-1	-1.397954464E0	1.265964508E-1
1.133115745E1	9.957513809E-1	-9.758157730E-1	1.806650162E-1
1.133955553E1	1.085276604E0	-5.580182076E-1	2.762432098E-1
1.134756195E1	1.232262611E0	-1.656365395E-1	4.736738205E-1
1.135585307E1	1.340864897E0	1.584401131E-1	6.416602135E-1
1.136441278E1	1.407690763E0	3.899612427E-1	7.957201004E-1
1.137253944E1	1.403901815E0	6.177835464E-1	9.236879349E-1
1.138068082E1	1.331732512E0	8.246774673E-1	9.868745804E-1
1.138878955E1	1.187466621E0	1.117014408E0	1.004574299E0
1.139691582E1	9.965035915E-1	1.398501396E0	9.390954971E-1
1.140503392E1	7.142481804E-1	1.661391258E0	8.190450668E-1
1.141288584E1	3.170876503E-1	1.788048267E0	7.138042450E-1
1.142120053E1	-5.203008652E-2	1.733128071E0	5.885853767E-1
1.142930057E1	-3.288674355E-1	1.529264927E0	4.857392311E-1
1.143755611E1	-4.671025276E-1	1.248707771E0	3.104834557E-1
1.144610690E1	-5.467829704E-1	9.852828979E-1	2.461338043E-2
1.145425186E1	-5.924944878E-1	8.240704536E-1	-2.680869102E-1
1.146237782E1	-6.866545677E-1	6.990079880E-1	-5.424399376E-1
1.147049290E1	-7.536635399E-1	5.874276161E-1	-7.851181030E-1
1.147860055E1	-8.106303215E-1	4.920330048E-1	-9.787554741E-1
1.148676695E1	-8.434829712E-1	4.031920433E-1	-1.150348663E0
1.149456965E1	-8.518052101E-1	3.258924484E-1	-1.265866280E0
1.150294153E1	-7.846879959E-1	2.688841820E-1	-1.370532036E0
1.151100949E1	-6.938877106E-1	2.389321327E-1	-1.467268467E0
1.151924607E1	-6.154460907E-1	1.849212646E-1	-1.563997746E0
1.152782924E1	-5.904037952E-1	1.307950020E-1	-1.611547470E0
1.153595809E1	-6.421699524E-1	-2.898550034E-2	-1.605941296E0
1.154408274E1	-7.014513016E-1	-1.769189835E-1	-1.609673977E0
1.155218432E1	-8.045597076E-1	-2.703919411E-1	-1.584735394E0
1.156030997E1	-9.486422539E-1	-3.501353264E-1	-1.544207096E0
1.156843011E1	-1.110031605E0	-3.601994514E-1	-1.455630302E0
1.157629788E1	-1.284993410E0	-2.809290886E-1	-1.344046593E0
1.158461199E1	-1.544951439E0	-1.687335968E-1	-1.244135380E0
1.159268568E1	-1.662968874E0	-1.092410088E-1	-1.165668488E0
1.160095988E1	-1.773231506E0	-7.571649551E-2	-1.128451824E0
1.160951901E1	-1.843571424E0	-1.312379837E-1	-1.087327003E0
1.161764697E1	-1.907819510E0	-2.917523384E-1	-1.086914062E0
1.162578644E1	-1.894508362E0	-4.751491547E-1	-1.076166630E0
1.163390151E1	-1.944444895E0	-7.618203163E-1	-1.111927986E0
1.164202728E1	-1.992129087E0	-1.089410305E0	-1.240082741E0
1.165013842E1	-2.089500666E0	-1.285348415E0	-1.448906422E0
1.165800130E1	-2.131043673E0	-1.453379154E0	-1.667346478E0
1.166637592E1	-2.122800827E0	-1.615742207E0	-1.902507305E0
1.167442518E1	-1.995233059E0	-1.763362885E0	-2.110465050E0
1.168282711E1	-1.801936150E0	-1.815098286E0	-2.344676018E0
1.169121486E1	-1.611691713E0	-1.865125179E0	-2.494696617E0
1.169935859E1	-1.476907730E0	-1.935094833E0	-2.588153839E0
1.170748370E1	-1.423592806E0	-1.999980927E0	-2.617138386E0
1.171559855E1	-1.452532768E0	-1.981417656E0	-2.580741405E0
1.172373917E1	-1.540360689E0	-1.976178169E0	-2.477755070E0
1.173186549E1	-1.662115812E0	-1.914126873E0	-2.429197788E0
1.173976630E1	-1.761888504E0	-1.734252453E0	-2.472516060E0
1.174807253E1	-1.807512283E0	-1.476849079E0	-2.579528809E0
1.175609488E1	-1.734710455E0	-1.201738358E0	-2.645426273E0
1.176434999E1	-1.542593718E0	-9.141502380E-1	-2.737103939E0
1.177293517E1	-1.267397881E0	-6.538748741E-1	-2.777758121E0
1.178106124E1	-9.967479706E-1	-4.598388672E-1	-2.774348736E0
1.178918547E1	-7.944426537E-1	-2.900667191E-1	-2.725403309E0
1.179727197E1	-6.624641418E-1	-1.949601173E-1	-2.587904453E0
1.180539597E1	-6.249189377E-1	-9.056138992E-2	-2.414754391E0
1.181351461E1	-6.791765690E-1	2.748203278E-2	-2.270000935E0
1.182140680E1	-8.020844460E-1	1.464080811E-1	-2.157618999E0
1.182966080E1	-9.334757328E-1	2.119345665E-1	-1.995686531E0
1.183772661E1	-9.883091450E-1	2.384929657E-1	-1.873201370E0
1.184603184E1	-9.605848789E-1	2.010812759E-1	-1.798912048E0
1.185460224E1	-8.680741787E-1	1.111192703E-1	-1.799075127E0
1.186273013E1	-8.055560589E-1	-5.232334137E-3	-1.839520931E0
1.187087070E1	-7.894048691E-1	-1.027002335E-1	-1.912077904E0
1.187898751E1	-8.354682922E-1	-2.193555832E-1	-1.968990326E0
1.188710668E1	-8.139808178E-1	-2.939949036E-1	-1.922917366E0
1.189523388E1	-7.814149857E-1	-2.957353592E-1	-1.812958241E0
1.190318845E1	-7.272408009E-1	-2.490181923E-1	-1.721549034E0
1.191140111E1	-7.411808968E-1	-1.364803314E-1	-1.609163284E0
1.191945303E1	-7.452235222E-1	-1.377344131E-2	-1.478181362E0
1.192771065E1	-7.377028465E-1	3.135967255E-2	-1.308220387E0
1.193629466E1	-6.630642414E-1	1.755571365E-2	-1.119228363E0
1.194443590E1	-5.636639595E-1	-4.760408401E-2	-9.160432816E-1
1.195255859E1	-5.241291523E-1	-1.500720978E-1	-7.622179985E-1
1.196066809E1	-5.414509773E-1	-2.401976585E-1	-7.089953423E-1
1.196880622E1	-6.012356281E-1	-3.223719597E-1	-7.583847046E-1
1.197692584E1	-6.796791553E-1	-4.090337753E-1	-9.011969566E-1
1.198485472E1	-7.316477299E-1	-4.351115227E-1	-1.069709778E0
1.199311303E1	-7.541878223E-1	-4.214563370E-1	-1.203742504E0
1.200117542E1	-7.833926678E-1	-3.838462830E-1	-1.314185143E0
1.200947395E1	-7.979931831E-1	-4.050340652E-1	-1.373527050E0
1.201803874E1	-8.487608433E-1	-4.332408905E-1	-1.332127094E0
1.202581868E1	-9.073328972E-1	-5.099449158E-1	-1.319849491E0
1.203404476E1	-9.548273087E-1	-5.655412674E-1	-1.319598198E0
1.204221792E1	-9.843924046E-1	-6.213579178E-1	-1.342938900E0
1.205054165E1	-9.881916046E-1	-6.804137230E-1	-1.359696865E0
1.205903493E1	-9.799768925E-1	-7.529764175E-1	-1.325429440E0
1.206717597E1	-9.709784985E-1	-7.933330536E-1	-1.290627003E0
1.207530201E1	-9.724156857E-1	-7.970523834E-1	-1.263149738E0
1.208341747E1	-9.364829063E-1	-7.972145081E-1	-1.225822449E0
1.209155736E1	-8.313062191E-1	-8.076291084E-1	-1.144838333E0
1.209968668E1	-7.422094345E-1	-8.540210724E-1	-1.032001972E0
1.210752038E1	-6.836459637E-1	-8.969788551E-1	-9.125623703E-1
1.211568061E1	-6.615893841E-1	-9.270267487E-1	-8.085999489E-1
1.212394749E1	-6.500875950E-1	-9.863481522E-1	-7.047319412E-1
1.213215295E1	-6.300046444E-1	-1.043263435E0	-5.884790421E-1
1.214078628E1	-6.135885715E-1	-1.090764046E0	-4.924521446E-1
1.214891370E1	-6.060047150E-1	-1.110054016E0	-4.038901329E-1
1.215704051E1	-5.620799065E-1	-1.125366688E0	-3.195047379E-1
1.216514640E1	-5.082635880E-1	-1.131812096E0	-2.370080948E-1
1.217327432E1	-4.350738525E-1	-1.116931438E0	-1.392698288E-1
1.218140253E1	-4.081897736E-1	-1.084773540E0	-6.820249557E-2
1.218930826E1	-3.478474617E-1	-1.053420544E0	-2.262210846E-2
1.219743484E1	-3.023748398E-1	-9.870643616E-1	4.004764557E-2
1.220567695E1	-2.205996513E-1	-9.149408340E-1	6.783437729E-2
1.221390853E1	-1.616978645E-1	-8.176126480E-1	9.347200394E-2
1.222251378E1	-6.780338287E-2	-7.199192047E-1	1.183209419E-1
1.223064243E1	5.154180527E-2	-6.386904716E-1	1.561594009E-1
1.223875159E1	1.756262779E-1	-5.310101509E-1	1.942739487E-1
1.224687036E1	2.904071808E-1	-4.437260628E-1	2.311878204E-1
1.225498534E1	3.587679863E-1	-3.491454124E-1	2.578735352E-1
1.226318176E1	4.342203140E-1	-2.735891342E-1	3.120808601E-1
1.227108568E1	4.790735245E-1	-2.017407417E-1	3.608465195E-1
1.227919776E1	5.051496029E-1	-1.104383469E-1	3.921985626E-1
1.228736049E1	4.687249660E-1	5.186891556E-2	4.157495499E-1
1.229558657E1	4.220886230E-1	2.845554352E-1	4.054498672E-1
1.230420297E1	3.703379631E-1	5.185108185E-1	3.733038902E-1
1.231234878E1	3.435626030E-1	7.749419212E-1	3.530864716E-1
1.232047701E1	3.477444649E-1	1.028392792E0	3.767423630E-1
1.232859197E1	3.590970039E-1	1.253179073E0	3.664078712E-1
1.233673409E1	4.192178249E-1	1.454730988E0	3.474831581E-1
1.234489599E1	4.892838001E-1	1.655674934E0	3.123459816E-1
1.235278772E1	5.666487217E-1	1.798703194E0	3.100676537E-1
1.236091241E1	6.496396065E-1	1.867095470E0	3.345866203E-1
1.236914399E1	7.598569393E-1	1.864220619E0	4.108009338E-1
1.237733603E1	8.917009830E-1	1.741230488E0	5.607275963E-1
1.238597282E1	1.019918680E0	1.411785126E0	8.266811371E-1
1.239410201E1	1.085738182E0	1.014367104E0	1.088660240E0
1.240222793E1	1.021643877E0	5.151538849E-1	1.330124855E0
1.241033513E1	9.283196926E-1	1.594734192E-2	1.460996151E0
1.241846132E1	8.501954079E-1	-4.324083328E-1	1.539270878E0
1.242664851E1	8.215496540E-1	-7.859630585E-1	1.594657421E0
1.243446195E1	8.210599422E-1	-1.083948135E0	1.656733036E0
1.244260111E1	8.604145050E-1	-1.276221752E0	1.708520889E0
1.245085638E1	8.987867832E-1	-1.453226089E0	1.784824371E0
1.245907926E1	9.976398945E-1	-1.589416981E0	1.849717617E0
1.246768324E1	1.053960085E0	-1.692028522E0	1.848059654E0
1.247581289E1	1.013245821E0	-1.806426048E0	1.920815945E0
1.248395439E1	1.042244673E0	-1.951602936E0	1.994535446E0
1.249209032E1	1.090461254E0	-2.039958477E0	2.091017962E0
1.250021905E1	1.186530352E0	-2.177751541E0	2.227438688E0
1.250839914E1	1.255355597E0	-2.355754852E0	2.370384216E0
1.251622672E1	1.275410175E0	-2.585148335E0	2.495219469E0
1.252445926E1	1.260217190E0	-2.849921227E0	2.611088514E0
1.253278641E1	1.254132032E0	-3.114201784E0	2.621241808E0
1.254081022E1	1.140559673E0	-3.233742952E0	2.478314638E0
1.254941124E1	1.214105844E0	-3.494525433E0	2.623170137E0
1.255755532E1	1.276931047E0	-3.681429148E0	2.714254379E0
1.256568116E1	1.339108706E0	-3.674947977E0	2.666339874E0
1.257381674E1	1.252731800E0	-3.783376694E0	2.545764685E0
1.258195812E1	1.138504267E0	-3.824883938E0	2.461810350E0
1.259008468E1	1.062400579E0	-3.788654327E0	2.356537104E0
1.259803022E1	1.053935766E0	-3.887259007E0	2.464161158E0
1.260618649E1	9.282708168E-1	-3.901326180E0	2.390720129E0
1.261434688E1	8.596787453E-1	-3.956018925E0	2.446336269E0
1.262263988E1	7.958498001E-1	-3.961782455E0	2.406686783E0
1.263118535E1	8.621382713E-1	-3.986795902E0	2.316557169E0
1.263931585E1	9.106717110E-1	-3.945661306E0	2.091111422E0
1.264744162E1	9.413058758E-1	-3.786590099E0	1.739346504E0
1.265553112E1	8.192033768E-1	-3.493986845E0	1.232965469E0
1.266365832E1	5.312263966E-1	-3.048653126E0	5.925312042E-1
1.267184755E1	1.076083183E-1	-2.361269951E0	-6.649112701E-2
1.267963626E1	-3.970012665E-1	-1.649217606E0	-6.962161064E-1
1.268794126E1	-8.452007771E-1	-8.316073418E-1	-1.267658234E0
1.269610245E1	-1.365254641E0	-9.624004364E-3	-1.800786972E0
1.270428926E1	-1.773323298E0	8.318753242E-1	-2.138051510E0
1.271290474E1	-2.443532467E0	2.122999191E0	-2.523905277E0
1.272103532E1	-2.882883549E0	3.304838181E0	-2.753029823E0
1.273731093E1	-3.868683815E0	6.297337532E0	-2.118625164E0
1.274543801E1	-4.152338982E0	8.209346771E0	-1.878104448E0
1.275364162E1	-4.058233261E0	1.017382336E1	-1.241031885E0
1.276151453E1	-2.944714308E0	1.184777737E1	2.277951241E-1
1.276959134E1	-1.004248619E0	1.224353409E1	8.928527832E-1
1.277790922E1	6.549701691E-1	1.317158794E1	5.741133690E-1
1.278608868E1	2.058523178E0	1.346745205E1	-6.560084820E-1
1.280269893E1	2.216394424E0	1.301808739E1	-6.754921913E0
1.281082970E1	8.089690208E-1	1.299530411E1	-9.857553482E0
1.281896801E1	-6.307885647E-1	1.331177139E1	-1.102828789E1
1.282711039E1	-1.510944605E0	1.358204937E1	-1.045380211E1
1.283530005E1	-1.867314816E0	1.393245792E1	-8.830667496E0
1.284311957E1	-1.690674782E0	1.431028557E1	-6.733260632E0
1.285136507E1	-1.679319859E0	1.481183434E1	-5.017842770E0
1.285953691E1	-1.494702339E0	1.470832443E1	-2.804839134E0
1.286773138E1	-1.054990530E0	1.387825012E1	-7.098326683E-1
1.287633812E1	-9.544937611E-1	1.242846870E1	9.467897415E-1
1.288446835E1	-1.230134249E0	1.077301979E1	1.882761478E0
1.289259770E1	-1.314507246E0	9.214825630E0	2.467977762E0
1.290068801E1	-1.397004604E0	7.677233696E0	2.975104570E0
1.290881612E1	-1.267312765E0	6.114455700E0	3.290193081E0
1.291693684E1	-1.118293285E0	4.698567867E0	3.480142117E0
1.292485018E1	-8.933846951E-1	3.392117977E0	3.740058661E0
1.293299084E1	-6.011776924E-1	2.093112469E0	3.981513023E0
1.294131018E1	-3.151681423E-1	8.957056999E-1	4.204410553E0
1.294962207E1	-5.504465103E-2	-2.876253128E-1	4.416404724E0
1.295804743E1	2.160520554E-1	-1.177269936E0	4.591305256E0
1.296617858E1	5.851695538E-1	-1.883120060E0	4.640455723E0
1.297428832E1	5.247511864E-1	-2.172974586E0	2.441363811E0
1.298242439E1	-2.610998154E-1	-4.946804047E-2	-6.647919178E0
1.299055151E1	-4.348134995E-2	-5.397310257E-1	-2.844961166E0
1.299873272E1	-8.163070679E-2	-2.047220230E0	7.302217484E-1
1.300656249E1	6.389563084E-1	-4.199422836E0	4.142927647E0
1.301476226E1	1.469076276E0	-5.371342182E0	5.782310963E0
1.302293280E1	2.164205074E0	-5.927664757E0	6.653314114E0
1.303114330E1	2.370825768E0	-6.148385048E0	6.744112015E0
1.303975266E1	1.860891938E0	-6.332620621E0	6.276492119E0
1.304789735E1	4.340934753E-2	-9.929532051E0	-8.637077808E-1
1.305602531E1	-7.005698681E-1	-1.226500320E1	-6.078704834E0
1.306416112E1	-1.357968092E0	-1.323219204E1	-9.174244881E0
1.307230262E1	-1.552325726E0	-1.336009407E1	-1.077621651E1
1.308049074E1	-7.043092251E-1	-1.465999413E1	-1.375283146E1
1.308828372E1	7.343559265E-1	-1.595297432E1	-1.270472908E1
1.309633422E1	1.197990298E0	-1.611967468E1	-6.960212231E0
1.310458718E1	4.645395279E-2	-1.534673309E1	-4.191135406E0
1.311279861E1	-1.244899035E0	-1.519305134E1	-5.135835648E0
1.312953385E1	-3.499811411E0	-1.581012344E1	-2.298430443E0
1.313766116E1	-9.216959476E-1	-1.296308136E1	1.354023743E1
1.314575066E1	4.429898262E-1	-9.568750381E0	8.685609818E0
1.315387824E1	1.505537987E0	-7.581397533E0	-2.666645050E0
1.316206678E1	6.931341171E0	-5.410952091E0	-5.627048492E0
1.316986738E1	1.074305153E1	-1.426267624E0	-6.367584705E0
1.317798526E1	1.111644459E1	3.862788677E0	-5.692783833E0
1.318650115E1	1.084959698E1	5.291828632E0	-1.023838043E1
1.319449607E1	9.376832008E0	-9.289712906E-1	-7.970051765E0
1.321123255E1	4.241581917E0	-9.674674988E0	-9.201918602E0
1.321937474E1	4.715754509E0	-9.584319115E0	-9.058407784E0
1.322750816E1	4.219462872E0	-9.909771919E0	-8.232902527E0
1.323563266E1	3.043463230E0	-1.016679764E1	-7.741499901E0
1.324372145E1	8.591371775E-1	-9.427501678E0	-8.197625160E0
1.325169338E1	2.795433998E-1	-8.433607101E0	-9.569460869E0
1.326000053E1	1.520996809E0	-7.700264931E0	-8.265083313E0
1.326801214E1	-1.214700580E0	-8.134617805E0	3.908184528E0
1.327632203E1	-4.627398491E0	-1.218217850E0	-3.303365707E-1
1.328484893E1	-6.978659153E0	1.365225792E0	8.776321411E-1
1.329299097E1	3.545528054E-1	1.054976082E1	2.758852959E0
1.330111708E1	-2.803623915E0	1.503941441E1	1.238025284E1
1.330925304E1	2.081697941E0	1.034329891E1	1.004571915E0
1.331734697E1	1.788601160E0	4.505917549E0	-2.127399445E-1
1.332546795E1	-2.616997719E0	1.615143299E0	4.457056046E0
1.333334018E1	-2.589574337E0	2.269719124E0	4.457238197E0
1.334163072E1	6.080877781E-1	3.419359684E0	4.268884659E0
1.334976938E1	1.839397430E0	3.831002712E0	3.828168869E0
1.335796841E1	1.222698569E0	2.634747028E0	4.870399475E0
1.336656635E1	6.079912186E-2	1.777999401E0	6.419548035E0
1.337469535E1	-1.477887630E-1	2.127361298E0	7.289236069E0
1.338282250E1	8.956987858E-1	3.047825336E0	6.274353027E0
1.339093966E1	-4.587827921E-1	4.969980240E0	5.556356430E0
1.339906631E1	-5.201833248E-1	6.808094501E0	4.569131851E0
1.340715145E1	1.582627296E-1	8.179964066E0	4.414261818E0
1.341503718E1	7.932298183E-1	8.410957336E0	4.237862587E0
1.342324218E1	1.039911509E0	7.440933704E0	4.099590302E0
1.343146211E1	1.971990585E0	5.817207336E0	3.974537849E0
1.343968638E1	2.679751158E0	4.808243275E0	4.139635086E0
1.344828770E1	3.182671070E0	4.304219723E0	4.134993553E0
1.345641708E1	2.832772255E0	4.325130939E0	4.382983208E0
1.346455862E1	3.073347807E0	4.040441990E0	3.738952637E0
1.347269647E1	3.000142574E0	3.701339245E0	3.010001659E0
1.348082627E1	2.229448795E0	3.375481129E0	2.497277260E0
1.348903112E1	9.935657978E-1	3.414443970E0	2.141989708E0
1.349684268E1	5.309972763E-1	3.142947674E0	2.145056725E0
1.350506903E1	-4.902365208E-1	3.036714077E0	2.360887527E0
1.351327007E1	-5.360972881E-1	2.583741665E0	2.357923985E0
1.352147403E1	-7.562210560E-1	2.287060738E0	2.373929977E0
1.353003774E1	-8.759894371E-1	2.068314552E0	2.305578709E0
1.353818024E1	-8.800313473E-1	1.818222523E0	1.914966106E0
1.354627404E1	-1.302604437E0	1.703052044E0	1.890116692E0
1.355437738E1	-1.203154802E0	1.431466103E0	1.222126961E0
1.356252631E1	-1.180332184E0	1.073050976E0	9.975137711E-1
1.357067111E1	-1.387760639E0	7.216482162E-1	1.181897640E0
1.357876153E1	-1.512875557E0	2.361960411E-1	1.220061779E0
1.358666857E1	-1.552506685E0	-2.630162239E-1	1.330461025E0
1.359493799E1	-1.641473532E0	-7.425017357E-1	1.309085846E0
1.360314214E1	-1.943030357E0	-1.097203732E0	1.094985962E0
1.361175120E1	-2.274608850E0	-1.629287720E0	8.639292717E-1
1.361987916E1	-2.560628414E0	-2.154955864E0	8.601541519E-1
1.362800222E1	-2.479162931E0	-2.521772623E0	7.643017769E-1
1.363610593E1	-2.107163429E0	-2.746463776E0	5.762124062E-1
1.364423250E1	-1.349340200E0	-2.815028191E0	5.378079414E-1
1.365240280E1	-7.188563347E-1	-2.892947197E0	7.239174843E-1
1.366016934E1	-1.096296310E-1	-2.982817173E0	8.656978607E-1
1.366831561E1	3.095507622E-1	-3.064891815E0	9.012613297E-1
1.367650480E1	7.416372299E-1	-3.114070892E0	9.747629166E-1
1.368475241E1	1.007067680E0	-3.186349869E0	9.312329292E-1
1.369335824E1	1.303394318E0	-3.098923683E0	8.343348503E-1
1.370148685E1	1.954591751E0	-2.959715605E0	4.995031357E-1
1.370962847E1	2.114605904E0	-2.659074306E0	2.756333351E-1
1.371773693E1	2.038997650E0	-2.336764336E0	-1.113481522E-1
1.372583108E1	2.315241337E0	-2.230816841E0	-2.683210373E-1
1.373399757E1	1.813059807E0	-1.795213699E0	-3.584127426E-1
1.374181495E1	9.449739456E-1	-9.773912430E-1	-6.344966888E-1
1.374998761E1	-3.223752975E-2	-1.549682617E-1	-1.247356653E0
1.375821241E1	-8.853387833E-2	6.555171013E-1	-1.898536682E0
1.376644668E1	2.228574753E-1	1.688411713E0	-2.834762096E0
1.377502927E1	9.577913284E-1	2.364278793E0	-3.590569019E0
1.378317274E1	1.661487103E0	3.015836239E0	-3.587966919E0
1.379128545E1	2.587010860E0	3.311171532E0	-3.091673136E0
1.379943335E1	3.607658863E0	3.552400112E0	-1.941813350E0
1.380757431E1	4.601217747E0	3.443973541E0	-6.215534210E-1
1.381575280E1	5.421729565E0	3.391441345E0	1.776866913E-1
1.382359507E1	5.866956711E0	3.268171787E0	3.784866333E-1
1.383176730E1	5.654601574E0	3.316082001E0	3.931410313E-1
1.383997061E1	5.497884274E0	2.959322453E0	1.347229481E-1
1.384815234E1	4.698502541E0	2.748063087E0	-1.501870155E-2
1.385679366E1	3.116721153E0	2.649405479E0	-4.176692963E-1
1.386492185E1	1.556146622E0	2.439352036E0	-7.565481663E-1
1.387301499E1	-3.099584579E-2	2.392227173E0	-1.248252153E0
1.388110208E1	-1.074241877E0	2.254099846E0	-1.870899677E0
1.388922954E1	-1.551626205E0	2.083096981E0	-2.406681061E0
1.389734949E1	-1.641207218E0	1.586593151E0	-2.569399595E0
1.390522472E1	-1.409110069E0	8.974399567E-1	-2.599073887E0
1.391344314E1	-1.226732492E0	8.296251297E-2	-2.324106693E0
1.392161653E1	-9.707074165E-1	-5.665292740E-1	-2.098098278E0
1.392985149E1	-1.070698023E0	-1.211538315E0	-1.973023891E0
1.393844412E1	-1.165607214E0	-1.856117725E0	-1.820652008E0
1.394657258E1	-1.330201626E0	-2.433132172E0	-1.779010534E0
1.395471154E1	-1.688492775E0	-3.007844448E0	-1.878050685E0
1.396284539E1	-2.070331335E0	-3.398146152E0	-1.945146561E0
1.397097027E1	-2.349173546E0	-3.801293373E0	-2.045310020E0
1.397914695E1	-2.623969078E0	-4.223186970E0	-2.076930046E0
1.398708603E1	-2.812423229E0	-4.588234901E0	-2.030837536E0
1.399525953E1	-2.901513338E0	-4.931640148E0	-1.942905426E0
1.400333899E1	-2.951615095E0	-5.299420834E0	-1.875802279E0
1.401167545E1	-2.941580057E0	-5.471917629E0	-1.865450740E0
1.402015743E1	-2.746060848E0	-5.520069599E0	-1.931471467E0
1.402829996E1	-2.562735081E0	-5.359229088E0	-1.955496788E0
1.403642635E1	-2.418908596E0	-4.825152397E0	-1.943842411E0
1.404455996E1	-2.385465622E0	-4.132941246E0	-1.830909252E0
1.405269989E1	-2.546091557E0	-3.280069351E0	-1.550200343E0
1.406084964E1	-2.616240263E0	-2.585074425E0	-1.291379809E0
1.406865757E1	-2.602855682E0	-2.016077518E0	-1.081630945E0
1.407673053E1	-2.468228102E0	-1.630933762E0	-9.422928095E-1
1.408495341E1	-2.315911055E0	-1.473046303E0	-8.930720091E-1
1.409317230E1	-2.125043869E0	-1.507270813E0	-9.229156971E-1
1.410178877E1	-1.953788996E0	-1.647510052E0	-1.029520392E0
1.410991566E1	-1.840150595E0	-1.841882229E0	-1.085569263E0
1.411803966E1	-1.777082205E0	-2.037004948E0	-1.116252661E0
1.412615739E1	-1.719668150E0	-2.206066132E0	-1.106377125E0
1.413425023E1	-1.674675107E0	-2.334772110E0	-1.145207882E0
1.414243770E1	-1.655317426E0	-2.413314342E0	-1.266710758E0
1.415038018E1	-1.521350622E0	-2.480615139E0	-1.334844828E0
1.415844134E1	-1.307812810E0	-2.565299988E0	-1.417271614E0
1.416665526E1	-1.124871254E0	-2.628766060E0	-1.513850689E0
1.417497138E1	-1.030072331E0	-2.825261593E0	-1.637238741E0
1.418347393E1	-9.904015064E-1	-3.021330357E0	-1.884346724E0
1.419160266E1	-9.636840820E-1	-3.284125805E0	-2.139283180E0
1.419974339E1	-1.002656698E0	-3.754993439E0	-2.299013853E0
1.420787616E1	-1.101619959E0	-4.212896824E0	-2.361461163E0
1.421600100E1	-1.337439775E0	-4.717903137E0	-2.167996645E0
1.422413749E1	-1.652356386E0	-5.220021248E0	-1.910954475E0
1.423200426E1	-1.905706763E0	-5.636758804E0	-1.639729977E0
1.424009184E1	-2.292442799E0	-5.943243980E0	-1.151919603E0
1.424838241E1	-2.950037479E0	-5.982898712E0	-1.518359184E-1
1.425656703E1	-3.577958584E0	-5.613650322E0	1.666500092E0
1.426519069E1	-4.004032612E0	-4.339893341E0	6.377343178E0
1.427333666E1	-4.102308750E0	-1.417150021E0	1.028337765E1
1.428146123E1	-2.492305756E0	9.606361389E-2	1.084724712E1
1.428959454E1	1.505413532E0	2.239324570E0	1.168487930E1
1.429773616E1	1.711730480E0	3.793152809E0	3.154444218E0
1.430592523E1	1.223364353E0	5.937393188E0	-3.222853899E0
1.431372941E1	2.318754196E0	9.795417786E0	-6.855765343E0
1.432196980E1	5.944938660E0	1.468023491E1	-8.415727615E0
1.433014549E1	1.023362541E1	1.969269562E1	-7.835071087E0
1.433834095E1	1.501664066E1	2.491138840E1	-5.282899857E0
1.434699077E1	1.555252075E1	2.858511162E1	-3.077494144E0
1.435511873E1	1.331673622E1	3.164974594E1	-1.202032566E-1
1.436324243E1	8.089582443E0	3.390343475E1	2.456779003E0
1.437133146E1	1.915377140E0	3.300423813E1	4.368000031E0
1.437945727E1	7.514503002E-1	2.687752533E1	4.464391708E0
1.438755261E1	3.180821657E0	1.892063904E1	1.875302076E0
1.439546684E1	4.229373932E0	1.243965340E1	-1.578835964E0
1.440359918E1	4.057912350E0	9.620641708E0	-2.891316414E0
1.441193007E1	4.053242683E0	7.607920647E0	-2.150578260E0
1.442035549E1	3.675614119E0	5.715970039E0	-2.012602091E-1
1.442867246E1	3.475028515E0	4.570681572E0	9.490133524E-1
1.443680131E1	3.503869295E0	3.112456322E0	9.837939739E-1
1.444494166E1	2.776439667E0	1.523071289E0	3.207607269E-1
1.445307458E1	2.066470385E0	-1.103610992E-1	-6.382699013E-1
1.446116639E1	1.220315456E0	-1.594723701E0	-1.595747709E0
1.446936858E1	3.200826645E-1	-2.735211849E0	-1.790765524E0
1.447722964E1	-5.823153257E-1	-3.394381046E0	-2.428069115E0
1.448535326E1	-1.691641808E0	-3.884832382E0	-3.215278149E0
1.449352157E1	-2.059684992E0	-4.424797058E0	-3.484651327E0
1.450174568E1	-2.146420956E0	-5.158006191E0	-3.266129971E0
1.451035350E1	-2.000284910E0	-5.834829330E0	-3.041792154E0
1.451849716E1	-1.983138680E0	-6.726835251E0	-2.838778973E0
1.452662316E1	-1.849658251E0	-7.585561275E0	-2.563894272E0
1.453475639E1	-1.963505745E0	-8.491018295E0	-2.281143427E0
1.454289792E1	-2.134715080E0	-9.029365540E0	-2.231407881E0
1.455101776E1	-1.963598490E0	-9.780456543E0	-2.235655308E0
1.455889664E1	-1.970504522E0	-1.016773415E1	-2.207195759E0
1.456701453E1	-1.821789861E0	-1.049553680E1	-2.356293201E0
1.457529857E1	-1.734109640E0	-1.092186260E1	-2.485697269E0
1.458351510E1	-1.509219766E0	-1.109474945E1	-2.597582340E0
1.459211916E1	-1.439270377E0	-1.120815659E1	-2.633904219E0
1.460024877E1	-1.298463583E0	-1.129070282E1	-2.550086021E0
1.460837642E1	-1.145088315E0	-1.150261402E1	-2.495314837E0
1.461646350E1	-9.024524093E-1	-1.164269447E1	-2.539518118E0
1.462459069E1	-6.227837205E-1	-1.170141125E1	-2.512785435E0
1.463273091E1	-5.418608785E-1	-1.191120243E1	-2.340724468E0
1.464062276E1	-6.470783949E-1	-1.195341492E1	-2.560807943E0
1.464873891E1	-9.583001137E-1	-1.168634224E1	-2.604643106E0
1.465696941E1	-1.048757792E0	-1.163871193E1	-2.549531460E0
1.466524007E1	-1.415563822E0	-1.184410858E1	-2.440151215E0
1.467381854E1	-1.946604729E0	-1.214462566E1	-2.469828606E0
1.468194631E1	-2.229030132E0	-1.252800751E1	-2.573771954E0
1.469008623E1	-2.608616590E0	-1.294613934E1	-2.428675175E0
1.469822062E1	-2.812130451E0	-1.316414642E1	-2.286990404E0
1.470634627E1	-2.954868078E0	-1.328017616E1	-2.166614771E0
1.471446845E1	-2.981333256E0	-1.397476006E1	-9.392304420E-1
1.472259895E1	-2.956954002E0	-1.391514206E1	-1.916988850E0
1.473051491E1	-2.616585493E0	-1.358038902E1	-2.045721054E0
1.473872461E1	-2.896938562E0	-1.308774281E1	-2.467717886E0
1.474697776E1	-3.277312756E0	-1.262858868E1	-3.095094204E0
1.475556004E1	-3.325527430E0	-1.225806999E1	-3.599400043E0
1.476370481E1	-3.147750139E0	-1.186796570E1	-3.752690077E0
1.477183012E1	-3.061548710E0	-1.151371861E1	-3.906937122E0
1.477996508E1	-3.135480404E0	-1.116306496E1	-3.816310406E0
1.478810481E1	-3.405253887E0	-1.091924667E1	-3.667993546E0
1.479629185E1	-3.570050240E0	-1.048040390E1	-3.663826942E0
1.480418014E1	-3.606748581E0	-9.557109833E0	-4.693673134E0
1.481218437E1	-3.261838436E0	-8.240987778E0	-6.856293678E0
1.482049895E1	-2.786660671E0	-7.718835831E0	-4.591556549E0
1.482871757E1	-2.176272869E0	-7.851521969E0	-6.055517197E-1
1.483732396E1	-1.849206924E0	-7.004984856E0	2.822546959E0
1.484545077E1	-6.167104244E-1	-3.283031464E0	1.630503845E1
1.485357581E1	-1.879501343E-1	-1.325956821E0	1.323519135E1
1.486173192E1	2.511453390E0	3.196245193E0	2.357808876E1
1.486985731E1	2.994232178E0	5.224061012E0	2.318505859E1
1.487796880E1	1.502389431E0	4.189175606E0	6.096901894E0
1.488583868E1	3.784030199E0	7.841937065E0	-6.380266190E0
1.489397510E1	4.968468189E0	1.638283920E1	-1.278056145E1
1.490235445E1	4.935653687E0	3.286339951E1	-2.011013222E1
1.491057637E1	5.341011047E0	4.770836258E1	-1.490037537E1
1.491909642E1	8.027091980E0	6.221348190E1	-2.588025093E0
1.492722454E1	1.202029324E1	6.966346741E1	3.915640116E0
1.493536512E1	1.376364899E1	6.184053421E1	-1.184391975E-2
1.494349904E1	7.603300095E0	3.893841934E1	2.223937511E-1
1.495159208E1	4.564319611E0	2.200181961E1	6.816835403E-1
1.495978426E1	1.841915369E0	1.073159981E1	2.475743294E-1
1.496756345E1	5.770397186E-1	4.861754417E0	-5.980173349E-1
1.497582637E1	1.611099243E-1	1.167091370E0	-1.243907928E0
1.498386445E1	1.028501987E-1	-1.418239117E0	-1.596640348E0
1.499202449E1	4.968986511E-1	-3.398338795E0	-1.390258551E0
1.500064169E1	3.089265823E-1	-5.182203293E0	-2.126392126E-1
1.500878219E1	7.944703102E-2	-6.592905521E0	9.911032915E-1
1.501690615E1	3.371932507E-1	-7.860432148E0	1.464626670E0
1.502503865E1	2.548804283E-1	-8.401739120E0	1.118185639E0
1.503317515E1	2.559282780E-1	-8.696706772E0	2.278246880E-1
1.504128518E1	1.171734333E-1	-8.619424820E0	-1.026499629E0
1.504919003E1	-2.916913033E-1	-8.189677238E0	-2.167309999E0
1.505739684E1	-5.808802843E-1	-7.633510590E0	-3.327464104E0
1.506554003E1	-7.812058926E-1	-7.297115326E0	-3.944806099E0
1.507374834E1	-8.232321739E-1	-6.799057961E0	-4.346424103E0
1.508237634E1	-6.797394753E-1	-6.758003235E0	-4.217696667E0
1.509050142E1	-4.466416836E-1	-6.687550545E0	-3.658250332E0
1.509862326E1	-3.198857307E-1	-6.765070915E0	-3.030514717E0
1.510670777E1	-1.870175600E-1	-6.839717865E0	-2.486051559E0
1.511483169E1	-9.971392155E-2	-6.847485542E0	-1.871314764E0
1.512298037E1	-5.137383938E-2	-6.810846329E0	-1.331853032E0
1.513079061E1	-2.498507500E-2	-6.564241886E0	-8.408154249E-1
1.513901964E1	-8.623182774E-2	-5.990406036E0	-4.443570375E-1
1.514719868E1	-2.962105274E-1	-5.081658363E0	-1.978151798E-1
1.515545591E1	-2.814817429E-1	-4.057299614E0	-2.993395329E-1
1.516403304E1	-6.795334816E-2	-3.041397095E0	-5.433421731E-1
1.517213976E1	2.326105833E-1	-2.120428085E0	-8.039155006E-1
1.518027680E1	3.374897242E-1	-1.343972206E0	-9.725327492E-1
1.518842599E1	4.938955307E-1	-4.394178391E-1	-1.297217965E0
1.519655327E1	3.774589300E-1	5.100765228E-1	-1.858223438E0
1.520465107E1	2.439905405E-1	1.730024338E0	-2.634840488E0
1.521254534E1	1.229095459E-1	2.818216324E0	-2.955635071E0
1.522063907E1	-1.481219530E-1	3.915942192E0	-2.878194809E0
1.522889972E1	-3.394029140E-1	5.109119415E0	-2.385715008E0
1.523739022E1	-6.215791702E-1	6.220103264E0	-1.555809021E0
1.524572719E1	-1.181902647E0	6.999899864E0	-5.711246729E-1
1.525386850E1	-2.022641659E0	7.120567322E0	-2.792541385E-1
1.526199284E1	-2.383863211E0	5.877315521E0	-3.527677059E-1
1.527012811E1	-2.298368454E0	3.844230652E0	-4.938985109E-1
1.527823419E1	-2.276847601E0	1.936183929E0	-6.189353466E-1
1.528641827E1	-2.171402931E0	3.035049438E-1	-6.875752211E-1
1.529418084E1	-2.320502043E0	-1.029623032E0	-9.689739943E-1
1.530239457E1	-2.384385109E0	-1.835520267E0	-1.283069015E0
1.531059591E1	-2.385850906E0	-2.400971413E0	-1.473855615E0
1.531880876E1	-2.493284941E0	-2.819094181E0	-1.443551302E0
1.532744081E1	-2.566495657E0	-3.039458275E0	-1.303554296E0
1.533556291E1	-2.540910244E0	-3.128776550E0	-1.113118529E0
1.534365611E1	-2.309726000E0	-2.922373295E0	-9.170725346E-1
1.535174127E1	-1.967563868E0	-2.379361153E0	-9.318246841E-1
1.535986665E1	-1.530882359E0	-1.657389164E0	-1.209083796E0
1.536795914E1	-9.615621567E-1	-9.189615250E-1	-1.554534316E0
1.537582345E1	2.907416821E-1	-3.868808746E-1	-1.714502454E0
1.538396018E1	1.393329382E0	1.613063812E-1	-1.745452523E0
1.539224087E1	2.207049370E0	6.126260757E-1	-1.836387873E0
1.540044730E1	2.211163521E0	8.174247742E-1	-1.880669951E0
1.540906711E1	2.121119022E0	6.124811172E-1	-1.748312235E0
1.541719442E1	2.215465307E0	2.693634033E-1	-1.501898885E0
1.542533154E1	2.238264084E0	-1.533889771E-1	-1.169626832E0
1.543346404E1	2.105337620E0	-4.858398438E-1	-7.352014184E-1
1.544158700E1	1.920755863E0	-7.789773941E-1	-2.986933589E-1
1.544975472E1	1.801545620E0	-9.283800125E-1	5.128306150E-2
1.545754595E1	1.713034153E0	-1.004940987E0	3.417246938E-1
1.546576168E1	1.638134480E0	-9.119501114E-1	4.924436808E-1
1.547395360E1	1.499089479E0	-7.274684906E-1	3.777580857E-1
1.548213591E1	1.153033972E0	-4.314985275E-1	-8.508795500E-2
1.549077142E1	7.807309628E-1	-2.321968079E-1	-5.794008970E-1
1.549890180E1	3.938803673E-1	-1.131839752E-1	-7.963169813E-1
1.550702503E1	1.406502724E-2	-2.077484131E-1	-6.583990455E-1
1.551513846E1	-3.272831440E-1	-4.007701874E-1	-2.522410750E-1
1.552327623E1	-6.710357666E-1	-7.522993088E-1	4.358578324E-1
1.553140726E1	-1.039220095E0	-1.000268936E0	1.192483664E0
1.553923822E1	-1.472085238E0	-1.008922577E0	1.963492274E0
1.554742153E1	-1.914744020E0	-7.239236832E-1	2.478376389E0
1.555572341E1	-2.394970894E0	-1.240997314E-1	2.744673014E0
1.556389614E1	-2.684823036E0	6.569585800E-1	2.698350668E0
1.557250254E1	-2.677845716E0	1.389215469E0	2.397608757E0
1.558062846E1	-2.222963095E0	1.817344666E0	1.752245188E0
1.558875273E1	-1.451343298E0	1.746812820E0	1.073849916E0
1.559684211E1	-6.747581959E-1	1.520151138E0	4.269517660E-1
1.560496454E1	-5.096530914E-2	1.149220467E0	-2.038379908E-1
1.561314850E1	4.940047264E-1	9.069833755E-1	-7.288184166E-1
1.562102872E1	7.833499908E-1	8.251161575E-1	-9.972490072E-1
1.562921230E1	7.513127327E-1	7.056732178E-1	-9.015086889E-1
1.563760384E1	7.069876194E-1	3.732795715E-1	-4.626902938E-1
1.564563226E1	4.831855297E-1	-3.662519455E-1	2.024053037E-2
1.565417096E1	2.715079784E-1	-1.144924164E0	5.496680140E-1
1.566229746E1	6.842684746E-2	-1.750154972E0	1.020451307E0
1.567043542E1	-1.878614426E-1	-2.029546261E0	1.457122207E0
1.567853965E1	-4.526388645E-1	-1.953338623E0	1.781712174E0
1.568666065E1	-6.720201969E-1	-1.335727215E0	1.870233297E0
1.569483087E1	-6.535575390E-1	-5.408897400E-1	1.708677053E0
1.570273168E1	-5.103116035E-1	1.673431396E-1	1.319817424E0
1.571086187E1	-1.060264111E-1	5.184555054E-1	7.973077893E-1
1.571903434E1	1.132416725E-1	4.908943176E-1	2.608326674E-1
1.574397750E1	-1.761791706E-1	4.201097488E-1	-1.169008136E0
1.575210080E1	-2.239830494E-1	1.914072037E-1	-1.369182348E0
1.576020538E1	-1.438851357E-1	-2.073431015E-1	-1.242623329E0
1.576831307E1	-9.139251709E-2	-5.487613678E-1	-8.530901074E-1
1.577649834E1	1.859283447E-2	-9.321002960E-1	-3.440782130E-1
1.578431949E1	3.244929314E-1	-1.359535694E0	2.769148946E-1
1.579250291E1	4.921123981E-1	-1.592274189E0	6.398171186E-1
1.580068968E1	4.175832272E-1	-1.583009243E0	8.804743886E-1
1.580895849E1	1.496367455E-1	-1.293759823E0	9.393872023E-1
1.581752850E1	1.578140259E-2	-8.560199738E-1	5.409457684E-1
1.582565388E1	3.260231018E-2	-1.954984665E-1	7.816227153E-3
1.583377665E1	3.699080944E-1	2.248706818E-1	-5.030477047E-1
1.584187165E1	6.197068691E-1	6.855831146E-1	-7.651224732E-1
1.584999715E1	8.034358025E-1	9.841213226E-1	-1.211222887E0
1.585809822E1	6.190655231E-1	1.366307259E0	-1.367640376E0
1.586604799E1	3.977267742E-1	1.614395142E0	-1.365941405E0
1.587417095E1	-1.112318039E-2	1.717183113E0	-9.954100847E-1
1.588246972E1	-1.723575592E-1	1.567176819E0	-1.055069089E0
1.589060218E1	-6.225628853E-1	1.359859467E0	-8.068465590E-1
1.589920284E1	-8.763899803E-1	1.068229675E0	-4.472445846E-1
1.590732819E1	-1.158062220E0	7.159261703E-1	-3.477905318E-2
1.591546792E1	-1.517981052E0	3.738708496E-1	4.258645475E-1
1.592357215E1	-1.448893785E0	-1.828031540E-1	3.211296201E-1
1.593169596E1	-1.574974775E0	-4.969472885E-1	5.410673618E-1
1.593989623E1	-1.590708017E0	-7.666931152E-1	6.806851029E-1
1.594767807E1	-1.458425999E0	-9.901819229E-1	7.874875069E-1
1.595592353E1	-1.387224913E0	-1.091125488E0	9.093913436E-1
1.596408857E1	-1.184906721E0	-1.020254135E0	9.168585539E-1
1.596984149E1	-1.050550699E0	-7.850542068E-1	6.763076186E-1
1.597233584E1	-9.691479206E-1	-6.821031570E-1	6.260293722E-1
1.598088042E1	-5.931370258E-1	-1.236743927E-1	3.059366941E-1
1.598902161E1	-3.059794903E-1	4.132261276E-1	-5.023498833E-2
1.599714484E1	-2.866563797E-1	7.585535049E-1	-5.316249728E-1
1.600525050E1	-5.537490845E-1	1.046129227E0	-8.889362216E-1
1.601338880E1	-8.452570438E-1	1.317842484E0	-1.068381786E0
1.602154934E1	-1.015165329E0	1.534773827E0	-1.164563179E0
1.602937072E1	-9.963750839E-1	1.497642517E0	-1.129989505E0
1.603756457E1	-8.517782688E-1	1.168971062E0	-1.033815265E0
1.604571622E1	-6.372158527E-1	5.921249390E-1	-7.863105536E-1
1.605402991E1	-3.224761486E-1	1.313304901E-2	-6.727908254E-1
1.606258515E1	-1.917243004E-1	-5.247144699E-1	-4.052437842E-1
1.607071219E1	-1.880412102E-1	-7.421913147E-1	1.715279371E-2
1.607883750E1	-2.031757832E-1	-7.918691635E-1	2.919736505E-1
1.608693115E1	-3.230652809E-1	-6.706323624E-1	5.880041718E-1
1.609505500E1	-3.292965889E-1	-3.373146057E-1	7.058545947E-1
1.610323992E1	-3.239917755E-1	1.783084869E-2	9.642407894E-1
1.611107703E1	-3.045728207E-1	3.540391922E-1	7.416209579E-1
1.611916560E1	-3.108315468E-1	7.076501846E-1	5.583627820E-1
1.612750207E1	-2.981021404E-1	9.528055191E-1	2.744523287E-1
1.613580907E1	-3.165435791E-1	1.073450089E0	-1.432017237E-1
1.614427719E1	-3.188326359E-1	1.079385757E0	-2.614545822E-1
1.615240211E1	-2.066612244E-1	8.875789642E-1	-3.967056572E-1
1.616050588E1	-7.854247093E-2	4.948883057E-1	-5.073003769E-1
1.616862050E1	5.972719193E-2	5.972862244E-2	-5.380959511E-1
1.617674511E1	2.606194019E-1	-4.203395844E-1	-5.865139365E-1
1.618489526E1	4.023630619E-1	-8.440179825E-1	-7.306570411E-1
1.619273672E1	4.893822670E-1	-1.155137062E0	-5.324199796E-1
1.620092460E1	4.647119045E-1	-1.339150429E0	-2.901943624E-1
1.620913910E1	4.106163979E-1	-1.401918888E0	-1.847974807E-1
1.621734737E1	3.865385056E-1	-1.289055347E0	-1.131318808E-1
1.622591296E1	3.860177994E-1	-1.120542526E0	5.165943503E-2
1.623405238E1	3.937058449E-1	-8.801183701E-1	9.543430805E-2
1.624217603E1	4.292876720E-1	-5.532674789E-1	4.189038277E-2
1.625028876E1	4.125015736E-1	-1.706886292E-1	6.025606394E-2
1.625842684E1	3.288350105E-1	2.840747833E-1	1.144170761E-2
1.626659353E1	4.036045074E-1	7.244215012E-1	-1.942047477E-1
1.627453130E1	3.165593147E-1	1.065695763E0	-1.656076014E-1
1.628275672E1	1.440894604E-1	1.353605270E0	-2.174804211E-1
1.629095118E1	-1.875972748E-1	1.507474899E0	-2.092214227E-1
1.629911430E1	-3.151082993E-1	1.415441513E0	-7.312646508E-1
1.630765180E1	-3.724458218E-1	1.070767403E0	-6.675360203E-1
1.631577942E1	-3.076200485E-1	6.352148056E-1	-3.947899044E-1
1.632390323E1	-2.617416382E-1	3.016395569E-1	-2.007081807E-1
1.633200322E1	-1.502122879E-1	3.003787994E-2	4.232931137E-2
1.634012696E1	-1.191594601E-1	-5.978584290E-2	1.991957426E-1
1.634831307E1	-1.074802876E-1	-5.627632141E-3	2.540151477E-1
1.635612303E1	-1.384572983E-1	2.305355072E-1	4.156692624E-1
1.636432853E1	-1.767842770E-1	4.922752380E-1	4.255921245E-1
1.637255045E1	-1.893510818E-1	7.031879425E-1	4.935743809E-1
1.638098803E1	-1.739344597E-1	8.536758423E-1	4.654083848E-1
1.638935553E1	-1.174039841E-1	9.488954544E-1	3.927066326E-1
1.639748372E1	-2.401328087E-2	9.654455185E-1	3.206239939E-1
1.640562249E1	6.810736656E-2	9.177103043E-1	1.928113103E-1
1.641373876E1	1.308872700E-1	8.414211273E-1	2.309477925E-1
1.641944603E1	1.434590816E-1	7.531404495E-1	2.115954757E-1
1.642186249E1	1.626126766E-1	7.196216583E-1	1.972302794E-1
1.643004387E1	2.613840103E-1	5.762939453E-1	-1.394933462E-2
1.643786841E1	3.124597073E-1	4.210548401E-1	4.346328974E-2
1.644611795E1	3.169360161E-1	2.941875458E-1	1.783735752E-1
1.645438903E1	3.270423412E-1	1.790180206E-1	2.434896231E-1
1.646259487E1	3.560154438E-1	1.525306702E-1	2.609370351E-1
1.647107142E1	3.680396080E-1	2.146997452E-1	2.760214806E-1
1.647921484E1	3.585958481E-1	3.438301086E-1	3.111056685E-1
1.648734142E1	3.058860302E-1	5.040912628E-1	2.944660187E-1
1.649545896E1	2.828524113E-1	6.184463501E-1	2.696212530E-1
1.651178753E1	2.119328976E-1	6.636142731E-1	2.118555903E-1
1.651958887E1	1.736898422E-1	6.230812073E-1	1.392226219E-1
1.652774868E1	1.531763077E-1	5.462284088E-1	9.440499544E-2
1.653605422E1	1.190519333E-1	4.738540649E-1	6.524580717E-2
1.654453068E1	6.570434570E-2	4.086971283E-1	7.713496685E-2
1.655283269E1	4.375553131E-2	3.697662354E-1	1.234016418E-1
1.656095884E1	2.224516869E-2	3.139209747E-1	1.057107449E-1
1.656908215E1	-1.630234718E-2	2.726478577E-1	1.537517905E-1
1.657718399E1	-5.437874794E-2	2.217569351E-1	2.529757619E-1
1.658530996E1	-9.018921852E-2	1.638860703E-1	3.403109908E-1
1.659342972E1	-1.497833729E-1	1.180915833E-1	4.300134778E-1
1.660126322E1	-1.816039085E-1	6.950855255E-2	4.420878887E-1
1.660944114E1	-1.974880695E-1	-9.689331055E-3	4.072217941E-1
1.661780753E1	-2.055823803E-1	-8.898353577E-2	3.039472699E-1
1.662591791E1	-2.284193039E-1	-1.704721451E-1	2.261486053E-1
1.663454161E1	-2.773826122E-1	-2.758359909E-1	1.512398124E-1
1.664266753E1	-2.568342686E-1	-3.716926575E-1	7.288318872E-2
1.665080538E1	-2.424538136E-1	-4.264173508E-1	2.642416954E-2
1.665892099E1	-2.331547737E-1	-4.786577225E-1	2.844548225E-2
1.666701349E1	-2.745630741E-1	-4.900455475E-1	2.816957235E-2
1.667511230E1	-3.114445210E-1	-4.749794006E-1	3.487867117E-2
