"Time (s)"	"Acceleration x (m/s^2)"	"Acceleration y (m/s^2)"	"Acceleration z (m/s^2)"
8.036961000E-3	-5.650315881E-1	4.735731125E0	7.663839817E0
1.092161300E-2	-5.674257874E-1	4.750096321E0	7.671022415E0
1.218303800E-2	-5.530605912E-1	4.764461517E0	7.680599213E0
1.501384400E-2	-5.339069963E-1	4.766855717E0	7.685387611E0
1.632711500E-2	-5.123591423E-1	4.764461517E0	7.692570210E0
1.910599800E-2	-4.740519226E-1	4.762067318E0	7.704541206E0
2.079496100E-2	-3.711012602E-1	4.766855717E0	7.728483200E0
2.313045900E-2	-3.016694188E-1	4.759673119E0	7.730877399E0
2.471300000E-2	-2.154781520E-1	4.752490520E0	7.726089001E0
2.714845900E-2	-1.316810995E-1	4.747702122E0	7.735665798E0
2.837192300E-2	-5.027823523E-2	4.745307922E0	7.757213593E0
3.120592100E-2	3.830722719E-2	4.745307922E0	7.778761387E0
3.284188400E-2	1.125274822E-1	4.745307922E0	7.802703381E0
3.528422800E-2	1.747767180E-1	4.742913723E0	7.831433773E0
3.657853800E-2	2.274491638E-1	4.726154327E0	7.874529362E0
3.934145900E-2	2.825157940E-1	4.721365929E0	7.905653954E0
4.102515400E-2	3.399766386E-1	4.723760128E0	7.936778545E0
4.322719200E-2	3.854664862E-1	4.718971729E0	7.970297337E0
4.465769200E-2	4.261679053E-1	4.707000732E0	8.006210327E0
4.744915200E-2	4.668693244E-1	4.704606533E0	8.046912193E0
4.896676900E-2	5.003881454E-1	4.690241337E0	8.075642586E0
5.149776700E-2	5.267243981E-1	4.680664539E0	8.090007782E0
5.271096100E-2	5.386953950E-1	4.687847137E0	8.104372978E0
5.555449800E-2	5.267243981E-1	4.692635536E0	8.109161377E0
5.719538400E-2	5.099649429E-1	4.709394932E0	8.111555099E0
5.963249800E-2	4.955997467E-1	4.721365929E0	8.116343498E0
6.088588400E-2	4.812345505E-1	4.738125324E0	8.123526573E0
6.368911300E-2	4.740519226E-1	4.771644115E0	8.142680168E0
6.529380700E-2	4.668693244E-1	4.812345505E0	8.176198959E0
6.771872800E-2	4.596867263E-1	4.853046894E0	8.226476669E0
6.893500000E-2	4.381389022E-1	4.891354084E0	8.279149055E0
7.177511300E-2	4.118026793E-1	4.934449673E0	8.329427719E0
7.338011500E-2	3.950432837E-1	5.025429249E0	8.418013573E0
7.583865100E-2	3.926490843E-1	5.051765442E0	8.456320763E0
7.706057700E-2	3.926490843E-1	5.094861031E0	8.535328865E0
7.989622800E-2	3.854664862E-1	5.123591423E0	8.626308441E0
8.159292300E-2	3.734954596E-1	5.152322292E0	8.808267593E0
8.380438400E-2	3.687070608E-1	5.161899090E0	8.880094528E0
8.519450000E-2	3.519476354E-1	5.149928093E0	9.021351814E0
8.802015100E-2	3.423708379E-1	5.094861031E0	9.145850182E0
8.927969200E-2	3.543418646E-1	5.013458252E0	9.255983353E0
9.211299700E-2	4.070142806E-1	4.841075897E0	9.411606789E0
9.337823000E-2	4.357447028E-1	4.718971729E0	9.531316757E0
9.620553600E-2	4.405331016E-1	4.584896088E0	9.646238327E0
9.779550000E-2	4.189853072E-1	4.446032524E0	9.749189377E0
1.002693440E-1	3.591302633E-1	4.323928356E0	9.854534149E0
1.014907300E-1	2.609679997E-1	4.223371983E0	9.957485199E0
1.043272280E-1	1.364694983E-1	4.141968727E0	1.003649330E1
1.059496150E-1	1.675941236E-2	4.094084740E0	1.007240677E1
1.083740360E-1	-7.182604820E-2	4.094084740E0	1.006043530E1
1.095958070E-1	-1.364694983E-1	4.110844135E0	9.991003990E0
1.124316510E-1	-1.604115069E-1	4.103661537E0	9.864110947E0
1.140619610E-1	-1.149216816E-1	4.062960148E0	9.706093788E0
1.164958440E-1	-9.576806799E-3	4.010287762E0	9.540893555E0
1.177261150E-1	1.412578970E-1	3.952826977E0	9.411606789E0
1.205531130E-1	3.184288144E-1	3.883395195E0	9.320627213E0
1.222510000E-1	4.932055473E-1	3.804386616E0	9.277531624E0
1.244691150E-1	6.488286853E-1	3.701435804E0	9.287108421E0
1.258500770E-1	7.781155705E-1	3.562572241E0	9.356540680E0
1.286704970E-1	8.690952063E-1	3.404554844E0	9.476250648E0
1.301654610E-1	9.217676520E-1	3.246537447E0	9.617507935E0
1.327002280E-1	9.481038451E-1	3.122039080E0	9.749189377E0
1.339235770E-1	9.624691010E-1	3.026270866E0	9.864110947E0
1.367578050E-1	9.552865028E-1	2.983175278E0	9.962273598E0
1.383601530E-1	9.193734527E-1	2.999934673E0	9.986215591E0
1.407889200E-1	9.265560508E-1	2.971204281E0	1.001015759E1
1.420195770E-1	9.576807022E-1	2.918531895E0	1.007240677E1
1.448454200E-1	9.840168953E-1	2.873042107E0	1.012747288E1
1.464506530E-1	9.911994934E-1	2.815581083E0	1.011550236E1
1.488753050E-1	9.959878922E-1	2.789244890E0	1.008437729E1
1.501060000E-1	9.935936928E-1	2.760514498E0	1.000776291E1
1.529319590E-1	9.385270476E-1	2.736572504E0	9.926360130E0
1.547685000E-1	8.307880163E-1	2.604891539E0	9.825803757E0
1.570091130E-1	8.044517636E-1	2.549824715E0	9.792284966E0
1.582335000E-1	7.589619160E-1	2.406172752E0	9.715670586E0
1.610655360E-1	6.991068721E-1	2.188300371E0	9.612719536E0
1.627483460E-1	5.075707436E-1	1.798045516E0	9.399636269E0
1.649582300E-1	3.088520169E-1	1.604115129E0	9.263166428E0
1.663510000E-1	9.337386489E-2	1.496376038E0	9.179368973E0
1.691713820E-1	-1.005564705E-1	1.491587639E0	9.129091263E0
1.704302690E-1	-2.753331959E-1	1.606509328E0	9.057265282E0
1.732631130E-1	-4.405331016E-1	1.831564307E0	9.002198219E0
1.745171920E-1	-6.057330370E-1	2.114080191E0	9.030928612E0
1.773545740E-1	-7.422025204E-1	2.427720547E0	9.172186852E0
1.790119230E-1	-7.661445141E-1	2.755726099E0	9.392453194E0
1.814327660E-1	-7.613561153E-1	3.062183857E0	9.583989143E0
1.826650000E-1	-8.164227605E-1	3.313575268E0	9.694122314E0
1.854902280E-1	-9.193734527E-1	3.529053211E0	9.789890289E0
1.870934230E-1	-1.019929886E0	3.744531393E0	9.883264542E0
1.895219200E-1	-1.094150186E0	3.926490784E0	9.945513725E0
1.907790000E-1	-1.132457376E0	4.058171749E0	9.933543205E0
1.935794200E-1	-1.125274777E0	4.146757126E0	9.859322548E0
1.951741530E-1	-1.096544385E0	4.213795185E0	9.722852707E0
1.976426890E-1	-1.051054597E0	4.259284973E0	9.562441826E0
1.988526530E-1	-9.888052940E-1	4.290409565E0	9.402029991E0
2.016997660E-1	-9.169792533E-1	4.309563160E0	9.239224434E0
2.033896920E-1	-8.307880163E-1	4.304774761E0	8.995016098E0
2.056826150E-1	-8.068459630E-1	4.295197964E0	8.904036522E0
2.069909230E-1	-7.685387731E-1	4.276044369E0	8.707711220E0
2.098206890E-1	-7.398083210E-1	4.242525578E0	8.504204750E0
2.114341920E-1	-7.254431248E-1	4.194641590E0	8.283937454E0
2.138999590E-1	-7.350199223E-1	4.144362926E0	8.063671112E0
2.151490380E-1	-7.733271718E-1	4.096478939E0	7.838616371E0
2.179571890E-1	-8.092401624E-1	4.039018154E0	7.608773232E0
2.196902690E-1	-8.571242094E-1	3.960009575E0	7.225700855E0
2.220206120E-1	-8.690952063E-1	3.938461781E0	7.103596210E0
2.232339610E-1	-9.002198577E-1	3.900154591E0	6.873753071E0
2.260780350E-1	-9.552865028E-1	3.883395195E0	6.675034523E0
2.277735380E-1	-1.063025594E0	3.904942989E0	6.447585106E0
2.301246510E-1	-1.122880578E0	3.948038578E0	6.335057735E0
2.313478070E-1	-1.168370485E0	4.003105164E0	6.239289761E0
2.341818430E-1	-1.209071875E0	4.058171749E0	6.148310184E0
2.358954610E-1	-1.244984865E0	4.108449936E0	6.064512730E0
2.382457660E-1	-1.280897856E0	4.163516521E0	5.995080948E0
2.394850380E-1	-1.326387763E0	4.218583584E0	5.944802761E0
2.423028050E-1	-1.364694953E0	4.268861771E0	5.896918774E0
2.440478460E-1	-1.371877551E0	4.304774761E0	5.849034786E0
2.462104610E-1	-1.359906554E0	4.323928356E0	5.789179802E0
2.476326150E-1	-1.335964561E0	4.323928356E0	5.726930618E0
2.504196120E-1	-1.314416766E0	4.307168961E0	5.671864033E0
2.518459230E-1	-1.285686255E0	4.278438568E0	5.628767967E0
2.545149970E-1	-1.254561663E0	4.240131378E0	5.588066578E0
2.558596530E-1	-1.216254473E0	4.180276394E0	5.547365189E0
2.586069580E-1	-1.168370485E0	4.094084740E0	5.521028996E0
2.604584610E-1	-1.058237195E0	3.914519787E0	5.470750809E0
2.626712660E-1	-5.937620401E-1	3.404554844E0	5.020640850E0
2.638901530E-1	-1.101332754E-1	2.777273893E0	4.137180328E0
2.667286890E-1	4.548983276E-2	2.327163935E0	3.363853455E0
2.684007300E-1	3.591302410E-2	1.968033791E0	2.999934673E0
2.707601510E-1	-2.394201700E-3	1.580173135E0	3.117250681E0
2.720352690E-1	-8.140286058E-2	1.122880578E0	3.720589399E0
2.748173430E-1	-2.202665508E-1	5.602431893E-1	4.778826714E0
2.764733460E-1	-5.051765442E-1	-5.841852427E-1	7.343016624E0
2.788963810E-1	-6.368576288E-1	-1.019929886E0	8.441955566E0
2.801019230E-1	-9.313444495E-1	-1.841141105E0	1.076672459E1
2.829528810E-1	-1.142034173E0	-2.437297344E0	1.270602798E1
2.849993840E-1	-8.571242094E-1	-2.748543501E0	1.346977901E1
2.869821920E-1	-5.937620401E-1	-2.715024710E0	1.308910084E1
2.884419230E-1	2.394201607E-2	-2.516305923E0	1.172440529E1
2.910582280E-1	5.339069963E-1	-2.205059767E0	1.008916569E1
2.926547300E-1	6.775590777E-1	-1.379060149E0	8.025363922E0
2.951308040E-1	4.141969085E-1	-7.805097699E-1	7.070077419E0
2.963607300E-1	7.422025502E-2	-3.926490843E-1	6.442796707E0
2.991878810E-1	-3.423708379E-1	-9.816227108E-2	6.107608318E0
3.009552690E-1	-8.355764151E-1	2.489969730E-1	5.997475147E0
3.032653040E-1	-1.338358760E0	6.607996821E-1	6.047753334E0
3.045679230E-1	-1.788468719E0	1.086967587E0	6.179434776E0
3.073223430E-1	-2.126051188E0	1.484405041E0	6.327875137E0
3.090477690E-1	-2.315192938E0	1.836352706E0	6.442796707E0
3.113528810E-1	-2.394201756E0	2.121262789E0	6.509834290E0
3.125700380E-1	-2.398990154E0	2.319981337E0	6.550535679E0
3.154100740E-1	-2.475604534E0	2.537853718E0	6.859387875E0
3.170079990E-1	-3.162740469E0	2.966415882E0	8.549694061E0
3.194744580E-1	-4.345476151E0	3.670311213E0	1.149695683E1
3.207008070E-1	-4.608838081E0	4.398148537E0	1.388636971E1
3.235320740E-1	-3.320757866E0	4.754884720E0	1.471476364E1
3.252268460E-1	-1.379060149E0	4.697423935E0	1.424071217E1
3.275962270E-1	3.830722719E-2	4.477157116E0	1.346020222E1
3.289476530E-1	5.075707436E-1	4.340687752E0	1.286883450E1
3.316532660E-1	3.687070608E-1	4.393360138E0	1.248815632E1
3.329349610E-1	1.101332754E-1	4.465186119E0	1.219845772E1
3.357721120E-1	-4.548983276E-2	4.474762917E0	1.203325748E1
3.370671150E-1	-8.379705995E-2	4.517858505E0	1.206438255E1
3.398639580E-1	-6.703764945E-2	4.560954094E0	1.226310158E1
3.414739990E-1	2.154781483E-2	4.443638325E0	1.277306652E1
3.439276500E-1	7.900865376E-2	4.352658749E0	1.295502567E1
3.451514610E-1	2.537853718E-1	4.127603531E0	1.322796440E1
3.479849200E-1	4.836287498E-1	3.861847401E0	1.332373238E1
3.495941920E-1	8.212111592E-1	3.394978046E0	1.311783123E1
3.520303810E-1	9.217676520E-1	3.227383852E0	1.298375607E1
3.532514990E-1	1.094150186E0	2.870647907E0	1.267490387E1
3.560873430E-1	1.307234168E0	2.291250944E0	1.230859089E1
3.576890380E-1	1.455674648E0	1.869871497E0	1.220085144E1
3.601502660E-1	1.613691926E0	1.407790542E0	1.218169785E1
3.613783070E-1	1.788468719E0	9.241618514E-1	1.219606304E1
3.642066500E-1	1.989581585E0	4.477157295E-1	1.221042824E1
3.659050760E-1	2.193088770E0	-2.394201607E-2	1.218409252E1
3.682381530E-1	2.375048161E0	-4.764461517E-1	1.209550667E1
3.696553460E-1	2.516305923E0	-8.834604025E-1	1.195664310E1
3.723198040E-1	2.626439333E0	-1.237802267E0	1.176989555E1
3.738479990E-1	2.693476915E0	-1.544260144E0	1.156399441E1
3.763687660E-1	2.719813108E0	-1.793257117E0	1.132936287E1
3.776032300E-1	2.722207308E0	-1.996764183E0	1.108275986E1
3.804255350E-1	2.703053713E0	-2.166752577E0	1.082418633E1
3.820414610E-1	2.686294317E0	-2.305616140E0	1.053927612E1
3.844879190E-1	2.647987127E0	-2.379836559E0	1.020408726E1
3.857043460E-1	2.545036316E0	-2.420537949E0	9.864110947E0
3.885451120E-1	2.327163935E0	-2.504334927E0	9.629479408E0
3.901468840E-1	2.094926596E0	-2.588132143E0	9.540893555E0
3.925756120E-1	1.900996208E0	-2.547430515E0	9.485827446E0
3.938040380E-1	1.601720929E0	-2.363077164E0	9.222464561E0
3.966328810E-1	1.249773264E0	-2.068590164E0	8.655038834E0
3.982465760E-1	1.000776291E0	-1.675941229E0	7.927201748E0
4.007118420E-1	8.882488012E-1	-1.199495077E0	7.299921036E0
4.019373840E-1	8.595184088E-1	-6.727706790E-1	6.876147270E0
4.047689960E-1	8.355764151E-1	-1.532289088E-1	6.615179062E0
4.064566530E-1	6.751648784E-1	5.410895944E-1	6.368576527E0
4.086834610E-1	5.698199868E-1	7.398083210E-1	6.301538944E0
4.102561150E-1	2.753331959E-1	1.074996591E0	6.193799973E0
4.128749190E-1	-6.943184882E-2	1.331176162E0	6.162675381E0
4.142036920E-1	-3.567360640E-1	1.513135433E0	6.258443356E0
4.169935730E-1	-5.889736414E-1	1.649604917E0	6.500257492E0
4.182640760E-1	-7.900865674E-1	1.781286120E0	6.847416878E0
4.210851500E-1	-1.024718285E0	1.970427990E0	7.388506413E0
4.227060380E-1	-1.110909581E0	2.061407566E0	7.673416615E0
4.251631120E-1	-1.134851575E0	2.133233786E0	7.857769966E0
4.263857300E-1	-1.106121182E0	2.183511972E0	7.934384346E0
4.292198420E-1	-1.034295082E0	2.214636564E0	7.920019150E0
4.308134610E-1	-9.433154464E-1	2.207453966E0	7.845798969E0
4.332501500E-1	-8.403648138E-1	2.147598982E0	7.742848396E0
4.344870760E-1	-7.182605267E-1	1.963245392E0	7.596801758E0
4.373071120E-1	-6.177040339E-1	1.558625340E0	7.357381821E0
4.389104990E-1	-5.626373887E-1	1.209071875E0	7.175422668E0
4.413706880E-1	-4.908113480E-1	1.007958889E0	7.117961884E0
4.425971530E-1	-3.734954596E-1	8.786720037E-1	7.125144482E0
4.454270730E-1	-2.226607651E-1	7.541735172E-1	7.149086475E0
4.471183460E-1	-3.351882473E-2	6.033388376E-1	7.144298077E0
4.493573460E-1	1.939303428E-1	4.477157295E-1	7.108384609E0
4.507889610E-1	4.453215301E-1	2.801215947E-1	7.058106422E0
4.535475730E-1	7.637503147E-1	1.316810995E-1	7.089231014E0
4.552773070E-1	1.122880578E0	3.112462163E-2	7.340622425E0
4.576324960E-1	1.412579060E0	-3.591302410E-2	7.797914982E0
4.588618460E-1	1.608903527E0	-4.309562966E-2	8.432378769E0
4.616886500E-1	1.762132406E0	-1.436521020E-2	9.062053680E0
4.634166920E-1	1.915361404E0	6.703764945E-2	9.514557838E0
4.657511500E-1	2.080561161E0	1.699883193E-1	9.763554573E0
4.669840380E-1	2.236184359E0	2.274491638E-1	9.832986832E0
4.698070730E-1	2.358288765E0	2.274491638E-1	9.785101891E0
4.714282300E-1	2.597708941E0	2.825157940E-1	9.665391922E0
4.738530730E-1	2.748543501E0	3.782838583E-1	9.648633003E0
4.750774990E-1	3.172317266E0	6.512228847E-1	9.619902611E0
4.779093810E-1	3.639186621E0	8.571242094E-1	9.548076630E0
4.794925760E-1	4.309563160E0	9.696516991E-1	9.402029991E0
4.819721880E-1	4.525041103E0	9.864110947E-1	9.370905876E0
4.832054610E-1	4.929661274E0	1.003170490E0	9.299078941E0
4.860284580E-1	5.267243862E0	1.022324085E0	9.191340446E0
4.877319220E-1	5.619191170E0	1.048660398E0	8.987833023E0
4.899311150E-1	5.781997204E0	1.022324085E0	8.815450668E0
4.913120380E-1	5.925649166E0	9.457096457E-1	8.611943245E0
4.941438420E-1	6.040570736E0	8.475474119E-1	8.386888504E0
4.955207300E-1	6.059724331E0	7.541735172E-1	8.188169479E0
4.982453040E-1	5.973533154E0	6.727706790E-1	8.056488991E0
4.995234220E-1	5.765237808E0	6.129156351E-1	8.030152321E0
5.023369190E-1	5.427655220E0	5.698199868E-1	8.109161377E0
5.040308840E-1	4.965574265E0	5.363011956E-1	8.243236542E0
5.064009570E-1	4.446032524E0	5.243301988E-1	8.346187592E0
5.077846530E-1	4.074931145E0	5.219359994E-1	8.315062523E0
5.104569190E-1	4.173093796E0	4.548983276E-1	8.078036308E0
5.120519610E-1	4.786009312E0	3.040636182E-1	7.704541206E0
5.144857270E-1	5.559336185E0	9.097966552E-2	7.328651428E0
5.157524220E-1	6.138733387E0	-1.388636976E-1	7.029376030E0
5.185417650E-1	6.426037312E0	-3.495534360E-1	6.849811077E0
5.201499610E-1	6.521805286E0	-5.195417404E-1	6.775590897E0
5.226184960E-1	6.521805286E0	-6.344634295E-1	6.789956093E0
5.238558450E-1	6.449979305E0	-6.919242740E-1	6.859387875E0
5.266739960E-1	6.301538944E0	-6.823474765E-1	6.962338448E0
5.283544220E-1	5.944802761E0	-5.291185975E-1	7.163451672E0
5.305446530E-1	5.822698593E0	-4.548983276E-1	7.228095055E0
5.320082300E-1	5.604825974E0	-3.088520169E-1	7.333439827E0
5.347791500E-1	5.379771233E0	-1.747767180E-1	7.402871609E0
5.363142300E-1	5.104437828E0	-3.112462163E-2	7.453149796E0
5.388254190E-1	4.527435303E0	2.298433632E-1	7.481880188E0
5.400502300E-1	3.201047659E0	7.445967197E-1	7.493851185E0
5.428822270E-1	6.392518282E-1	1.668758631E0	7.580042362E0
5.445104220E-1	-5.597643375E0	3.883395195E0	8.130708694E0
5.469616110E-1	-7.800309181E0	4.685452938E0	8.382100105E0
5.482027300E-1	-1.081939793E1	5.853823185E0	8.707711220E0
5.510180730E-1	-1.120486355E1	6.174646378E0	8.532935143E0
5.526299220E-1	-8.896853447E0	5.679046631E0	7.599195957E0
5.550489190E-1	-8.061277390E0	5.487510204E0	7.256825447E0
5.562986920E-1	-6.627150536E0	5.178658485E0	6.653486729E0
5.591059570E-1	-4.613626480E0	4.814739704E0	5.951985359E0
5.607163840E-1	-3.112462282E0	4.508281708E0	5.623979568E0
5.631701880E-1	-1.659181833E0	4.173093796E0	5.398924828E0
5.643920380E-1	-5.267243981E-1	3.883395195E0	5.245696068E0
5.672264190E-1	1.628057212E-1	3.677493811E0	5.130774021E0
5.691871150E-1	5.219359994E-1	3.541024208E0	5.073313236E0
5.712911880E-1	8.427590132E-1	3.390189648E0	5.128379822E0
5.726394610E-1	1.331176162E0	3.160346270E0	5.262455463E0
5.753478800E-1	1.934514999E0	2.892195702E0	5.418078423E0
5.766633840E-1	2.545036316E0	2.624045134E0	5.585672379E0
5.794668030E-1	3.100491285E0	2.382230759E0	5.822698593E0
5.807996530E-1	3.572149038E0	2.176329374E0	6.184223175E0
5.835580340E-1	3.936067581E0	2.039859772E0	6.677428722E0
5.852058450E-1	4.185064793E0	1.984793186E0	7.240066051E0
5.876214570E-1	4.290409565E0	2.011129379E0	7.824251175E0
5.889133070E-1	4.252102375E0	2.104503393E0	8.408436775E0
5.916776880E-1	4.115632534E0	2.238578558E0	8.961497307E0
5.934014610E-1	3.931279182E0	2.394201756E0	9.461885452E0
5.957233030E-1	3.744531393E0	2.557007313E0	9.897629738E0
5.969599610E-1	3.598485231E0	2.705447912E0	1.024957752E1
5.997803420E-1	3.545812607E0	2.806004286E0	1.050336266E1
6.016265760E-1	3.696647406E0	2.822763920E0	1.075235939E1
6.038434570E-1	3.773261786E0	2.794033289E0	1.080982113E1
6.051251530E-1	3.936067581E0	2.695871115E0	1.090558910E1
6.079006880E-1	4.108449936E0	2.559401512E0	1.098699188E1
6.096111920E-1	4.299986362E0	2.324769735E0	1.108275986E1
6.118453450E-1	4.338293552E0	2.236184359E0	1.110670185E1
6.135544990E-1	4.414907932E0	2.042253971E0	1.115937424E1
6.160165720E-1	4.517858505E0	1.821987510E0	1.120007515E1
6.176072680E-1	4.754884720E0	1.462857246E0	1.110670185E1
6.200652650E-1	4.960785866E0	1.249773264E0	1.096065521E1
6.213662680E-1	5.133168221E0	1.072602391E0	1.075235939E1
6.241214950E-1	5.176264286E0	9.002198577E-1	1.046745014E1
6.257959990E-1	5.063736439E0	7.206547260E-1	1.026154804E1
6.281863030E-1	4.884171486E0	5.913678408E-1	1.022084713E1
6.294217300E-1	4.723760128E0	5.770025849E-1	1.024478912E1
6.322434950E-1	4.568136692E0	6.751648784E-1	1.024957752E1
6.341330760E-1	4.369418144E0	8.116343617E-1	1.026633644E1
6.362740720E-1	4.122815132E0	9.193734527E-1	1.030943298E1
6.374756920E-1	3.892971992E0	9.624691010E-1	1.035731697E1
6.403303420E-1	3.703830004E0	9.409212470E-1	1.038604736E1
6.419411530E-1	3.555389643E0	8.643068075E-1	1.040998936E1
6.444097650E-1	3.438073635E0	7.493851185E-1	1.042435455E1
6.456232680E-1	3.313575268E0	6.368576288E-1	1.041717148E1
6.484663030E-1	3.148375273E0	5.434837937E-1	1.041477776E1
6.501556920E-1	2.901772499E0	4.668693244E-1	1.042674828E1
6.523791150E-1	2.583343744E0	3.711012602E-1	1.044590187E1
6.537746530E-1	2.272097349E0	2.322375625E-1	1.044111347E1
6.565714570E-1	2.090138197E0	2.394201607E-2	1.034774017E1
6.579216150E-1	2.255337954E0	-2.298433632E-1	1.007001209E1
6.606628410E-1	2.542642117E0	-4.884171486E-1	9.674968719E0
6.619789610E-1	2.545036316E0	-7.422025204E-1	9.354146004E0
6.647542260E-1	2.389413357E0	-9.385270476E-1	9.069235802E0
6.664306530E-1	2.312798738E0	-1.142034173E0	8.678980827E0
6.688331490E-1	2.365471363E0	-1.204283476E0	8.571242332E0
6.701483840E-1	2.568978310E0	-1.323993564E0	8.401253700E0
6.728895340E-1	2.839523315E0	-1.436521053E0	8.310274124E0
6.747141150E-1	3.157952070E0	-1.505952835E0	8.391676903E0
6.769211490E-1	3.224989653E0	-1.496376038E0	8.374917984E0
6.781429610E-1	3.404554844E0	-1.513135433E0	8.283937454E0
6.809782640E-1	3.699041605E0	-1.623268723E0	8.406042099E0
6.826586920E-1	4.161122322E0	-1.716642618E0	9.339780807E0
6.850418410E-1	4.268861771E0	-1.659181833E0	9.770736694E0
6.863299220E-1	4.407725334E0	-1.434126854E0	1.062307262E1
6.890982260E-1	4.508281708E0	-9.457096457E-1	1.179623222E1
6.909557680E-1	4.594472885E0	-5.985504389E-1	1.251449203E1
6.930300380E-1	4.769249916E0	-2.944868207E-1	1.317289734E1
6.944058450E-1	5.027823448E0	-6.224924326E-2	1.367807388E1
6.972202260E-1	5.327098846E0	9.337386489E-2	1.397495556E1
6.988277680E-1	5.616796970E0	1.699883193E-1	1.408269405E1
7.012909950E-1	5.882553577E0	1.580173075E-1	1.404917526E1
7.026262300E-1	6.129156113E0	5.985504389E-2	1.392467690E1
7.053475340E-1	6.287173748E0	-4.309562966E-2	1.372356415E1
7.069591920E-1	6.196194172E0	-5.746084079E-2	1.342428875E1
7.094104950E-1	5.959167957E0	-5.027823523E-2	1.320402241E1
7.106257680E-1	5.844246387E0	-1.580173075E-1	1.317289734E1
7.134676490E-1	5.813121796E0	-3.040636182E-1	1.312740803E1
7.152328070E-1	5.758055210E0	-4.644751251E-1	1.302445698E1
7.175141100E-1	5.662287235E0	-6.320692301E-1	1.292629528E1
7.189328450E-1	5.580883980E0	-7.398083210E-1	1.280419064E1
7.215715720E-1	5.494692802E0	-7.230489254E-1	1.262223148E1
7.231773070E-1	5.434837818E0	-6.344634295E-1	1.246900272E1
7.256349570E-1	5.439626217E0	-5.626373887E-1	1.236365795E1
7.268764610E-1	5.540182590E0	-5.698199868E-1	1.227028370E1
7.296924950E-1	5.638344765E0	-6.105214357E-1	1.210747814E1
7.314126530E-1	5.676652431E0	-6.272808313E-1	1.179862595E1
7.335988070E-1	5.702988625E0	-6.296750307E-1	1.169806957E1
7.350269990E-1	5.822698593E0	-6.296750307E-1	1.147780323E1
7.378089180E-1	6.014234543E0	-6.320692301E-1	1.120246983E1
7.390985760E-1	6.224924564E0	-6.368576288E-1	1.091037750E1
7.419038800E-1	6.375759125E0	-6.320692301E-1	1.065898609E1
7.432888450E-1	6.461950302E0	-6.272808313E-1	1.048899746E1
7.459966490E-1	6.445190907E0	-6.248866320E-1	1.040520096E1
7.478408450E-1	6.318298340E0	-7.110779285E-1	1.046745014E1
7.500604180E-1	6.303933144E0	-8.523358107E-1	1.058955383E1
7.512827300E-1	6.327875137E0	-1.022324085E0	1.070687008E1
7.541174180E-1	6.330269337E0	-1.194706678E0	1.083615685E1
7.558910760E-1	6.344634533E0	-1.367089152E0	1.098699188E1
7.581487640E-1	6.404489517E0	-1.551442742E0	1.115219116E1
7.593860380E-1	6.540958881E0	-1.754949808E0	1.132457447E1
7.622060330E-1	6.708553314E0	-1.968033791E0	1.149216843E1
7.638784990E-1	6.720524311E0	-2.094926596E0	1.162863731E1
7.662844950E-1	6.438008308E0	-2.032677174E0	1.170525169E1
7.676607680E-1	5.973533154E0	-1.807622313E0	1.173637676E1
7.703419560E-1	5.528211594E0	-1.520318031E0	1.172440529E1
7.720344220E-1	5.221754074E0	-1.266532660E0	1.166455078E1
7.742428070E-1	5.114014626E0	-1.084573388E0	1.155441761E1
7.758016910E-1	5.193023682E0	-9.935936928E-1	1.140837097E1
7.784503030E-1	5.384559631E0	-9.792284966E-1	1.126711273E1
7.801854610E-1	5.597643375E0	-9.888052940E-1	1.120246983E1
7.825231870E-1	5.767632008E0	-1.017535686E0	1.126471901E1
7.838954610E-1	5.877765179E0	-1.074996591E0	1.143949604E1
7.865798410E-1	5.966350555E0	-1.185129881E0	1.166215611E1
7.884000760E-1	6.098031521E0	-1.316810966E0	1.184890461E1
7.906568030E-1	6.306327343E0	-1.436521053E0	1.192791271E1
7.918948450E-1	6.576871872E0	-1.498770237E0	1.189918232E1
7.947139560E-1	6.876147270E0	-1.491587639E0	1.180580902E1
7.964611150E-1	7.371747017E0	-1.319205165E0	1.155202293E1
7.987454180E-1	7.556100368E0	-1.235408068E0	1.143231297E1
7.999939220E-1	7.931990147E0	-1.048660398E0	1.116176796E1
8.028028020E-1	8.257601738E0	-8.283938169E-1	1.084812832E1
8.044053070E-1	8.609549522E0	-4.237737060E-1	1.027351952E1
8.068651100E-1	8.710105896E0	-2.944868207E-1	1.006761837E1
8.080998840E-1	8.884882927E0	-7.422025502E-2	9.641449928E0
8.109215330E-1	9.002198219E0	1.125274822E-1	9.227252960E0
8.126795760E-1	9.018958092E0	3.806780577E-1	8.710105896E0
8.148169220E-1	8.990227699E0	4.620809257E-1	8.578424454E0
8.162206140E-1	8.899248123E0	5.937620401E-1	8.360552788E0
8.190404180E-1	8.688557625E0	7.062895298E-1	8.109161377E0
8.203855380E-1	8.556877136E0	7.445967197E-1	7.984662533E0
8.231593790E-1	8.453926086E0	7.781155705E-1	7.934384346E0
8.244282300E-1	8.372523308E0	8.116343617E-1	7.922413349E0
8.272506870E-1	8.341399193E0	8.092401624E-1	7.876923561E0
8.288791140E-1	8.336610794E0	7.709329724E-1	7.776367188E0
8.313123410E-1	8.334216118E0	7.038952708E-1	7.666234016E0
8.326098840E-1	8.324639320E0	6.368576288E-1	7.556100368E0
8.353691100E-1	8.295908928E0	5.602431893E-1	7.364564419E0
8.370573070E-1	8.216899872E0	4.716577232E-1	7.182605267E0
8.394147640E-1	8.101978302E0	3.782838583E-1	7.067683220E0
8.406619220E-1	7.972691536E0	2.729389966E-1	6.971915245E0
8.434717640E-1	7.867346764E0	1.580173075E-1	6.900089264E0
8.450691140E-1	7.831433773E0	4.070143029E-2	6.816292286E0
8.475338790E-1	7.824251175E0	-7.900865376E-2	6.706159115E0
8.487679220E-1	7.802703381E0	-1.771709323E-1	6.605602264E0
8.515901870E-1	7.762001991E0	-2.585737705E-1	6.493074894E0
8.533358450E-1	7.771578789E0	-3.399766386E-1	6.370970726E0
8.555040760E-1	7.819462776E0	-4.189853072E-1	6.263231754E0
8.572624990E-1	7.874529362E0	-4.596867263E-1	6.186617374E0
8.597076870E-1	7.934384346E0	-4.932055473E-1	6.145915985E0
8.612113840E-1	7.972691536E0	-5.003881454E-1	6.177040577E0
8.637356480E-1	8.008605003E0	-5.051765442E-1	6.229712963E0
8.650205760E-1	8.027758598E0	-5.267243981E-1	6.270414352E0
8.677922640E-1	8.042123795E0	-5.410895944E-1	6.325480938E0
8.695808840E-1	8.092401505E0	-5.386953950E-1	6.313509941E0
8.718531100E-1	8.121131897E0	-5.530605912E-1	6.268020153E0
8.730838450E-1	8.176198959E0	-6.177040339E-1	6.196194172E0
8.759092640E-1	8.243236542E0	-6.703764796E-1	6.090848923E0
8.775396910E-1	8.362946510E0	-6.943184733E-1	5.832275391E0
8.799400710E-1	8.394071579E0	-6.919242740E-1	5.731719017E0
8.811956910E-1	8.434772491E0	-6.823474765E-1	5.525817394E0
8.839976870E-1	8.458714485E0	-6.703764796E-1	5.343858242E0
8.858736140E-1	8.456320763E0	-6.512228847E-1	5.204994678E0
8.880766100E-1	8.427590370E0	-6.607996821E-1	5.137956619E0
8.893099220E-1	8.410830498E0	-6.943184733E-1	5.078101635E0
8.921333020E-1	8.429984093E0	-7.230489254E-1	5.075707436E0
8.938189990E-1	8.513781548E0	-7.637503147E-1	5.109226227E0
8.960161910E-1	8.657433510E0	-8.116343617E-1	5.171475887E0
8.974155760E-1	8.865729332E0	-8.475474119E-1	5.240907669E0
9.002400710E-1	9.136273384E0	-8.547300100E-1	5.295974255E0
9.015155760E-1	9.402029991E0	-8.427590132E-1	5.360617638E0
9.043317640E-1	9.624691010E0	-8.164227605E-1	5.468356609E0
9.060108840E-1	9.816226959E0	-7.948749661E-1	5.588066578E0
9.084239940E-1	9.991003990E0	-7.805097699E-1	5.674258232E0
9.106853450E-1	1.016817474E1	-7.924807668E-1	5.770026207E0
9.124581100E-1	1.020887566E1	-8.092401624E-1	5.784391403E0
9.138698450E-1	1.026873112E1	-8.762778044E-1	5.734113216E0
9.165153790E-1	1.026394272E1	-1.022324085E0	5.561730385E0
9.182073450E-1	1.021845245E1	-1.218648672E0	5.532999992E0
9.205463790E-1	1.022802925E1	-1.328781962E0	5.758055210E0
9.221923840E-1	1.030464458E1	-1.328781962E0	6.026205540E0
9.245418790E-1	1.040998936E1	-1.288080573E0	6.196194172E0
9.262398840E-1	1.047463226E1	-1.278503656E0	6.260837555E0
9.285710710E-1	1.050815105E1	-1.357512355E0	6.191405773E0
9.299744610E-1	1.052012253E1	-1.498770237E0	6.076483727E0
9.326288790E-1	1.047942066E1	-1.654393315E0	6.007051945E0
9.343479990E-1	1.036449909E1	-1.862688899E0	5.987898350E0
9.365662680E-1	1.033337498E1	-1.912967205E0	5.961562157E0
9.380838070E-1	1.026154804E1	-1.970427990E0	5.813121796E0
9.407529940E-1	1.015620327E1	-1.956062794E0	5.607220173E0
9.424817300E-1	1.004367638E1	-1.884236693E0	5.413290024E0
9.448004560E-1	9.971850395E0	-1.771709204E0	5.260061264E0
9.461237300E-1	9.935936928E0	-1.625662923E0	5.169081688E0
9.488574940E-1	9.952696800E0	-1.414973259E0	5.178658485E0
9.504659990E-1	1.006522369E1	-9.792284966E-1	5.446808815E0
9.529212250E-1	1.010353088E1	-8.188169599E-1	5.578489780E0
9.541470370E-1	1.014902115E1	-5.051765442E-1	5.808333397E0
9.569780330E-1	1.013944435E1	-2.442085743E-1	5.880159378E0
9.586069990E-1	1.006522369E1	-1.915361360E-2	5.504269600E0
9.610234170E-1	1.008916569E1	1.244984865E-1	5.118803024E0
9.622414220E-1	1.016578007E1	2.729389966E-1	4.821922302E0
9.650813400E-1	1.027830791E1	4.094084799E-1	4.668693542E0
9.666631530E-1	1.038844109E1	5.267243981E-1	4.659116745E0
9.691451100E-1	1.047223854E1	5.985504389E-1	4.726154327E0
9.703813450E-1	1.049378586E1	6.272808313E-1	4.771644115E0
9.732023400E-1	1.044350815E1	6.081272364E-1	4.778826714E0
9.749143450E-1	1.032140350E1	5.315127969E-1	4.723760128E0
9.771051910E-1	1.013944435E1	4.118026793E-1	4.699818134E0
9.785728070E-1	9.938331604E0	2.681505978E-1	4.762067318E0
9.813177250E-1	9.734824181E0	9.816227108E-2	4.905719280E0
9.827768070E-1	9.528923035E0	-7.422025502E-2	5.032611847E0
9.853533400E-1	9.318233490E0	-2.178723514E-1	5.118803024E0
9.866459220E-1	9.076418877E0	-3.256114423E-1	5.173870087E0
9.894099560E-1	8.851364136E0	-4.165911078E-1	5.159504890E0
9.910366530E-1	8.635885239E0	-4.955997467E-1	5.085284233E0
9.934713400E-1	8.425195694E0	-5.530605912E-1	4.975151062E0
9.947503070E-1	8.252813339E0	-5.578489900E-1	4.800374508E0
9.975279940E-1	8.097189903E0	-5.267243981E-1	4.560954094E0
9.992465760E-1	7.903259754E0	-4.692635238E-1	4.297592163E0
1.001558917E0	7.666234016E0	-3.878606856E-1	4.113238335E0
1.002809499E0	7.553706169E0	-3.040636182E-1	3.940855980E0
1.005616379E0	7.568071365E0	-2.322375625E-1	3.691859007E0
1.007251230E0	7.620744228E0	-2.274491638E-1	3.320757866E0
1.009694417E0	7.692570210E0	-2.346317619E-1	2.834734917E0
1.011021999E0	7.776367188E0	-2.035071403E-1	2.300827742E0
1.013752302E0	7.855375767E0	-1.532289088E-1	1.798045516E0
1.015454076E0	7.999027729E0	0.000000000E0	1.192312479E0
1.017684537E0	8.025363922E0	7.661445439E-2	1.012747288E0
1.019080961E0	8.013393402E0	2.992752194E-1	6.344634295E-1
1.021859609E0	7.896077156E0	6.536170840E-1	2.418143749E-1
1.023513730E0	7.687781811E0	1.577778935E0	-3.591302410E-2
1.025946455E0	7.714118004E0	2.001552582E0	-5.506663769E-2
1.027265114E0	7.963114738E0	2.995146275E0	-5.985504389E-2
1.030003340E0	8.319850922E0	3.746925592E0	-2.082955539E-1
1.032146730E0	8.918401718E0	3.931279182E0	-1.429338455E0
1.034037071E0	8.702922821E0	3.679888010E0	-2.492363930E0
1.035407653E0	8.485051155E0	3.282450438E0	-3.363853455E0
1.038093725E0	8.609549522E0	2.908955097E0	-4.788403511E0
1.039960691E0	8.350975990E0	2.657563925E0	-5.956773758E0
1.042124955E0	7.635109425E0	2.518700123E0	-6.069301128E0
1.043336922E0	6.818686485E0	2.398990154E0	-5.298368454E0
1.046182148E0	6.030993938E0	2.202665567E0	-4.537012100E0
1.047825460E0	5.331887245E0	1.929726601E0	-4.125209332E0
1.050245340E0	4.747702122E0	1.625662923E0	-3.948038578E0
1.051488730E0	4.259284973E0	1.312022567E0	-3.538630009E0
1.054301994E0	3.904942989E0	9.696516991E-1	-2.873042107E0
1.056010922E0	3.737348795E0	5.913678408E-1	-2.181117773E0
1.058226960E0	3.754108191E0	1.867477298E-1	-1.690306425E0
1.059623730E0	3.936067581E0	-2.609679997E-1	-1.414973259E0
1.062422648E0	4.374206543E0	-7.924807668E-1	-1.355118155E0
1.064432884E0	4.929661274E0	-1.199495077E0	-1.436521053E0
1.066540878E0	5.482721806E0	-1.419761658E0	-1.587355733E0
1.067880576E0	6.016628742E0	-1.501164436E0	-1.735796213E0
1.070632725E0	6.497863293E0	-1.493981838E0	-1.865083098E0
1.072292691E0	6.864176273E0	-1.280897856E0	-2.032677174E0
1.074695763E0	7.062894821E0	-7.757213712E-1	-2.245761156E0
1.075957191E0	7.187393665E0	-3.160346150E-1	-2.257732153E0
1.078752917E0	7.350199223E0	-8.379705995E-2	-2.217030764E0
1.080390191E0	7.750030994E0	1.436521020E-2	-2.458845139E0
1.082800224E0	7.893682957E0	5.267243832E-2	-2.571372509E0
1.084025807E0	8.161833763E0	1.723825186E-1	-2.762908697E0
1.086856724E0	8.355764389E0	3.615244627E-1	-2.887407303E0
1.088514614E0	8.588001251E0	6.895300746E-1	-2.947262287E0
1.090919301E0	8.667010307E0	7.733271718E-1	-2.932897091E0
1.092146499E0	8.805873871E0	8.858546019E-1	-2.887407303E0
1.094976263E0	8.908824921E0	9.385270476E-1	-2.846705914E0
1.096822653E0	9.023746490E0	9.289502501E-1	-2.806004286E0
1.098884114E0	9.102754593E0	8.690952063E-1	-2.738966703E0
1.100261153E0	9.227252960E0	7.829039693E-1	-2.631227732E0
1.103092917E0	9.457097054E0	6.584054828E-1	-2.509123325E0
1.104725037E0	9.782708168E0	5.003881454E-1	-2.394201756E0
1.107141647E0	1.016338634E1	3.471592367E-1	-2.334346771E0
1.108431268E0	1.055603504E1	1.915361285E-1	-2.382230759E0
1.111198801E0	1.094629002E1	4.548983276E-2	-2.451662540E0
1.112926730E0	1.134612179E1	-9.337386489E-2	-2.477998734E0
1.115262301E0	1.174116516E1	-2.106897533E-1	-2.456450939E0
1.116609114E0	1.213381386E1	-3.040636182E-1	-2.408566952E0
1.119319763E0	1.252406883E1	-3.687070608E-1	-2.401384354E0
1.121193422E0	1.288559341E1	-4.046200812E-1	-2.463633537E0
1.123349378E0	1.320881081E1	-4.022258818E-1	-2.571372509E0
1.124729037E0	1.347217274E1	-3.447650373E-1	-2.662352324E0
1.127406070E0	1.363737297E1	-2.370259613E-1	-2.748543501E0
1.129111691E0	1.372356415E1	-1.029506698E-1	-2.779668093E0
1.131483994E0	1.375468922E1	5.506663769E-2	-2.667140722E0
1.132718691E0	1.377863121E1	1.364694983E-1	-2.506729126E0
1.135540801E0	1.383130360E1	5.267243832E-2	-2.286462545E0
1.137234960E0	1.374750614E1	2.154781483E-2	-2.049436569E0
1.139483345E0	1.353681660E1	4.309562966E-2	-1.836352706E0
1.140815691E0	1.325908947E1	1.029506698E-1	-1.616086125E0
1.143646224E0	1.294305420E1	1.987187415E-1	-1.369483352E0
1.145004268E0	1.261265469E1	3.040636182E-1	-1.197100878E0
1.147765609E0	1.225831223E1	4.094084799E-1	-1.007958889E0
1.149321153E0	1.191354752E1	5.243301988E-1	-7.565677166E-1
1.151857493E0	1.162384892E1	6.655880809E-1	-4.572925270E-1
1.153478807E0	1.124077702E1	9.121908545E-1	-2.394201700E-3
1.155937301E0	1.111627865E1	9.816226959E-1	1.197100878E-1
1.157186999E0	1.088404083E1	1.094150186E0	3.184288144E-1
1.159994916E0	1.069011021E1	1.175553083E0	5.051765442E-1
1.161671230E0	1.050336266E1	1.285686255E0	7.422025204E-1
1.164026263E0	1.037886429E1	1.386242747E0	8.954314590E-1
1.165278345E0	1.021366405E1	1.453280449E0	9.026140571E-1
1.168084070E0	9.995792389E0	1.479616642E0	7.972691655E-1
1.169679999E0	9.718064308E0	1.489193439E0	6.967126727E-1
1.172148378E0	9.459490776E0	1.525106430E0	7.110779285E-1
1.173399999E0	9.241618156E0	1.592144132E0	7.685387731E-1
1.176206455E0	9.069235802E0	1.577778935E0	7.781155705E-1
1.177951422E0	9.016563416E0	1.482010841E0	7.852981687E-1
1.180161345E0	9.062053680E0	1.398213744E0	8.259995580E-1
1.181521460E0	9.200917244E0	1.376665950E0	9.002198577E-1
1.184327647E0	9.358934402E0	1.357512355E0	9.169792533E-1
1.185797537E0	9.490615845E0	1.280897856E0	9.074024558E-1
1.188375532E0	9.615114212E0	1.197100878E0	9.816226959E-1
1.189610883E0	9.758766174E0	1.189918280E0	1.144428372E0
1.192433263E0	9.885659218E0	1.177947283E0	1.194706678E0
1.194035499E0	1.005564690E1	1.144428372E0	1.091755986E0
1.196498032E0	1.028549004E1	1.103726983E0	9.050082564E-1
1.197711383E0	1.053209305E1	1.027112484E0	7.685387731E-1
1.200555070E0	1.079545593E1	9.074024558E-1	6.895300746E-1
1.202206499E0	1.100853920E1	7.972691655E-1	6.488286853E-1
1.204602532E0	1.112824917E1	7.350199223E-1	6.320692301E-1
1.205782230E0	1.116655636E1	7.302315235E-1	6.727706790E-1
1.208659916E0	1.110191345E1	7.445967197E-1	7.182605267E-1
1.210257653E0	1.082658005E1	7.541735172E-1	7.565677166E-1
1.212691955E0	1.071165848E1	7.709329724E-1	7.589619160E-1
1.213888730E0	1.047942066E1	8.116343617E-1	7.829039693E-1
1.216749686E0	1.023521233E1	8.523358107E-1	8.331822157E-1
1.218458807E0	1.009634876E1	8.906430602E-1	9.911994934E-1
1.220667768E0	1.010353088E1	9.289502501E-1	1.053448796E0
1.222078730E0	1.016817474E1	1.041477680E0	1.168370485E0
1.224869570E0	1.028309631E1	1.175553083E0	1.307234168E0
1.226212460E0	1.045547867E1	1.304839969E0	1.450886250E0
1.228974416E0	1.067813969E1	1.462857246E0	1.580173135E0
1.230235460E0	1.103966427E1	1.687912226E0	1.872265697E0
1.233066647E0	1.123838234E1	1.766920805E0	2.006340981E0
1.234647768E0	1.135569859E1	1.716642618E0	2.066195965E0
1.237131839E0	1.144428444E1	1.580173135E0	2.102109194E0
1.238326845E0	1.157835960E1	1.508347034E0	2.145204782E0
1.241190032E0	1.166215611E1	1.503558636E0	2.183511972E0
1.242779922E0	1.166694450E1	1.482010841E0	2.205059767E0
1.245221685E0	1.159033012E1	1.424550056E0	2.188300371E0
1.246439922E0	1.143949604E1	1.352723956E0	2.145204782E0
1.249279339E0	1.113782597E1	1.335964561E0	2.205059767E0
1.250883691E0	1.052969933E1	1.355118155E0	2.561795712E0
1.253358032E0	9.641449928E0	1.398213744E0	3.397372246E0
1.254570345E0	8.418013573E0	1.503558636E0	4.939238071E0
1.257415185E0	6.679822922E0	1.738190413E0	7.067683220E0
1.259147653E0	5.020640850E0	2.061407566E0	9.112331390E0
1.261449845E0	4.522646904E0	2.284068346E0	9.715670586E0
1.263352922E0	5.147533417E0	2.329558372E0	9.260771751E0
1.265524108E0	6.016628742E0	2.255337954E0	8.688557625E0
1.267056691E0	6.500257492E0	2.118868589E0	8.698134422E0
1.269631339E0	6.749254704E0	1.922544003E0	8.836998940E0
1.270841614E0	7.077260017E0	1.663970232E0	8.769960403E0
1.273689608E0	7.656657219E0	1.405396342E0	8.580819130E0
1.275281576E0	8.877699852E0	1.065419793E0	8.025363922E0
1.277768224E0	9.284713745E0	9.744400978E-1	7.709329605E0
1.278982422E0	9.947908401E0	8.236053586E-1	6.842628479E0
1.281826531E0	1.036689377E1	6.847416759E-1	5.779603004E0
1.283425076E0	1.053688145E1	3.471592367E-1	4.249708176E0
1.285858378E0	1.049857426E1	1.987187415E-1	3.797203779E0
1.287205999E0	1.034774017E1	-9.576806426E-2	2.935291290E0
1.289916493E0	1.021366405E1	-2.968810201E-1	2.147598982E0
1.291520730E0	1.018732834E1	-4.141969085E-1	1.280897856E0
1.293980031E0	1.021845245E1	-4.118026793E-1	1.103726983E0
1.295191999E0	1.029746151E1	-3.447650373E-1	9.121908545E-1
1.298037493E0	1.036928749E1	-1.795651317E-1	9.337386489E-1
1.299749845E0	1.027591324E1	-1.436520964E-1	1.017535686E0
1.301937883E0	1.042195988E1	-1.149216816E-1	1.156399369E0
1.303534960E0	1.082179165E1	-4.788403213E-2	1.302445769E0
1.306164301E0	1.123838234E1	6.224924326E-2	1.414973259E0
1.307669845E0	1.151371574E1	2.106897533E-1	1.455674648E0
1.310289608E0	1.161906052E1	3.806780577E-1	1.484405041E0
1.311760268E0	1.164060879E1	5.578489900E-1	1.484405041E0
1.314382301E0	1.167891598E1	7.350199223E-1	1.489193439E0
1.315984037E0	1.172440529E1	8.810662031E-1	1.417367458E0
1.318445493E0	1.178665543E1	9.935936928E-1	1.261744261E0
1.319764153E0	1.184890461E1	1.077390790E0	1.053448796E0
1.322502608E0	1.191115379E1	1.125274777E0	8.643068075E-1
1.324114806E0	1.199016190E1	1.146822572E0	7.134721279E-1
1.326548531E0	1.208114147E1	1.134851575E0	6.081272364E-1
1.327888268E0	1.218888092E1	1.058237195E0	5.195417404E-1
1.330606608E0	1.231337929E1	9.217676520E-1	4.189853072E-1
1.332202345E0	1.241633034E1	7.541735172E-1	3.327940404E-1
1.334671916E0	1.246900272E1	5.793967843E-1	3.088520169E-1
1.335888845E0	1.245942593E1	3.998316824E-1	3.758896589E-1
1.338729262E0	1.237802315E1	2.130839527E-1	4.788403511E-1
1.340433345E0	1.206917095E1	-3.351882473E-2	6.320692301E-1
1.342704191E0	1.192312431E1	-9.337386489E-2	6.823474765E-1
1.344295460E0	1.159511852E1	-1.867477298E-1	7.924807668E-1
1.346847147E0	1.125993061E1	-2.633621991E-1	8.714894056E-1
1.348477306E0	1.068053341E1	-3.758896589E-1	9.026140571E-1
1.350873377E0	1.044590187E1	-3.974374831E-1	8.762778044E-1
1.352224614E0	9.962273598E0	-3.974374831E-1	7.086837292E-1
1.354931377E0	9.543288231E0	-3.806780577E-1	3.423708379E-1
1.356544191E0	9.074024200E0	-3.687070608E-1	-6.512228847E-1
1.358962800E0	8.975862503E0	-3.519476354E-1	-1.065419793E0
1.360219729E0	8.872911453E0	-3.136404157E-1	-1.884236693E0
1.363021570E0	8.889671326E0	-2.466027737E-1	-2.798821688E0
1.364693306E0	8.815450668E0	-1.221042871E-1	-3.078943491E0
1.367053608E0	8.544905663E0	6.943184882E-2	-3.062183857E0
1.368336922E0	8.063671112E0	3.160346150E-1	-2.676717520E0
1.371111800E0	7.426813602E0	6.392518282E-1	-1.953668594E0
1.372713845E0	6.722918510E0	1.029506683E0	-1.027112484E0
1.375192031E0	6.059724331E0	1.431732655E0	-2.394201607E-2
1.376543537E0	5.480327606E0	1.824381709E0	9.193734527E-1
1.379250454E0	4.963180065E0	2.229001760E0	1.723825216E0
1.380936383E0	4.479551315E0	2.633621931E0	2.351106167E0
1.383179345E0	4.019864559E0	3.045424461E0	2.796427488E0
1.384552922E0	3.620033026E0	3.476380825E0	3.074155092E0
1.387359146E0	3.306392431E0	3.914519787E0	3.239354849E0
1.388831537E0	3.088520288E0	4.376600742E0	3.292027235E0
1.391479146E0	2.995146275E0	4.821922302E0	3.287238836E0
1.392772845E0	2.992752075E0	5.183446884E0	3.311181068E0
1.395571762E0	3.038241863E0	5.487510204E0	3.289633036E0
1.397721037E0	3.153163671E0	5.772420406E0	3.145981073E0
1.399606108E0	3.210624456E0	5.827486992E0	3.095702887E0
1.400825691E0	3.421314240E0	5.951985359E0	3.023876667E0
1.403664223E0	3.732560396E0	6.054935932E0	3.004723072E0
1.405530460E0	4.378994942E0	6.203376770E0	3.078943491E0
1.407695723E0	4.582501888E0	6.224924564E0	3.112462282E0
1.408993229E0	4.912901878E0	6.210559368E0	3.191470861E0
1.411752954E0	5.221754074E0	6.217741966E0	3.320757866E0
1.413340845E0	5.851428986E0	6.246472359E0	3.555389643E0
1.415816839E0	6.112396717E0	6.222530365E0	3.636792421E0
1.417044691E0	6.629544735E0	6.071695328E0	3.806780815E0
1.419874877E0	7.089231014E0	5.889736176E0	3.919308186E0
1.421669537E0	7.539340973E0	5.597643375E0	4.003105164E0
1.423819114E0	7.611167431E0	5.513846397E0	4.046200752E0
1.425180114E0	7.678205013E0	5.372588634E0	4.156333923E0
1.427998339E0	7.764396191E0	5.063736439E0	4.359841347E0
1.429696076E0	7.900865555E0	4.687847137E0	4.505887508E0
1.432074108E0	8.180987358E0	4.158728123E0	4.692635536E0
1.433377845E0	8.523358345E0	3.584120035E0	4.991910458E0
1.436132685E0	8.923190117E0	3.026270866E0	5.339069843E0
1.437811076E0	9.423578262E0	2.487575531E0	5.509057999E0
1.440197185E0	1.001255131E1	2.020706177E0	5.363011837E0
1.441425076E0	1.057997704E1	1.656787634E0	4.963180065E0
1.444255992E0	1.111149025E1	1.343147159E0	4.498704910E0
1.445860537E0	1.165018559E1	1.082179189E0	4.074931145E0
1.448303146E0	1.205001736E1	8.978256583E-1	3.778050184E0
1.449552922E0	1.216972733E1	7.805097699E-1	3.672705412E0
1.452360992E0	1.200931549E1	6.943184733E-1	3.730166197E0
1.454050845E0	1.181299114E1	6.368576288E-1	3.890577793E0
1.456424877E0	1.177468395E1	5.770025849E-1	4.185064793E0
1.457683576E0	1.181059742E1	5.315127969E-1	4.546588898E0
1.460482492E0	1.183932781E1	4.692635238E-1	4.843470097E0
1.462177614E0	1.189439392E1	3.974374831E-1	5.087678432E0
1.464451460E0	1.192791271E1	3.399766386E-1	5.315127850E0
1.465786691E0	1.183932781E1	3.112462163E-1	5.425261021E0
1.468600761E0	1.163582039E1	2.968810201E-1	5.439626217E0
1.470009152E0	1.139400578E1	2.896983922E-1	5.408501625E0
1.472699646E0	1.119768143E1	2.442085743E-1	5.363011837E0
1.474151768E0	1.103726959E1	1.484405100E-1	5.319916248E0
1.476792608E0	1.071884060E1	7.182605099E-3	5.353435040E0
1.478421152E0	9.947908401E0	-1.915361285E-1	5.461174011E0
1.480857684E0	9.660603523E0	-2.130839527E-1	5.489904404E0
1.482090076E0	9.081207275E0	-2.777273953E-1	5.552153587E0
1.484915031E0	8.578424454E0	-4.644751251E-1	5.640739441E0
1.486665229E0	7.965508938E0	-9.074024558E-1	5.968744755E0
1.488947300E0	7.764396191E0	-1.048660398E0	6.107608318E0
1.490303845E0	7.357381821E0	-1.273715258E0	6.366182327E0
1.493005608E0	6.591237068E0	-1.414973259E0	6.404489517E0
1.494624037E0	6.102819920E0	-1.458068848E0	6.263231754E0
1.497084300E0	5.825092793E0	-1.546654344E0	6.052541733E0
1.498676076E0	5.700594425E0	-1.628057122E0	5.844246387E0
1.501141723E0	5.667075634E0	-1.690306425E0	5.530605793E0
1.502913383E0	5.717353821E0	-1.776497602E0	5.166687489E0
1.505074960E0	5.813121796E0	-1.800439715E0	4.972756863E0
1.506648345E0	5.868188381E0	-1.697489023E0	4.886565685E0
1.509249107E0	5.889736176E0	-1.491587639E0	4.721365929E0
1.510824960E0	5.875370979E0	-1.259350061E0	4.577713490E0
1.513324069E0	5.942408562E0	-9.935936928E-1	4.656722069E0
1.514547191E0	5.983109951E0	-7.110779285E-1	4.821922302E0
1.517381184E0	5.861005783E0	-4.596867263E-1	4.869806290E0
1.519021422E0	5.552153587E0	-2.466027737E-1	4.707000732E0
1.521459684E0	5.250484467E0	-6.224924326E-2	4.635174274E0
1.522692652E0	4.977545261E0	1.484405100E-1	4.728548527E0
1.525517838E0	4.647145271E0	3.878606856E-1	4.659116745E0
1.527112422E0	4.206612587E0	5.793967843E-1	4.486733913E0
1.529582492E0	3.689464808E0	7.350199223E-1	4.316745758E0
1.530806576E0	3.232172251E0	9.481038451E-1	4.230554581E0
1.533640338E0	2.829946518E0	1.173158884E0	4.232948780E0
1.535337268E0	2.224213362E0	1.482010841E0	4.398148537E0
1.537705261E0	2.015917778E0	1.592144132E0	4.393360138E0
1.538972229E0	1.623268723E0	1.810016513E0	4.235342979E0
1.541763646E0	1.288080573E0	2.061407566E0	4.017470360E0
1.543981460E0	9.552865028E-1	2.705447912E0	3.646369219E0
1.545713806E0	7.685387731E-1	3.038241863E0	3.538630009E0
1.547046460E0	-1.891419291E-1	4.017470360E0	3.507505417E0
1.549845223E0	-1.721431017E0	5.121197224E0	3.869029999E0
1.551188422E0	-2.729389906E0	5.849034786E0	4.563348293E0
1.553964530E0	-3.718195200E0	6.461950302E0	5.856217384E0
1.555223614E0	-4.948814869E0	7.134721279E0	6.754043102E0
1.558056684E0	-6.200982571E0	8.046912193E0	7.635109425E0
1.559762614E0	-7.024587631E0	9.009381294E0	8.458714485E0
1.562119415E0	-7.510610580E0	9.995792389E0	9.301473618E0
1.563457614E0	-7.721300602E0	1.108275986E1	1.020648193E1
1.566176569E0	-7.668628216E0	1.227986050E1	1.098938560E1
1.567743576E0	-7.587224960E0	1.340992355E1	1.148977375E1
1.570222607E0	-7.781155586E0	1.443703651E1	1.175553036E1
1.571536922E0	-8.010998726E0	1.526782417E1	1.200692177E1
1.574278992E0	-7.740454197E0	1.566286755E1	1.231098557E1
1.575868268E0	-6.507440090E0	1.510501862E1	1.329500198E1
1.578342607E0	-4.809951305E0	1.376426601E1	1.495178986E1
1.579617999E0	-3.347094059E0	1.257674122E1	1.582567310E1
1.582399261E0	-1.831564307E0	1.150653362E1	1.562216568E1
1.584135999E0	-4.285621047E-1	1.050815105E1	1.462857246E1
1.586335768E0	9.433154464E-1	9.540893555E0	1.329021358E1
1.587844768E0	2.130839586E0	8.573636055E0	1.207635307E1
1.590514684E0	3.191470861E0	7.687781811E0	1.111867237E1
1.592005229E0	4.225766182E0	6.938396454E0	1.032140350E1
1.594566184E0	5.039794445E0	6.351817131E0	9.521739960E0
1.595797691E0	5.595249176E0	5.961562157E0	8.767566681E0
1.598623646E0	6.212953568E0	5.604825974E0	8.099584579E0
1.600383383E0	7.558494568E0	4.611232281E0	7.407660007E0
1.602688107E0	7.934384346E0	4.292803764E0	7.299921036E0
1.603893575E0	8.327033043E0	3.892971992E0	7.079654217E0
1.606745299E0	8.370129585E0	3.737348795E0	6.708553314E0
1.608330229E0	8.532935143E0	3.579331636E0	5.985504150E0
1.610777376E0	8.688557625E0	3.505111217E0	5.779603004E0
1.612017499E0	9.064447403E0	3.351882458E0	5.413290024E0
1.614834953E0	9.387664795E0	3.232172251E0	5.085284233E0
1.616452268E0	9.871294022E0	3.167528868E0	4.709394932E0
1.618913646E0	1.006761837E1	3.165134668E0	4.565742493E0
1.620146999E0	1.049378586E1	3.160346270E0	4.149151325E0
1.622971645E0	1.087685871E1	3.296815634E0	2.980781078E0
1.624712999E0	1.073320580E1	3.533841610E0	1.788468719E0
1.626890229E0	1.030703831E1	3.792415380E0	4.788403511E-1
1.628256460E0	9.878476143E0	4.060565948E0	-7.565677166E-1
1.631080876E0	9.543288231E0	4.405331135E0	-1.841141105E0
1.632471768E0	9.052476883E0	4.850652695E0	-2.674323320E0
1.635202992E0	8.465897560E0	5.303156853E0	-3.239354849E0
1.636475883E0	7.917624950E0	5.736507416E0	-3.653551817E0
1.639295453E0	7.431602001E0	6.133944988E0	-3.967192173E0
1.640921883E0	7.024587631E0	6.519411087E0	-4.180276394E0
1.643373607E0	6.684611320E0	6.907271862E0	-4.323928356E0
1.644599152E0	6.399701118E0	7.247248650E0	-4.369418144E0
1.647431492E0	6.224924564E0	7.558494568E0	-4.240131378E0
1.649019191E0	6.114790916E0	7.879317760E0	-3.912125587E0
1.651463453E0	5.973533154E0	8.192957878E0	-3.471592426E0
1.652709652E0	5.729324818E0	8.480262756E0	-2.932897091E0
1.655521338E0	5.470750809E0	8.722076416E0	-2.298433542E0
1.657115999E0	5.257667065E0	8.923190117E0	-1.592144132E0
1.659584915E0	4.984727859E0	9.109937668E0	-8.188169599E-1
1.660942460E0	4.685452938E0	9.275136948E0	-2.394201700E-3
1.663642222E0	4.434061527E0	9.433155060E0	8.068459630E-1
1.665331883E0	4.122815132E0	9.703699112E0	1.917755604E0
1.667693575E0	4.079719543E0	9.770736694E0	2.240972757E0
1.668987460E0	4.156333923E0	9.832986832E0	2.782062292E0
1.671763030E0	4.477157116E0	9.818621635E0	3.198653460E0
1.673280845E0	4.932055473E0	9.617507935E0	3.730166197E0
1.675810761E0	4.903325081E0	9.423578262E0	3.890577793E0
1.677039729E0	4.917690277E0	9.030928612E0	4.283226967E0
1.679867838E0	5.063736439E0	8.690952301E0	4.685452938E0
1.681468268E0	5.564124584E0	8.042123795E0	5.513846397E0
1.683932261E0	5.868188381E0	7.843404770E0	5.822698593E0
1.685146152E0	6.402095318E0	7.422025204E0	6.382941723E0
1.687989876E0	6.919242859E0	6.727706909E0	6.859387875E0
1.689658268E0	7.103596210E0	6.354211330E0	6.854599476E0
1.692036453E0	7.065289021E0	6.110002518E0	6.732495308E0
1.693353845E0	6.809109688E0	5.997475147E0	6.610390663E0
1.696094068E0	6.397306919E0	5.951985359E0	6.344634533E0
1.697676191E0	5.863399982E0	5.935225964E0	6.174646378E0
1.700157338E0	5.228936672E0	5.942408562E0	6.299144745E0
1.701425883E0	4.539406300E0	5.911283970E0	6.562506676E0
1.704215068E0	3.869029999E0	5.832275391E0	6.679822922E0
1.705965460E0	3.268085241E0	5.722142220E0	6.672640324E0
1.708149498E0	2.784456491E0	5.609614372E0	6.619967937E0
1.709627037E0	2.372653961E0	5.499481201E0	6.560112476E0
1.712332030E0	1.956062794E0	5.386953831E0	6.485892296E0
1.713829460E0	1.513135433E0	5.288791656E0	6.368576527E0
1.716432030E0	1.065419793E0	5.219359875E0	6.229712963E0
1.717797614E0	6.344634295E-1	5.169081688E0	6.153098583E0
1.720525222E0	1.939303428E-1	5.128379822E0	6.107608318E0
1.722191922E0	-2.418143749E-1	5.102043629E0	6.047753334E0
1.724587376E0	-6.009446383E-1	5.085284233E0	5.916072369E0
1.725866345E0	-8.667010069E-1	5.102043629E0	5.760449409E0
1.728645260E0	-1.113303781E0	5.164293289E0	5.576095581E0
1.730228191E0	-1.508347034E0	5.336675644E0	5.430049419E0
1.732676299E0	-1.644816518E0	5.425261021E0	5.391742229E0
1.733868845E0	-1.889025092E0	5.676652431E0	5.396530628E0
1.736734491E0	-2.126051188E0	6.004657745E0	5.389348030E0
1.738302306E0	-2.449268341E0	6.545747280E0	5.456385612E0
1.740814184E0	-2.561795712E0	6.725312710E0	5.444414616E0
1.742025729E0	-2.760514498E0	7.089231014E0	5.492298603E0
1.744872068E0	-2.999934673E0	7.465120792E0	5.413290024E0
1.746630729E0	-3.390189648E0	7.996633530E0	4.932055473E0
1.748776075E0	-3.452438831E0	8.164227486E0	4.805162907E0
1.750302806E0	-3.483563423E0	8.506598473E0	4.659116745E0
1.752979530E0	-3.454833031E0	9.062053680E0	4.467580318E0
1.754400191E0	-3.476380825E0	9.457097054E0	4.304774761E0
1.757073799E0	-3.514688015E0	9.852140427E0	4.127603531E0
1.758324229E0	-3.560178041E0	1.021127033E1	3.938461781E0
1.761131337E0	-3.574543238E0	1.054406452E1	3.737348795E0
1.762732383E0	-3.584120035E0	1.091277122E1	3.526659012E0
1.765211837E0	-3.612850428E0	1.132457447E1	3.318363667E0
1.766421306E0	-3.639186621E0	1.172679996E1	3.098097086E0
1.769268876E0	-3.660734415E0	1.210029507E1	2.849100113E0
1.770832998E0	-3.670311213E0	1.251688671E1	2.592920542E0
1.773300299E0	-3.677493811E0	1.295263100E1	2.315192938E0
1.774488075E0	-3.689464808E0	1.335485744E1	2.030282974E0
1.777356953E0	-3.691859007E0	1.375468922E1	1.733402014E0
1.778919075E0	-3.679888010E0	1.415930843E1	1.448492050E0
1.781421491E0	-3.658340216E0	1.453759289E1	1.185129881E0
1.782643345E0	-3.641580820E0	1.491587639E1	9.121908545E-1
1.785479068E0	-3.643975019E0	1.534683323E1	6.129156351E-1
1.787160921E0	-3.610456228E0	1.569399261E1	3.040636182E-1
1.789348498E0	-3.541024208E0	1.594777775E1	2.394201607E-2
1.790736921E0	-3.454833031E0	1.618240929E1	-1.939303428E-1
1.793602606E0	-3.359065056E0	1.643858910E1	-3.256114423E-1
1.794866114E0	-3.253720045E0	1.673307610E1	-3.758896589E-1
1.797721683E0	-3.124433279E0	1.702995682E1	-4.118026793E-1
1.798959268E0	-2.949656487E0	1.723346329E1	-4.572925270E-1
1.801814068E0	-2.738966703E0	1.737711525E1	-5.123591423E-1
1.803388075E0	-2.346317768E0	1.753992081E1	-5.075707436E-1
1.805877722E0	-2.123656988E0	1.757104683E1	-4.860229492E-1
1.807081614E0	-9.504981041E-1	1.755428696E1	-5.674257874E-1
1.809934760E0	8.068459630E-1	1.748006630E1	-6.320692301E-1
1.811700345E0	1.422155857E0	1.737951088E1	-4.285621047E-1
1.813980799E0	1.774103403E0	1.723346329E1	-1.053448766E-1
1.815183921E0	2.238578558E0	1.702277374E1	2.202665508E-1
1.818038068E0	3.119644880E0	1.672110558E1	4.979939461E-1
1.819733114E0	4.244919777E0	1.628775406E1	7.086837292E-1
1.822101529E0	5.245696068E0	1.580651951E1	8.906430602E-1
1.823303998E0	6.138733387E0	1.530852604E1	1.091755986E0
1.826158375E0	6.998251438E0	1.479616642E1	1.295263171E0
1.827927614E0	7.821856976E0	1.428141308E1	1.448492050E0
1.830206345E0	8.597578049E0	1.377863121E1	1.553836942E0
1.831462537E0	9.315838814E0	1.332133865E1	1.640028119E0
1.834274568E0	9.986215591E0	1.289756489E1	1.683123827E0
1.835773575E0	1.048660374E1	1.249533844E1	1.723825216E0
1.838343645E0	1.085052204E1	1.205480576E1	1.774103403E0
1.839535729E0	1.091516590E1	1.153286934E1	1.810016513E0
1.842400606E0	1.062786102E1	1.099656868E1	1.790862918E0
1.844018960E0	1.010113716E1	1.046984386E1	1.740584612E0
1.846463914E0	9.430760384E0	9.959878922E0	1.654393315E0
1.847655729E0	8.717288017E0	9.471462250E0	1.541865945E0
1.850520298E0	8.061277390E0	9.009381294E0	1.424550056E0
1.852116729E0	7.517793179E0	8.585607529E0	1.323993564E0
1.854584491E0	7.094019413E0	8.212111473E0	1.256955862E0
1.855789960E0	6.856993675E0	7.931990147E0	1.233013868E0
1.858640106E0	7.005434036E0	7.812280178E0	1.225831270E0
1.860232152E0	7.168240070E0	7.541735172E0	1.266532660E0
1.862716375E0	7.113173485E0	7.414842606E0	1.316810966E0
1.863920729E0	6.897695065E0	7.194576263E0	1.448492050E0
1.866772760E0	6.591237068E0	7.024587631E0	1.568202138E0
1.868474652E0	6.054935932E0	6.837840080E0	1.477222443E0
1.870638383E0	5.858611584E0	6.780379295E0	1.350329757E0
1.872074575E0	5.480327606E0	6.670246124E0	1.228225470E0
1.874879414E0	5.085284233E0	6.612784863E0	1.733402014E0
1.876136152E0	4.472368717E0	6.636727333E0	2.784456491E0
1.878998221E0	4.106055737E0	6.670246124E0	2.971204281E0
1.880235152E0	3.818751812E0	6.730101109E0	3.129221678E0
1.883090414E0	3.550601006E0	6.823474884E0	3.409343243E0
1.884661729E0	3.282450438E0	6.957550049E0	3.718195200E0
1.887168298E0	3.064578056E0	7.127538681E0	4.046200752E0
1.888364345E0	2.920926094E0	7.304709435E0	4.386177540E0
1.891225337E0	2.846705914E0	7.467514992E0	4.723760128E0
1.892794152E0	2.839523315E0	7.603984833E0	5.035006046E0
1.895289414E0	2.925714493E0	7.716512203E0	5.279214859E0
1.896475537E0	3.090914488E0	7.831433773E0	5.449203014E0
1.899346644E0	3.234566450E0	7.953537941E0	5.537788391E0
1.900907152E0	3.359065056E0	8.054094315E0	5.571307182E0
1.903409721E0	3.481169224E0	8.128314972E0	5.590460777E0
1.904589498E0	3.617638826E0	8.183381081E0	5.573701382E0
1.907466106E0	3.775655985E0	8.202534676E0	5.492298603E0
1.909167652E0	3.945644379E0	8.185775757E0	5.370194435E0
1.911411114E0	4.098873138E0	8.104372978E0	5.207388878E0
1.912847075E0	4.244919777E0	7.948749542E0	4.984727859E0
1.915587721E0	4.357447147E0	7.718906403E0	4.738125324E0
1.916898037E0	4.362235546E0	7.472303391E0	4.472368717E0
1.919712452E0	4.292803764E0	7.304709435E0	4.149151325E0
1.920929075E0	4.223371983E0	7.252037048E0	3.825934410E0
1.923805106E0	4.244919777E0	7.218518257E0	3.643975019E0
1.925388191E0	4.419696331E0	7.165845871E0	3.469198227E0
1.927869183E0	4.458003521E0	7.192182064E0	3.399766445E0
1.929057306E0	4.539406300E0	7.259219646E0	3.335123062E0
1.931926875E0	4.604049683E0	7.340622425E0	3.517082214E0
1.933504614E0	4.599261284E0	7.398083210E0	3.708618402E0
1.935973644E0	4.620809078E0	7.448361397E0	3.938461781E0
1.937157421E0	4.654327869E0	7.532158375E0	4.170699596E0
1.940031144E0	4.716577530E0	7.671022415E0	4.381389141E0
1.941595114E0	4.836287498E0	7.826645374E0	4.522646904E0
1.944094414E0	4.989516258E0	7.951143742E0	4.596867085E0
1.945274960E0	5.116408825E0	8.044517517E0	4.673481941E0
1.948151375E0	5.219359875E0	8.116343498E0	4.752490520E0
1.949834229E0	5.279214859E0	8.173804283E0	4.807557106E0
1.952043075E0	5.310339451E0	8.226476669E0	4.807557106E0
1.953429114E0	5.341464043E0	8.271966934E0	4.752490520E0
1.956267529E0	5.372588634E0	8.331821442E0	4.663905144E0
1.957555152E0	5.389348030E0	8.372523308E0	4.539406300E0
1.960365413E0	5.374982834E0	8.377311707E0	4.328716755E0
1.961613114E0	5.358223438E0	8.396465302E0	4.103661537E0
1.964457952E0	5.389348030E0	8.425195694E0	3.890577793E0
1.966019383E0	5.418078423E0	8.446743965E0	3.687070608E0
1.968488913E0	5.379771233E0	8.465897560E0	3.493140221E0
1.969678306E0	5.288791656E0	8.463502884E0	3.280056238E0
1.972546106E0	5.176264286E0	8.451532364E0	3.033453465E0
1.974101460E0	5.049371243E0	8.456320763E0	2.796427488E0
1.976576952E0	4.922478676E0	8.473079681E0	2.604891539E0
1.977757960E0	4.807557106E0	8.477868080E0	2.437297344E0
1.980633144E0	4.709394932E0	8.480262756E0	2.257732153E0
1.982218806E0	4.594472885E0	8.465897560E0	1.917755604E0
1.984710413E0	4.548983097E0	8.461109161E0	1.802833915E0
1.985917575E0	4.455609322E0	8.444349289E0	1.570596337E0
1.988766298E0	4.347870350E0	8.432378769E0	1.359906554E0
1.990439075E0	4.230554581E0	8.422801971E0	1.079784989E0
1.992815490E0	4.187458992E0	8.425195694E0	9.911994934E-1
1.993998421E0	4.086902142E0	8.449137688E0	8.331822157E-1
1.996872990E0	3.969586372E0	8.485051155E0	7.134721279E-1
1.998216114E0	3.737348795E0	8.540117264E0	5.961562395E-1
2.000976683E0	3.593696833E0	8.592789650E0	5.219359994E-1
2.002203537E0	3.481169224E0	8.657433510E0	4.357447028E-1
2.005068913E0	3.404554844E0	8.707711220E0	3.974374831E-1
2.006635037E0	3.349488258E0	8.748413086E0	3.998316824E-1
2.009146721E0	3.292027235E0	8.793902397E0	3.902548850E-1
2.010330191E0	3.246537447E0	8.856152534E0	3.734954596E-1
2.013203067E0	3.217807055E0	8.918401718E0	3.639186621E-1
2.014750998E0	3.232172251E0	8.973467827E0	3.375824392E-1
2.017234490E0	3.289633036E0	9.026140213E0	3.280056417E-1
2.018412729E0	3.371036053E0	9.064447403E0	3.567360640E-1
2.021291182E0	3.459621429E0	9.107542992E0	4.046200812E-1
2.022867306E0	3.550601006E0	9.155426979E0	4.788403511E-1
2.025355798E0	3.658340216E0	9.193734169E0	5.985504389E-1
2.026614960E0	3.775655985E0	9.224859238E0	7.517793179E-1
2.029413529E0	3.933673382E0	9.270348549E0	9.624691010E-1
2.031140537E0	4.113238335E0	9.323021889E0	1.233013868E0
2.033325691E0	4.309563160E0	9.358934402E0	1.520318031E0
2.034714498E0	4.489128113E0	9.375694275E0	1.771709204E0
2.037536298E0	4.635174274E0	9.363722801E0	1.989581585E0
2.038804575E0	4.759673119E0	9.344569206E0	2.205059767E0
2.041627952E0	4.857835293E0	9.327810287E0	2.422932148E0
2.042967306E0	4.934449673E0	9.296685219E0	2.619256735E0
2.045720221E0	5.006275654E0	9.255983353E0	2.784456491E0
2.047290575E0	5.061342239E0	9.169792175E0	2.992752075E0
2.049783298E0	5.063736439E0	9.136273384E0	3.052607059E0
2.051015383E0	5.054159641E0	9.064447403E0	3.162740469E0
2.053841259E0	5.032611847E0	8.995016098E0	3.265691042E0
2.055404460E0	4.963180065E0	8.882488251E0	3.354276657E0
2.057887490E0	4.936843872E0	8.839392662E0	3.359065056E0
2.059095844E0	4.869806290E0	8.743624687E0	3.354276657E0
2.061945298E0	4.726154327E0	8.588001251E0	3.315969467E0
2.063634806E0	4.611232281E0	8.477868080E0	3.272873640E0
2.066009605E0	4.479551315E0	8.370129585E0	3.227383852E0
2.067228191E0	4.352658749E0	8.262390137E0	3.181894064E0
2.070066336E0	4.213795185E0	8.157045364E0	3.107673883E0
2.071767575E0	4.103661537E0	8.063671112E0	3.033453465E0
2.073975267E0	3.983951569E0	7.984662533E0	2.966415882E0
2.075359575E0	3.758896589E0	7.886500359E0	2.892195702E0
2.078182413E0	3.505111217E0	7.805097580E0	2.813186884E0
2.079650844E0	3.299209833E0	7.747636795E0	2.743755102E0
2.082229375E0	3.043030262E0	7.690176010E0	2.686294317E0
2.083432883E0	2.700659513E0	7.668628216E0	2.612074137E0
2.086286874E0	2.427720547E0	7.694964409E0	2.547430515E0
2.087863114E0	2.437297344E0	7.697358608E0	2.449268341E0
2.090350759E0	2.585737944E0	7.659051418E0	2.288856745E0
2.091669306E0	2.717418909E0	7.647080421E0	2.104503393E0
2.094408221E0	2.822763920E0	7.687781811E0	1.965639591E0
2.095980075E0	2.911349297E0	7.738059998E0	1.903390408E0
2.098438951E0	3.011905670E0	7.759607792E0	1.934514999E0
2.099707729E0	3.153163671E0	7.745242596E0	2.013523579E0
2.102495451E0	3.318363667E0	7.711723804E0	2.078166962E0
2.104087344E0	3.488351822E0	7.675810814E0	2.090138197E0
2.106574067E0	3.624821424E0	7.647080421E0	2.099714994E0
2.107787652E0	3.763684988E0	7.635109425E0	2.147598982E0
2.110630605E0	3.921702385E0	7.625532627E0	2.190694571E0
2.112316152E0	4.175487995E0	7.620744228E0	2.252943754E0
2.114564690E0	4.254496574E0	7.620744228E0	2.284068346E0
2.115895460E0	4.417302132E0	7.611167431E0	2.315192938E0
2.118736874E0	4.575319290E0	7.613561630E0	2.346317768E0
2.120069729E0	4.752490520E0	7.642292023E0	2.382230759E0
2.122829605E0	4.934449673E0	7.663839817E0	2.415749550E0
2.124068652E0	5.104437828E0	7.687781811E0	2.477998734E0
2.126922105E0	5.315127850E0	7.740454197E0	2.590526342E0
2.128503306E0	5.449203014E0	7.807491779E0	2.669534922E0
2.130999990E0	5.556941986E0	7.864952564E0	2.695871115E0
2.132216460E0	5.650316238E0	7.927201748E0	2.849100113E0
2.135057605E0	5.803544998E0	7.994239330E0	3.110068083E0
2.136678037E0	5.987898350E0	8.042123795E0	3.294421434E0
2.139089413E0	6.145915985E0	8.116343498E0	3.478775024E0
2.140289575E0	6.306327343E0	8.202534676E0	3.591302633E0
2.143146836E0	6.428431511E0	8.283937454E0	3.605667830E0
2.144732190E0	6.457161903E0	8.377311707E0	3.550601006E0
2.147211567E0	6.402095318E0	8.473079681E0	3.423708439E0
2.148450883E0	6.279991150E0	8.554482460E0	3.284844637E0
2.151268490E0	6.129156113E0	8.633491516E0	3.203441858E0
2.153312614E0	5.918466568E0	8.693346024E0	3.141192675E0
2.155262729E0	5.602431774E0	8.729259491E0	3.069366693E0
2.156581421E0	5.207388878E0	8.757989883E0	2.999934673E0
2.159390067E0	4.764461517E0	8.774748802E0	2.916137695E0
2.160858498E0	4.304774761E0	8.769960403E0	2.796427488E0
2.163437682E0	3.857059002E0	8.729259491E0	2.664746523E0
2.164624575E0	3.423708439E0	8.669404030E0	2.535459518E0
2.167494874E0	3.021482468E0	8.599972725E0	2.401384354E0
2.169058190E0	2.669534922E0	8.528146744E0	2.279279947E0
2.171558759E0	2.379836559E0	8.461109161E0	2.166752577E0
2.172779729E0	2.147598982E0	8.403648376E0	2.080561161E0
2.175616259E0	1.948880196E0	8.355764389E0	2.013523579E0
2.177330190E0	1.719036818E0	8.262390137E0	1.886630893E0
2.179697182E0	1.654393315E0	8.231265068E0	1.836352706E0
2.180897306E0	1.522712231E0	8.180987358E0	1.738190413E0
2.183754066E0	1.424550056E0	8.128314972E0	1.663970232E0
2.185418729E0	1.443703651E0	8.010998726E0	1.620874524E0
2.187816874E0	1.491587639E0	7.955932140E0	1.623268723E0
2.189049460E0	1.582567334E0	7.857769966E0	1.663970232E0
2.191873682E0	1.673547029E0	7.788338184E0	1.788468719E0
2.193639190E0	1.829170108E0	7.682993412E0	2.145204782E0
2.195763037E0	1.970427990E0	7.599195957E0	2.394201756E0
2.197276844E0	2.138022184E0	7.522581577E0	2.592920542E0
2.199991836E0	2.310404539E0	7.481880188E0	2.734178305E0
2.201248960E0	2.511517525E0	7.453149796E0	2.817975283E0
2.204086989E0	2.695871115E0	7.400477409E0	2.853888512E0
2.205400460E0	2.885013103E0	7.319074631E0	2.858676910E0
2.208177720E0	3.062183857E0	7.242460251E0	2.829946518E0
2.209810652E0	3.213018656E0	7.182605267E0	2.806004286E0
2.212240297E0	3.349488258E0	7.134721279E0	2.782062292E0
2.213435575E0	3.488351822E0	7.082048416E0	2.760514498E0
2.216296682E0	3.598485231E0	7.050923824E0	2.712630510E0
2.217898190E0	3.689464808E0	7.024587631E0	2.628833532E0
2.220328566E0	3.754108191E0	6.998251438E0	2.542642117E0
2.221557113E0	3.818751812E0	6.988674641E0	2.470816135E0
2.224385797E0	3.881000996E0	6.995857239E0	2.375048161E0
2.226118229E0	3.967192173E0	7.019799232E0	2.250549555E0
2.228463720E0	4.074931145E0	7.065289021E0	2.092532396E0
2.229669883E0	4.182670593E0	7.146692276E0	1.929726601E0
2.232521143E0	4.237737179E0	7.252037048E0	1.802833915E0
2.234230883E0	4.206612587E0	7.402871609E0	1.651999116E0
2.236415421E0	4.201824188E0	7.457938194E0	1.599326730E0
2.237782037E0	4.185064793E0	7.572859764E0	1.508347034E0
2.240627797E0	4.161122322E0	7.668628216E0	1.482010841E0
2.242105344E0	4.082113743E0	7.738059998E0	1.472434044E0
2.244675028E0	3.936067581E0	7.802703381E0	1.434126854E0
2.245891690E0	3.737348795E0	7.879317760E0	1.371877551E0
2.248732335E0	3.521870613E0	7.963114738E0	1.276109457E0
2.250323729E0	3.155557871E0	8.118738174E0	1.139639974E0
2.252810682E0	3.009511471E0	8.169015884E0	1.122880578E0
2.254017267E0	2.774879694E0	8.233659744E0	1.132457376E0
2.256868182E0	2.671929121E0	8.279149055E0	1.142034173E0
2.258444767E0	2.456450939E0	8.480262756E0	1.019929886E0
2.260899489E0	2.171540976E0	8.655038834E0	8.355764151E-1
2.262093460E0	1.812410712E0	8.868123055E0	6.129156351E-1
2.264956605E0	1.692700624E0	9.030928612E0	1.146822572E0
2.266581575E0	1.692700624E0	9.050082207E0	2.126051188E0
2.269019912E0	1.668758631E0	8.985439301E0	2.808398485E0
2.270259460E0	1.860294700E0	8.906430244E0	3.301604033E0
2.273076835E0	2.262520552E0	8.889671326E0	3.708618402E0
2.274883575E0	2.935291290E0	8.916007042E0	4.039018154E0
2.276970960E0	3.691859007E0	8.906430244E0	4.252102375E0
2.278365998E0	4.302380562E0	8.832210541E0	4.352658749E0
2.281198605E0	4.855441093E0	8.743624687E0	4.414907932E0
2.282462652E0	5.319916248E0	8.674192429E0	4.534617901E0
2.285318105E0	5.640739441E0	8.611943245E0	4.718971729E0
2.286571998E0	5.963956356E0	8.535328865E0	4.807557106E0
2.289410143E0	6.330269337E0	8.458714485E0	4.800374508E0
2.291037152E0	6.694188118E0	8.391676903E0	4.786009312E0
2.293472412E0	7.015010834E0	8.324639320E0	4.766855717E0
2.294699960E0	7.333439827E0	8.267178535E0	4.723760128E0
2.297529681E0	7.644686222E0	8.255207062E0	4.683058739E0
2.299126921E0	7.955932140E0	8.274360657E0	4.659116745E0
2.301576143E0	8.063671112E0	8.271966934E0	4.637568474E0
2.302791652E0	8.379706383E0	8.236053467E0	4.560954094E0
2.305632566E0	8.669404030E0	8.202534676E0	4.474762917E0
2.307226921E0	8.808267593E0	8.219294548E0	4.364629745E0
2.309694451E0	8.949525833E0	8.202534676E0	4.335899353E0
2.311274075E0	9.385271072E0	8.152256966E0	4.261679173E0
2.313751181E0	9.837775230E0	8.082824707E0	4.177882195E0
2.315485767E0	1.019690514E1	7.955932140E0	4.060565948E0
2.317647883E0	1.020887566E1	7.908048153E0	4.015076160E0
2.319035883E0	1.027112484E1	7.781155586E0	3.907337189E0
2.321866181E0	1.054645824E1	7.592013359E0	3.782838583E0
2.323662229E0	1.117852783E1	7.283161640E0	3.629609823E0
2.325892335E0	1.150892735E1	7.115567684E0	3.502717018E0
2.327147652E0	1.160469532E1	7.012616634E0	3.363853455E0
2.329948412E0	1.165018559E1	6.926425457E0	3.220201254E0
2.331526998E0	1.176271248E1	6.806715488E0	3.047818661E0
2.334010643E0	1.171004009E1	6.727706909E0	2.873042107E0
2.335257613E0	1.140837097E1	6.734889507E0	2.736572504E0
2.338067374E0	1.096783829E1	6.809109688E0	2.621650934E0
2.339661190E0	1.054406452E1	6.904877663E0	2.482787132E0
2.342098027E0	1.018493366E1	6.979097843E0	2.336740971E0
2.343304806E0	9.804255486E0	7.046135426E0	2.214636564E0
2.346154758E0	9.315838814E0	7.144298077E0	2.123656988E0
2.347899613E0	8.913613319E0	7.230489254E0	2.027888775E0
2.350233335E0	8.588001251E0	7.304709435E0	1.920149803E0
2.351448036E0	8.293514252E0	7.376535416E0	1.826775908E0
2.354291527E0	7.984662533E0	7.479485989E0	1.716642618E0
2.355993613E0	7.565677166E0	7.635109425E0	1.604115129E0
2.358313229E0	7.122750282E0	7.826645374E0	1.496376038E0
2.359645113E0	6.852205276E0	7.999027729E0	1.381454349E0
2.362397950E0	6.687005520E0	8.145073891E0	1.335964561E0
2.363795152E0	6.337451935E0	8.341399193E0	1.355118155E0
2.366517104E0	5.940014362E0	8.513781548E0	1.501164436E0
2.367771229E0	5.255272865E0	8.726864815E0	1.668758631E0
2.370608489E0	4.388571739E0	8.975862503E0	1.795651317E0
2.372355113E0	3.452438831E0	9.198522568E0	2.049436569E0
2.374685450E0	3.100491285E0	9.270348549E0	2.118868589E0
2.375986036E0	2.322375536E0	9.406818390E0	2.221819162E0
2.378741758E0	2.145204782E0	9.409213066E0	2.387019157E0
2.380323306E0	4.297592163E0	8.789113998E0	2.719813108E0
2.382773796E0	4.465186119E0	8.659827232E0	2.607285738E0
2.384010690E0	3.620033026E0	8.719682693E0	2.130839586E0
2.386831450E0	2.566584110E0	8.901641846E0	1.776497602E0
2.388507844E0	2.056619167E0	8.995016098E0	1.750161409E0
2.390894719E0	2.245761156E0	8.966285706E0	1.862688899E0
2.392136306E0	2.413355350E0	8.949525833E0	1.932120800E0
2.394951219E0	2.360682964E0	8.935160637E0	1.939303398E0
2.396887267E0	2.260126352E0	8.884882927E0	1.929726601E0
2.398935383E0	2.298433542E0	8.803479195E0	1.936909199E0
2.400371921E0	2.229001760E0	8.765172005E0	1.987187386E0
2.403071566E0	2.111685991E0	8.772355080E0	2.063801765E0
2.404612960E0	2.097320795E0	8.769960403E0	2.094926596E0
2.407129989E0	2.147598982E0	8.750806808E0	2.075772762E0
2.408398844E0	2.149993181E0	8.719682693E0	1.975216389E0
2.411186412E0	2.226607561E0	8.640673637E0	1.838746905E0
2.412902267E0	2.355894566E0	8.540117264E0	1.774103403E0
2.415249681E0	2.310404539E0	8.494627953E0	1.805228114E0
2.416492536E0	2.181117773E0	8.485051155E0	1.845929503E0
2.419306681E0	1.963245392E0	8.513781548E0	1.869871497E0
2.420942113E0	1.709460020E0	8.535328865E0	1.929726601E0
2.423352604E0	1.486799240E0	8.556877136E0	1.999158382E0
2.424595690E0	1.304839969E0	8.559270859E0	2.051830769E0
2.427409719E0	1.144428372E0	8.516175270E0	2.099714994E0
2.429076383E0	1.000776291E0	8.461109161E0	2.169146776E0
2.431472642E0	9.145850539E-1	8.406042099E0	2.286462545E0
2.432715459E0	8.547300100E-1	8.374917984E0	2.458845139E0
2.435530258E0	9.648633003E-1	8.353369713E0	2.643198729E0
2.437313113E0	1.369483352E0	8.267178535E0	2.887407303E0
2.439539229E0	1.575384736E0	8.226476669E0	2.920926094E0
2.441198344E0	2.044648170E0	8.142680168E0	2.942473888E0
2.443652681E0	2.284068346E0	8.109161377E0	2.966415882E0
2.445264575E0	2.437297344E0	8.133103371E0	3.038241863E0
2.447749989E0	2.626439333E0	8.169015884E0	3.222595453E0
2.449016729E0	3.148375273E0	8.154650688E0	3.373430252E0
2.451842258E0	3.488351822E0	8.166622162E0	3.335123062E0
2.453454536E0	4.137180328E0	8.147468567E0	3.222595453E0
2.455904912E0	5.169081688E0	8.090007782E0	3.186682463E0
2.457210421E0	5.626373768E0	8.116343498E0	3.119644880E0
2.459961604E0	5.547365189E0	8.279149055E0	3.059789658E0
2.461560536E0	6.478709698E0	8.930372238E0	2.954444885E0
2.463993258E0	7.651868820E0	1.067574501E1	2.935291290E0
2.465246613E0	6.308721542E0	1.227746677E1	3.014299870E0
2.468050181E0	3.557783842E0	1.319683933E1	2.880224705E0
2.469689498E0	2.427720547E0	1.347456741E1	2.655169725E0
2.472127681E0	2.573766708E0	1.299333286E1	2.456450939E0
2.473376575E0	3.062183857E0	1.190157700E1	2.525882721E0
2.476184758E0	3.983951569E0	1.078348446E1	2.679111719E0
2.477948998E0	4.295197964E0	1.003409958E1	2.568978310E0
2.480235142E0	4.079719543E0	9.509769440E0	2.339135170E0
2.481465383E0	4.053383350E0	9.040505409E0	2.257732153E0
2.484291411E0	4.580107689E0	8.508993149E0	2.363077164E0
2.485702729E0	5.171475887E0	8.051700592E0	2.590526342E0
2.488437027E0	5.377377033E0	7.659051418E0	2.631227732E0
2.489760498E0	5.521028996E0	7.266402245E0	2.607285738E0
2.492528681E0	5.889736176E0	7.110779285E0	2.748543501E0
2.494487306E0	6.232107162E0	8.588001251E0	3.083731890E0
2.496605027E0	5.930437565E0	9.351752281E0	2.944868088E0
2.497839959E0	5.631162167E0	1.040759468E1	2.578555346E0
2.500661758E0	6.485892296E0	1.057758331E1	2.442085743E0
2.502358459E0	8.520963669E0	9.651026726E0	2.432508945E0
2.504692181E0	8.564059258E0	9.064447403E0	2.437297344E0
2.505920267E0	7.019799232E0	8.118738174E0	2.387019157E0
2.508748950E0	4.944026470E0	7.790732384E0	2.327163935E0
2.510362613E0	3.011905670E0	7.773972988E0	2.456450939E0
2.512811834E0	2.647987127E0	7.735665798E0	2.523488522E0
2.514432998E0	2.284068346E0	7.716512203E0	2.683900118E0
2.516868527E0	2.377442360E0	8.169015884E0	2.916137695E0
2.518754844E0	2.446874142E0	8.386888504E0	2.961627483E0
2.520782344E0	2.281674147E0	8.367734909E0	2.877830505E0
2.522319075E0	2.082955360E0	8.192957878E0	2.760514498E0
2.524989681E0	1.932120800E0	7.955932140E0	2.612074137E0
2.526277575E0	1.869871497E0	7.711723804E0	2.398990154E0
2.529109296E0	1.884236693E0	7.455543995E0	2.193088770E0
2.530362536E0	2.001552582E0	7.266402245E0	2.070984364E0
2.533201719E0	2.209848166E0	7.149086475E0	2.025494576E0
2.534810421E0	2.487575531E0	7.096413612E0	2.027888775E0
2.537266219E0	2.841917515E0	7.129932880E0	2.063801765E0
2.538590613E0	3.222595453E0	7.261613846E0	2.104503393E0
2.541324180E0	3.581725836E0	7.448361397E0	2.142810583E0
2.543213844E0	3.938461781E0	7.673416615E0	2.173935175E0
2.545370796E0	4.323928356E0	7.920019150E0	2.190694571E0
2.546586729E0	4.714183331E0	8.164227486E0	2.178723574E0
2.549428873E0	5.049371243E0	8.410830498E0	2.169146776E0
2.551253113E0	5.310339451E0	8.662221909E0	2.173935175E0
2.553493988E0	5.485116005E0	8.889671326E0	2.190694571E0
2.555119998E0	5.592854977E0	9.078812599E0	2.200271368E0
2.557551527E0	5.655104637E0	9.222464561E0	2.181117773E0
2.559317690E0	5.667075634E0	9.327810287E0	2.140416384E0
2.561467613E0	5.669469833E0	9.339780807E0	2.130839586E0
2.562859382E0	5.676652431E0	9.339780807E0	2.114080191E0
2.565668142E0	5.657498837E0	9.325415611E0	2.111685991E0
2.567058113E0	5.659893036E0	9.291896820E0	2.094926596E0
2.569735027E0	5.669469833E0	9.246406555E0	2.070984364E0
2.571033267E0	5.671864033E0	9.217676163E0	2.056619167E0
2.573792603E0	5.674258232E0	9.203310966E0	2.047042370E0
2.575719229E0	5.686229229E0	9.196128845E0	2.047042370E0
2.577856373E0	5.765237808E0	9.210494041E0	2.047042370E0
2.579089536E0	5.877765179E0	9.217676163E0	2.039859772E0
2.581913796E0	5.990292549E0	9.215282440E0	2.001552582E0
2.583528075E0	6.131550789E0	9.212887764E0	1.982398987E0
2.585945411E0	6.306327343E0	9.198522568E0	1.975216389E0
2.587175382E0	6.500257492E0	9.172186852E0	1.960851192E0
2.590002680E0	6.722918510E0	9.157821655E0	1.958456993E0
2.591713652E0	6.967126846E0	9.174580574E0	1.982398987E0
2.594080796E0	7.211335659E0	9.212887764E0	2.023100376E0
2.595523190E0	7.429207802E0	9.241618156E0	2.051830769E0
2.598137757E0	7.541735172E0	9.253589630E0	2.068590164E0
2.600111690E0	7.405265808E0	9.263166428E0	2.068590164E0
2.602068690E0	7.105990410E0	9.277531624E0	2.056619167E0
2.603420075E0	6.833051682E0	9.263166428E0	2.059013367E0
2.606243411E0	6.490680695E0	9.227252960E0	2.082955360E0
2.607691152E0	5.990292549E0	9.119514465E0	2.082955360E0
2.610342103E0	5.652710438E0	8.983044624E0	2.109291792E0
2.611702267E0	5.485116005E0	8.860940933E0	2.269703150E0
2.614433642E0	4.525041103E0	8.741230011E0	2.504334927E0
2.616131190E0	2.691082716E0	8.664615631E0	2.485181332E0
2.618511642E0	1.819593310E0	8.573636055E0	2.240972757E0
2.619738306E0	1.853112102E0	8.418013573E0	2.049436569E0
2.622567796E0	2.231395960E0	8.238448143E0	2.006340981E0
2.624158921E0	2.439691544E0	7.929595947E0	2.305616140E0
2.626597949E0	2.437297344E0	7.829039574E0	2.439691544E0
2.627842921E0	2.317587137E0	7.661445618E0	2.647987127E0
2.630654180E0	1.757344007E0	7.577648163E0	2.707842112E0
2.632307344E0	1.630451322E0	7.522581577E0	2.377442360E0
2.634716642E0	1.910573006E0	7.493851185E0	2.226607561E0
2.636010459E0	2.612074137E0	7.419631004E0	2.003946781E0
2.638772911E0	3.129221678E0	7.364564419E0	1.898601890E0
2.640461306E0	3.679888010E0	7.340622425E0	1.879448295E0
2.642783306E0	3.938461781E0	7.321468830E0	1.929726601E0
2.644116113E0	4.242525578E0	7.280767441E0	2.042253971E0
2.646892065E0	4.383783340E0	7.266402245E0	2.109291792E0
2.648310344E0	4.580107689E0	7.297526836E0	2.039859772E0
2.650948411E0	4.750096321E0	7.345410824E0	1.958456993E0
2.652192498E0	4.730942726E0	7.417236805E0	1.920149803E0
2.655004988E0	4.685452938E0	7.503427982E0	1.929726601E0
2.656609036E0	4.740519524E0	7.568071365E0	1.956062794E0
2.659067257E0	4.740519524E0	7.627926826E0	1.956062794E0
2.660337075E0	4.529829502E0	7.718906403E0	1.934514999E0
2.663123103E0	4.350264549E0	7.843404770E0	1.908178806E0
2.664766921E0	4.374206543E0	7.948749542E0	1.939303398E0
2.667167334E0	4.436455727E0	8.003816605E0	1.982398987E0
2.668388998E0	4.414907932E0	8.039729118E0	1.994369984E0
2.671223065E0	4.371812344E0	8.082824707E0	2.013523579E0
2.672879844E0	4.465186119E0	8.087613106E0	2.066195965E0
2.675285565E0	4.558559895E0	8.068459511E0	2.102109194E0
2.676512459E0	4.584896088E0	8.073247910E0	2.126051188E0
2.679342565E0	4.776432514E0	8.111555099E0	2.193088770E0
2.681034613E0	5.035006046E0	8.135497093E0	2.245761156E0
2.683276998E0	5.197812080E0	8.128314972E0	2.257732153E0
2.684622690E0	5.257667065E0	8.130708694E0	2.224213362E0
2.687458295E0	5.291185856E0	8.200140953E0	2.195482969E0
2.688767729E0	5.561730385E0	8.293514252E0	2.217030764E0
2.691555026E0	6.035782337E0	8.396465302E0	2.315192938E0
2.692816305E0	6.385335922E0	8.564059258E0	2.384624958E0
2.695646641E0	6.631938934E0	8.748413086E0	2.434903145E0
2.697245690E0	6.830657482E0	8.880094528E0	2.358288765E0
2.699709411E0	6.703764915E0	8.858546257E0	2.238578558E0
2.700927498E0	6.169857979E0	8.683769226E0	1.994369984E0
2.703765564E0	5.980715752E0	8.542511940E0	1.936909199E0
2.705376690E0	6.701370716E0	8.609549522E0	2.238578558E0
2.707795180E0	7.062894821E0	8.595184326E0	2.420537949E0
2.709021305E0	7.532158375E0	8.458714485E0	2.736572504E0
2.711850911E0	7.347805023E0	8.173804283E0	2.705447912E0
2.713534305E0	6.864176273E0	7.958326340E0	2.616862535E0
2.715927603E0	5.978321552E0	7.671022415E0	2.482787132E0
2.717233959E0	4.661510944E0	7.469909191E0	2.061407566E0
2.719984257E0	3.572149038E0	7.496245384E0	1.865083098E0
2.722065998E0	3.102885485E0	7.718906403E0	1.683123827E0
2.723888998E0	2.719813108E0	7.900865555E0	1.424550056E0
2.725293652E0	2.142810583E0	7.987056732E0	1.668758631E0
2.728089911E0	2.166752577E0	8.054094315E0	2.511517525E0
2.729574229E0	3.196259260E0	8.149862289E0	2.987963676E0
2.732240103E0	4.726154327E0	8.192957878E0	3.464409828E0
2.733520921E0	5.166687489E0	8.147468567E0	3.672705412E0
2.736331487E0	4.821922302E0	8.374917984E0	3.699041605E0
2.737968729E0	4.759673119E0	8.693346024E0	4.046200752E0
2.740409103E0	5.341464043E0	9.045293808E0	4.165910721E0
2.741645882E0	7.594407558E0	9.469067574E0	4.417302132E0
2.744465026E0	9.035717010E0	9.677363396E0	4.678270340E0
2.746058267E0	9.275136948E0	9.653421402E0	4.683058739E0
2.748494795E0	8.935160637E0	9.528923035E0	4.529829502E0
2.749729690E0	8.513781548E0	9.404424667E0	4.261679173E0
2.752550987E0	8.164227486E0	9.332598686E0	3.873818398E0
2.754162652E0	7.467514992E0	9.148244858E0	3.236960649E0
2.756614526E0	7.192182064E0	9.054870605E0	2.985569477E0
2.757852152E0	6.560112476E0	8.774748802E0	2.437297344E0
2.760670218E0	5.777208805E0	8.406042099E0	1.975216389E0
2.762384267E0	4.718971729E0	7.879317760E0	1.323993564E0
2.764684459E0	4.458003521E0	7.740454197E0	1.134851575E0
2.766083228E0	3.892971992E0	7.522581577E0	8.690952063E-1
2.768789141E0	3.263296843E0	7.448361397E0	7.661445141E-1
2.770094998E0	2.319981337E0	7.474697590E0	6.009446383E-1
2.772907218E0	1.666364431E0	7.558494568E0	3.303998411E-1
2.774195767E0	9.768342972E-1	7.711723804E0	1.675941236E-2
2.776998449E0	2.777273953E-1	7.876923561E0	-2.920926213E-1
2.778666882E0	-3.806780577E-1	8.046912193E0	-5.554547906E-1
2.781061603E0	-1.015141487E0	8.221688271E0	-7.757213712E-1
2.782402613E0	-1.623268723E0	8.394071579E0	-9.552865028E-1
2.785117833E0	-2.087743998E0	8.564059258E0	-1.063025594E0
2.786751728E0	-2.430114746E0	8.714894295E0	-1.134851575E0
2.789162949E0	-2.834734917E0	8.870517731E0	-1.256955862E0
2.790465305E0	-3.059789658E0	8.942343712E0	-1.240196466E0
2.793219487E0	-2.724601507E0	8.884882927E0	-9.145850539E-1
2.794908152E0	-2.044648170E0	8.762778282E0	-3.974374831E-1
2.797282064E0	-1.391031146E0	8.623914719E0	1.244984865E-1
2.798598959E0	-7.996633649E-1	8.508993149E0	6.296750307E-1
2.801338103E0	-2.011129409E-1	8.415618896E0	1.156399369E0
2.803029498E0	4.309563041E-1	8.317456245E0	1.766920805E0
2.805353728E0	1.108515382E0	8.200140953E0	2.415749550E0
2.806867267E0	1.810016513E0	8.080430984E0	3.021482468E0
2.809451603E0	2.501940727E0	8.006210327E0	3.543418407E0
2.810890805E0	3.153163671E0	7.955932140E0	3.940855980E0
2.813522641E0	3.756502390E0	7.903259754E0	4.230554581E0
2.814775190E0	4.125209332E0	7.872135162E0	4.271255970E0
2.817578949E0	4.412513733E0	7.862558365E0	4.218583584E0
2.819248267E0	4.896142483E0	7.927201748E0	4.139574528E0
2.821641833E0	5.102043629E0	7.987056732E0	4.096478939E0
2.822888959E0	5.655104637E0	8.183381081E0	3.986345768E0
2.825698179E0	6.193799973E0	8.291120529E0	3.892971992E0
2.827373805E0	6.655880928E0	8.360552788E0	3.785232782E0
2.829727333E0	6.773196697E0	8.463502884E0	3.766079187E0
2.831010113E0	6.969521046E0	8.631096840E0	3.648763418E0
2.833783410E0	7.000645638E0	8.566453934E0	3.459621429E0
2.835409152E0	6.687005520E0	8.504204750E0	3.045424461E0
2.837860872E0	6.540958881E0	8.602366447E0	2.691082716E0
2.839240498E0	6.720524311E0	9.002198219E0	2.545036316E0
2.841918641E0	6.868964672E0	9.421183586E0	2.580949545E0
2.843641844E0	6.639121532E0	9.560047150E0	2.420537949E0
2.845809344E0	6.203376770E0	9.447520256E0	2.130839586E0
2.847286344E0	5.731719017E0	9.258378029E0	1.862688899E0
2.850024987E0	5.317522049E0	9.124302864E0	1.640028119E0
2.851344652E0	5.015852451E0	9.045293808E0	1.446097851E0
2.854116987E0	4.769249916E0	8.992621422E0	1.221042871E0
2.855373728E0	4.513070107E0	8.939949036E0	9.864110947E-1
2.858208948E0	4.254496574E0	8.899248123E0	7.589619160E-1
2.860034113E0	4.084507942E0	8.906430244E0	5.937620401E-1
2.862286872E0	4.005499363E0	8.889671326E0	5.291185975E-1
2.863529228E0	3.914519787E0	8.786720276E0	4.453215301E-1
2.866343910E0	3.823540211E0	8.671798706E0	3.591302633E-1
2.867950613E0	3.782838583E0	8.599972725E0	3.423708379E-1
2.870375525E0	3.746925592E0	8.580819130E0	4.118026793E-1
2.871704344E0	3.768473387E0	8.626308441E0	5.650315881E-1
2.874432948E0	3.837905407E0	8.707711220E0	7.445967197E-1
2.876113575E0	3.969586372E0	8.755595207E0	8.978256583E-1
2.878496410E0	4.185064793E0	8.738836288E0	1.017535686E0
2.880188805E0	4.419696331E0	8.690952301E0	1.120486379E0
2.882553756E0	4.654327869E0	8.647856712E0	1.204283476E0
2.884254190E0	5.097255230E0	8.564059258E0	1.362300754E0
2.886587113E0	5.250484467E0	8.528146744E0	1.412579060E0
2.887960575E0	5.564124584E0	8.446743965E0	1.553836942E0
2.890674948E0	5.951985359E0	8.346187592E0	1.733402014E0
2.892168305E0	6.478709698E0	8.169015884E0	1.893813491E0
2.894720987E0	6.658275127E0	8.099584579E0	1.929726601E0
2.895952344E0	7.115567684E0	7.927201748E0	2.001552582E0
2.898778025E0	7.436390400E0	7.754819393E0	2.037465572E0
2.900518613E0	7.457938194E0	7.577648163E0	2.073378563E0
2.902840871E0	7.350199223E0	7.498639584E0	2.154781580E0
2.904115613E0	7.319074631E0	7.453149796E0	2.262520552E0
2.906897064E0	7.357381821E0	7.438784599E0	2.375048161E0
2.908651575E0	7.359776020E0	7.443572998E0	2.499546528E0
2.910943025E0	7.347805023E0	7.465120792E0	2.657563925E0
2.912188228E0	7.455543995E0	7.472303391E0	2.856282711E0
2.914999025E0	7.649474621E0	7.496245384E0	2.906560898E0
2.916686805E0	7.814674377E0	7.656657219E0	2.964021683E0
2.919062448E0	7.776367188E0	7.879317760E0	2.681505919E0
2.920428575E0	7.491456985E0	8.130708694E0	2.406172752E0
2.923118717E0	7.247248650E0	8.310274124E0	2.367865562E0
2.924774190E0	7.228095055E0	8.408436775E0	2.518700123E0
2.927059305E0	7.522581577E0	8.458714485E0	2.619256735E0
2.928564075E0	7.869740963E0	8.542511940E0	2.504334927E0
2.931237064E0	7.934384346E0	8.628703117E0	2.257732153E0
2.932536228E0	8.090007782E0	8.834604263E0	2.348711967E0
2.935333717E0	8.554482460E0	8.916007042E0	2.504334927E0
2.936637113E0	8.322244644E0	8.631096840E0	2.300827742E0
2.939425371E0	7.510610580E0	8.307879448E0	1.960851192E0
2.941040805E0	6.785167694E0	8.293514252E0	1.783680320E0
2.943488410E0	6.251260757E0	8.410830498E0	1.754949808E0
2.944807613E0	5.738901615E0	8.441955566E0	1.774103403E0
2.947545679E0	5.145139217E0	8.492233276E0	1.795651317E0
2.949149998E0	4.505887508E0	8.710105896E0	1.810016513E0
2.951577679E0	4.426878929E0	8.820239067E0	1.829170108E0
2.952802075E0	4.453215122E0	9.059659004E0	1.867477298E0
2.955635102E0	4.644751072E0	9.205705643E0	1.886630893E0
2.957243228E0	5.161899090E0	9.287108421E0	1.929726601E0
2.959713333E0	5.363011837E0	9.313444138E0	1.951274395E0
2.960961882E0	5.710171223E0	9.346963882E0	1.989581585E0
2.963770717E0	5.985504150E0	9.320627213E0	2.049436569E0
2.965504228E0	6.358999729E0	9.220070839E0	2.178723574E0
2.967819833E0	6.643909931E0	9.076418877E0	2.284068346E0
2.969086113E0	6.979097843E0	8.908824921E0	2.439691544E0
2.971876833E0	7.254431248E0	8.767566681E0	2.583343744E0
2.973406151E0	7.491456985E0	8.628703117E0	2.698265314E0
2.975952294E0	7.666234016E0	8.477868080E0	2.772485495E0
2.977175882E0	7.764396191E0	8.331821442E0	2.825158119E0
2.980009140E0	7.867346764E0	8.195352554E0	2.880224705E0
2.981948882E0	7.987056732E0	8.085219383E0	2.918531895E0
2.984087333E0	8.133103371E0	7.989450932E0	2.956839085E0
2.985352036E0	8.250418663E0	7.912836552E0	2.975992680E0
2.988144371E0	8.286332130E0	7.838616371E0	2.940079689E0
2.989772267E0	8.250418663E0	7.754819393E0	2.856282711E0
2.992175294E0	8.104372978E0	7.711723804E0	2.748543501E0
2.993405805E0	7.922413349E0	7.678205013E0	2.638410330E0
2.996232563E0	7.764396191E0	7.661445618E0	2.523488522E0
2.997824536E0	7.453149796E0	7.718906403E0	2.360682964E0
3.000296833E0	6.952761650E0	7.802703381E0	2.166752577E0
3.001526574E0	6.347028732E0	7.908048153E0	1.968033791E0
3.004354409E0	5.631162167E0	8.025363922E0	1.721431017E0
3.006083498E0	5.001487255E0	7.953537941E0	1.391031146E0
3.008278267E0	4.616020679E0	7.704541206E0	1.053448796E0
3.009663651E0	4.443638325E0	7.278373241E0	7.924807668E-1
3.012475679E0	4.043806553E0	7.141903877E0	5.961562395E-1
3.013895074E0	3.256114244E0	7.326257229E0	4.716577232E-1
3.016595448E0	2.257732153E0	7.611167431E0	4.429273009E-1
3.017872228E0	1.065419793E0	7.893682957E0	4.932055473E-1
3.020688563E0	7.661445439E-2	8.118738174E0	6.703764796E-1
3.022293151E0	-7.900865376E-2	8.434772491E0	9.121908545E-1
3.024754256E0	-2.489969730E-1	8.585607529E0	8.236053586E-1
3.026000574E0	-6.847416759E-1	9.136273384E0	6.344634295E-1
3.028811679E0	-1.800439715E0	1.009395409E1	4.213795066E-1
3.030484459E0	-2.585737944E0	1.050575733E1	2.489969730E-1
3.032858217E0	-3.210624456E0	1.057518864E1	-1.197100803E-2
3.034089459E0	-4.041412354E0	1.037886429E1	-4.572925270E-1
3.036915409E0	-3.785232782E0	1.058716011E1	-4.213795066E-1
3.038676959E0	-2.954444885E0	1.098220348E1	-1.268926859E-1
3.040979717E0	-2.377442360E0	1.117134476E1	9.097966552E-2
3.042255613E0	-2.078166962E0	1.082658005E1	8.379705995E-2
3.045037140E0	-2.130839586E0	1.010353088E1	-2.561795712E-1
3.046777959E0	-1.407790542E0	9.959878922E0	2.394201700E-3
3.049081805E0	-2.106897533E-1	1.010831928E1	5.099649429E-1
3.050390151E0	6.416460276E-1	1.011071396E1	9.002198577E-1
3.053153217E0	1.132457376E0	9.847352028E0	1.225831270E0
3.054721305E0	1.472434044E0	9.363722801E0	1.474828243E0
3.057202178E0	1.659181833E0	8.485051155E0	1.309628367E0
3.058433574E0	1.752555609E0	7.994239330E0	1.156399369E0
3.061259371E0	2.183511972E0	8.319850922E0	1.424550056E0
3.063214574E0	2.772485495E0	8.707711220E0	1.752555609E0
3.065323755E0	3.177105665E0	8.614337921E0	2.030282974E0
3.066565921E0	3.050212860E0	8.245630264E0	2.118868589E0
3.069380640E0	2.729389906E0	7.747636795E0	2.061407566E0
3.070972498E0	2.360682964E0	7.481880188E0	2.104503393E0
3.073412140E0	2.015917778E0	7.572859764E0	2.236184359E0
3.074661305E0	2.248155355E0	7.975085735E0	2.480392933E0
3.077470063E0	2.504334927E0	8.315062523E0	2.798821688E0
3.079192267E0	2.015917778E0	8.477868080E0	3.303998232E0
3.081550217E0	1.656787634E0	8.475474358E0	3.416525841E0
3.082788728E0	8.690952063E-1	8.485051155E0	3.634398222E0
3.085607255E0	3.136404157E-1	8.489839554E0	3.790021181E0
3.087486344E0	-1.149216816E-1	8.372523308E0	4.029441357E0
3.089617344E0	-2.681505978E-1	8.327033043E0	4.055777550E0
3.090940997E0	-5.027823448E-1	8.219294548E0	4.065354347E0
3.093711832E0	-7.972691655E-1	8.104372978E0	4.115632534E0
3.095011151E0	-1.142034173E0	8.070854187E0	4.053383350E0
3.097803140E0	-9.720458984E-1	8.116343498E0	3.993528366E0
3.099073805E0	-6.153098345E-1	8.176198959E0	3.986345768E0
3.101893563E0	-3.375824392E-1	8.221688271E0	3.993528366E0
3.103539267E0	-1.891419291E-1	8.207323074E0	4.091690540E0
3.105970601E0	2.585737705E-1	8.209717751E0	4.158728123E0
3.107212536E0	1.793257117E0	8.003816605E0	4.084507942E0
3.110026409E0	3.177105665E0	7.697358608E0	3.955221176E0
3.111742613E0	3.761290789E0	7.577648163E0	3.962403774E0
3.114057409E0	4.187458992E0	7.536946774E0	4.089296341E0
3.115300497E0	4.307168961E0	7.642292023E0	4.321534157E0
3.118114101E0	4.321534157E0	7.848193169E0	4.568136692E0
3.119766228E0	4.443638325E0	8.073247910E0	4.745307922E0
3.122177294E0	4.441244125E0	8.283937454E0	4.833893299E0
3.123474690E0	4.101267338E0	8.497021675E0	4.874594688E0
3.126234332E0	3.948038578E0	8.669404030E0	4.855441093E0
3.127944959E0	3.969586372E0	8.858546257E0	4.733336926E0
3.130229382E0	3.658340216E0	9.069235802E0	4.580107689E0
3.131503882E0	3.303998232E0	9.205705643E0	4.484339714E0
3.134358063E0	2.810792685E0	9.198522568E0	4.424484730E0
3.136093882E0	2.755726099E0	9.117119789E0	4.357447147E0
3.138416063E0	3.679888010E0	9.114726067E0	4.218583584E0
3.139665536E0	4.630385876E0	9.167398453E0	4.072536945E0
3.142473794E0	5.058948040E0	9.191340446E0	3.969586372E0
3.144036882E0	5.374982834E0	9.208099365E0	3.849876404E0
3.146539255E0	5.442020416E0	9.179368973E0	3.801992416E0
3.147728421E0	5.489904404E0	9.069235802E0	3.708618402E0
3.150596140E0	5.564124584E0	8.985439301E0	3.603273630E0
3.152173113E0	5.693411827E0	8.951920509E0	3.414131641E0
3.154642447E0	5.669469833E0	8.937555313E0	3.339911461E0
3.155908382E0	5.614402771E0	8.887276649E0	3.174711466E0
3.158699524E0	5.657498837E0	8.825027466E0	2.978386879E0
3.160320997E0	5.738901615E0	8.724471092E0	2.679111719E0
3.162763178E0	5.662287235E0	8.667010307E0	2.578555346E0
3.164009844E0	5.377377033E0	8.540117264E0	2.375048161E0
3.166820793E0	5.137956619E0	8.415618896E0	2.090138197E0
3.168594305E0	4.934449673E0	8.305485725E0	1.881842494E0
3.170742459E0	4.608838081E0	8.169015884E0	1.675941229E0
3.172140344E0	4.209006786E0	8.075642586E0	1.477222443E0
3.174938409E0	3.643975019E0	8.049305916E0	1.302445769E0
3.176189997E0	3.088520288E0	8.070854187E0	1.156399369E0
3.179036755E0	2.729389906E0	8.116343498E0	1.055842996E0
3.180347536E0	2.470816135E0	8.171410561E0	1.048660398E0
3.183129140E0	2.319981337E0	8.257601738E0	1.108515382E0
3.184871920E0	2.288856745E0	8.372523308E0	1.233013868E0
3.187191678E0	2.391807556E0	8.499416351E0	1.381454349E0
3.188404228E0	2.614468336E0	8.647856712E0	1.493981838E0
3.191249716E0	2.846705914E0	8.825027466E0	1.589749932E0
3.192842382E0	3.076549292E0	9.011775017E0	1.654393315E0
3.195281139E0	3.232172251E0	9.172186852E0	1.740584612E0
3.196474882E0	3.339911461E0	9.284713745E0	1.838746905E0
3.199339024E0	3.404554844E0	9.337387085E0	1.920149803E0
3.200960382E0	3.428496838E0	9.325415611E0	1.999158382E0
3.203419063E0	3.414131641E0	9.296685219E0	2.063801765E0
3.204791882E0	3.416525841E0	9.284713745E0	2.142810583E0
3.207476101E0	3.466804028E0	9.272743225E0	2.236184359E0
3.209196613E0	3.560178041E0	9.263166428E0	2.327163935E0
3.211364382E0	3.605667830E0	9.272743225E0	2.339135170E0
3.212750536E0	3.727771997E0	9.303867340E0	2.355894566E0
3.215581409E0	3.873818398E0	9.356540680E0	2.358288765E0
3.217028997E0	3.845088005E0	9.421183586E0	2.279279947E0
3.219645524E0	2.887407303E0	9.595960617E0	1.853112102E0
3.220870767E0	2.849100113E0	9.895236015E0	1.644816518E0
3.223701909E0	4.019864559E0	1.009156036E1	1.865083098E0
3.225302997E0	5.887341976E0	1.004846478E1	2.454056740E0
3.227780409E0	6.256049156E0	9.983820915E0	2.578555346E0
3.229033267E0	6.742072105E0	9.768342972E0	2.726995707E0
3.231836293E0	6.576871872E0	9.560047150E0	2.683900118E0
3.233428344E0	5.975927353E0	9.461885452E0	2.513911724E0
3.235866101E0	5.556941986E0	9.296685219E0	2.331952572E0
3.237068113E0	5.707777023E0	9.071630478E0	2.214636564E0
3.239921755E0	6.414066315E0	8.839392662E0	2.229001760E0
3.241522074E0	7.354987621E0	8.616731644E0	2.293645144E0
3.243984909E0	8.248024940E0	8.422801971E0	2.303221941E0
3.245495882E0	8.987833023E0	8.238448143E0	2.229001760E0
3.248040909E0	9.660603523E0	8.147468567E0	2.092532396E0
3.249811613E0	1.021845245E1	8.135497093E0	1.884236693E0
3.251947728E0	1.035252857E1	8.085219383E0	1.630451322E0
3.253372074E0	9.880870819E0	8.008605003E0	1.335964561E0
3.256160255E0	8.832210541E0	7.960720539E0	1.012747288E0
3.257613228E0	7.510610580E0	7.939172745E0	6.703764796E-1
3.260279639E0	6.196194172E0	7.996633530E0	3.232172430E-1
3.261534997E0	4.891354084E0	8.106766701E0	-1.675941236E-2
3.264371101E0	3.725377798E0	8.245630264E0	-2.753331959E-1
3.265960882E0	2.803610086E0	8.468291283E0	-4.189853072E-1
3.268433293E0	2.245761156E0	8.389283180E0	-5.027823448E-1
3.269635651E0	2.178723574E0	7.838616371E0	-4.788403511E-1
3.272489947E0	1.632845521E0	7.833827972E0	-3.974374831E-1
3.274094497E0	-9.265560508E-1	8.382100105E0	-2.513911724E-1
3.276536062E0	-1.936909199E0	8.621520042E0	-1.843535304E-1
3.277762344E0	-3.718195200E0	9.076418877E0	3.351882473E-2
3.280593562E0	-4.984727859E0	9.461885452E0	3.495534360E-1
3.282245805E0	-6.272808552E0	9.945513725E0	8.930372596E-1
3.284657178E0	-6.617573261E0	1.007240677E1	1.086967587E0
3.286015267E0	-7.041347027E0	1.031182671E1	1.484405041E0
3.288714370E0	-6.986280441E0	1.053448772E1	1.917755604E0
3.290425767E0	-6.361393929E0	1.069489861E1	2.588132143E0
3.292648728E0	-6.038176537E0	1.067574501E1	2.779668093E0
3.294009651E0	-5.257667065E0	1.052012253E1	3.107673883E0
3.296830716E0	-4.024652958E0	1.012029076E1	3.557783842E0
3.298410459E0	-3.323152065E0	9.813833237E0	3.821146011E0
3.300888908E0	-2.719813108E0	9.550470352E0	4.077325344E0
3.302146805E0	-2.173935175E0	9.366117477E0	4.297592163E0
3.304946178E0	-1.613691926E0	9.244012833E0	4.455609322E0
3.306598536E0	-1.017535686E0	9.141061783E0	4.548983097E0
3.309008601E0	-4.213795066E-1	9.114726067E0	4.484339714E0
3.310271228E0	2.082955539E-1	9.131484985E0	4.345476151E0
3.313065716E0	8.930372596E-1	9.112331390E0	4.319139957E0
3.314682190E0	1.647210717E0	9.059659004E0	4.335899353E0
3.317130408E0	2.387019157E0	8.975862503E0	4.323928356E0
3.318373074E0	3.007117271E0	8.911218643E0	4.326322556E0
3.321187370E0	3.476380825E0	8.860940933E0	4.340687752E0
3.322894305E0	3.833117008E0	8.803479195E0	4.381389141E0
3.325264562E0	4.110844135E0	8.724471092E0	4.376600742E0
3.326496920E0	4.292803764E0	8.621520042E0	4.333505154E0
3.329320908E0	4.362235546E0	8.506598473E0	4.304774761E0
3.331139651E0	4.345476151E0	8.391676903E0	4.273650169E0
3.333266151E0	4.271255970E0	8.279149055E0	4.211400986E0
3.334673613E0	4.137180328E0	8.195352554E0	4.132391930E0
3.337426985E0	3.907337189E0	8.173804283E0	4.036623955E0
3.338834920E0	3.593696833E0	8.243236542E0	3.900154591E0
3.341551524E0	3.332728863E0	8.286332130E0	3.816357613E0
3.342839536E0	3.193865061E0	8.310274124E0	3.732560396E0
3.345643062E0	3.064578056E0	8.343792915E0	3.591302633E0
3.347286190E0	2.779668093E0	8.425195694E0	3.375824451E0
3.349720408E0	2.686294317E0	8.458714485E0	3.303998232E0
3.350941190E0	2.545036316E0	8.504204750E0	3.186682463E0
3.353776870E0	2.418143749E0	8.604761124E0	3.009511471E0
3.355414074E0	2.245761156E0	8.707711220E0	2.849100113E0
3.357807523E0	1.778891921E0	8.688557625E0	2.571372509E0
3.359058074E0	1.089361787E0	8.461109161E0	2.195482969E0
3.361864447E0	8.954314590E-1	8.233659744E0	2.126051188E0
3.363514267E0	1.850717902E0	8.056488991E0	2.408566952E0
3.365927677E0	2.975992680E0	8.111555099E0	3.098097086E0
3.367170113E0	3.538630009E0	8.422801971E0	3.409343243E0
3.369984562E0	3.313575268E0	8.576030731E0	3.136404276E0
3.371830382E0	2.882618904E0	8.712499619E0	2.568978310E0
3.373897767E0	2.430114746E0	8.887276649E0	2.166752577E0
3.375286113E0	3.366247654E0	9.009381294E0	2.422932148E0
3.378105908E0	4.352658749E0	9.275136948E0	2.789244890E0
3.379744113E0	4.280832767E0	9.586383820E0	2.808398485E0
3.382156908E0	3.251325846E0	9.799467087E0	2.082955360E0
3.383369805E0	3.351882458E0	9.900024414E0	1.539471745E0
3.386213793E0	4.400542736E0	9.904812813E0	1.596932530E0
3.387888920E0	4.814739704E0	9.806650162E0	1.762132406E0
3.390277216E0	6.095637321E0	9.267954826E0	2.418143749E0
3.391516805E0	7.953537941E0	8.750806808E0	3.634398222E0
3.394334100E0	7.939172745E0	8.851364136E0	4.072536945E0
3.395931382E0	7.079654217E0	9.176975250E0	3.816357613E0
3.398379908E0	6.052541733E0	9.416395187E0	3.119644880E0
3.399613228E0	5.075707436E0	9.493009567E0	2.427720547E0
3.402436869E0	4.194641590E0	9.490615845E0	2.075772762E0
3.404304536E0	3.409343243E0	9.466673851E0	2.315192938E0
3.406499639E0	3.268085241E0	9.454702377E0	2.477998734E0
3.407728805E0	3.112462282E0	9.447520256E0	2.698265314E0
3.410556677E0	3.174711466E0	9.483432770E0	2.765302896E0
3.412271728E0	3.368641853E0	9.514557838E0	2.573766708E0
3.414614869E0	3.476380825E0	9.485827446E0	2.444479942E0
3.415907997E0	3.940855980E0	9.457097054E0	2.152387381E0
3.418671292E0	4.153939724E0	9.404424667E0	1.829170108E0
3.419970574E0	4.153939724E0	9.387664795E0	1.577778935E0
3.422767408E0	4.690241337E0	9.346963882E0	1.259350061E0
3.424115190E0	5.341464043E0	9.143456459E0	9.265560508E-1
3.426859292E0	6.088454723E0	8.930372238E0	4.692635238E-1
3.428450036E0	6.636727333E0	8.753201485E0	7.182604820E-2
3.430922139E0	6.914454460E0	8.583212852E0	-1.149216816E-1
3.432216766E0	7.038952827E0	8.367734909E0	-1.891419291E-1
3.434979177E0	6.914454460E0	8.135497093E0	-1.915361285E-1
3.436850074E0	6.605602264E0	7.893682957E0	-1.987187415E-1
3.439010869E0	6.124367714E0	7.615955830E0	-1.771709323E-1
3.440240690E0	5.281609058E0	7.316680431E0	-7.900865376E-2
3.443068600E0	4.113238335E0	7.031770229E0	1.029506698E-1
3.444700613E0	2.861071110E0	6.813898087E0	3.040636182E-1
3.447146139E0	1.625662923E0	6.718130112E0	4.596867263E-1
3.448375190E0	3.974374831E-1	6.737283707E0	5.554547906E-1
3.451203215E0	-7.422025204E-1	6.842628479E0	6.224924326E-1
3.452968574E0	-1.757344007E0	7.010222435E0	6.919242740E-1
3.455114843E0	-2.466027737E0	7.278373241E0	8.188169599E-1
3.456482420E0	-2.636016130E0	7.647080421E0	9.768342972E-1
3.459308831E0	-2.269703150E0	7.984662533E0	1.115697980E0
3.460788920E0	-1.582567334E0	8.185775757E0	1.264138460E0
3.463377562E0	-8.236053586E-1	8.248024940E0	1.436521053E0
3.464634305E0	-1.268926859E-1	8.353369713E0	1.661576033E0
3.467434908E0	5.650315881E-1	8.743624687E0	1.924938202E0
3.469264190E0	1.776497602E0	9.368511200E0	2.260126352E0
3.471513831E0	2.094926596E0	9.521739960E0	2.334346771E0
3.472751920E0	2.552218914E0	9.715670586E0	2.442085743E0
3.475571677E0	2.896984100E0	9.792284966E0	2.513911724E0
3.477242920E0	3.284844637E0	9.806650162E0	2.571372509E0
3.479601946E0	3.347094059E0	9.782708168E0	2.619256735E0
3.480901997E0	3.356670856E0	9.696516991E0	2.839523315E0
3.483659408E0	3.189076662E0	9.569623947E0	3.052607059E0
3.485348766E0	2.671929121E0	9.418789864E0	2.966415882E0
3.487723254E0	2.461239338E0	9.387664795E0	2.851494312E0
3.489137651E0	2.023100376E0	9.361329079E0	2.571372509E0
3.491780869E0	1.434126854E0	9.284713745E0	2.269703150E0
3.493608382E0	1.237802267E0	9.179368973E0	2.209848166E0
3.495816882E0	1.321599364E0	9.138668060E0	2.293645144E0
3.497130151E0	1.709460020E0	9.119514465E0	2.597708941E0
3.499902908E0	2.154781580E0	9.169792175E0	2.930502892E0
3.501261228E0	2.432508945E0	9.308655739E0	3.011905670E0
3.503996023E0	2.645592928E0	9.416395187E0	2.892195702E0
3.505291459E0	2.952050686E0	9.435548782E0	2.767697096E0
3.508088023E0	3.251325846E0	9.473855972E0	2.667140722E0
3.509680189E0	3.452438831E0	9.521739960E0	2.585737944E0
3.512151138E0	3.624821424E0	9.552865028E0	2.533065319E0
3.513358382E0	3.823540211E0	9.595960617E0	2.521094322E0
3.516207061E0	4.098873138E0	9.622296333E0	2.576161146E0
3.517806689E0	4.376600742E0	9.600749016E0	2.717418909E0
3.520251600E0	4.601655483E0	9.538499832E0	2.925714493E0
3.521529997E0	4.786009312E0	9.428366661E0	3.167528868E0
3.524308023E0	4.958391666E0	9.277531624E0	3.363853455E0
3.525926497E0	5.128379822E0	9.232041359E0	3.521870613E0
3.528370907E0	5.284003258E0	9.270348549E0	3.651157618E0
3.529651920E0	5.382165432E0	9.282320023E0	3.720589399E0
3.532427254E0	5.389348030E0	9.270348549E0	3.722983599E0
3.534217113E0	5.181052685E0	9.270348549E0	3.567360640E0
3.536332459E0	5.068524837E0	9.270348549E0	3.495534420E0
3.537705651E0	4.929661274E0	9.253589630E0	3.349488258E0
3.540544523E0	4.888959885E0	9.208099365E0	3.217807055E0
3.542076074E0	4.766855717E0	9.160215378E0	3.074155092E0
3.544604215E0	4.575319290E0	9.114726067E0	2.906560898E0
3.545924574E0	4.405331135E0	9.052476883E0	2.726995707E0
3.548660561E0	4.328716755E0	8.973467827E0	2.590526342E0
3.550396651E0	4.292803764E0	8.863334656E0	2.446874142E0
3.552723023E0	4.271255970E0	8.832210541E0	2.415749550E0
3.553939113E0	4.199429989E0	8.784325600E0	2.365471363E0
3.556779100E0	4.074931145E0	8.743624687E0	2.310404539E0
3.558378343E0	4.034229755E0	8.734047890E0	2.305616140E0
3.560809369E0	4.022258759E0	8.736441612E0	2.317587137E0
3.562021689E0	4.000710964E0	8.765172005E0	2.348711967E0
3.564865753E0	3.960009575E0	8.801085472E0	2.387019157E0
3.566470882E0	3.969586372E0	8.810662270E0	2.425326347E0
3.568944907E0	4.089296341E0	8.851364136E0	2.451662540E0
3.570377151E0	4.225766182E0	9.052476883E0	2.477998734E0
3.573001177E0	4.288015366E0	9.387664795E0	2.530671120E0
3.574722382E0	4.273650169E0	9.753977776E0	2.571372509E0
3.576933497E0	4.204218388E0	1.007719517E1	2.600103140E0
3.578414959E0	4.022258759E0	1.019929886E1	2.626439333E0
3.581105523E0	3.536235809E0	9.890447617E0	2.676717520E0
3.582535420E0	2.980781078E0	9.567230225E0	2.719813108E0
3.585197176E0	2.712630510E0	9.414001465E0	2.736572504E0
3.586496997E0	2.832340717E0	9.351752281E0	2.755726099E0
3.589288215E0	3.169923067E0	9.315838814E0	2.765302896E0
3.590999613E0	3.445256233E0	9.270348549E0	2.758120298E0
3.593364561E0	3.636792421E0	9.224859238E0	2.753331900E0
3.594601266E0	3.866635799E0	9.193734169E0	2.774879694E0
3.597420407E0	4.029441357E0	9.184157372E0	2.786850691E0
3.599012805E0	4.094084740E0	9.172186852E0	2.760514498E0
3.601450446E0	4.082113743E0	9.165003777E0	2.729389906E0
3.602749382E0	3.986345768E0	9.174580574E0	2.657563925E0
3.605506369E0	3.825934410E0	9.174580574E0	2.619256735E0
3.607195882E0	3.433285236E0	9.222464561E0	2.592920542E0
3.609570253E0	3.292027235E0	9.248801231E0	2.583343744E0
3.610846651E0	3.043030262E0	9.289502144E0	2.557007313E0
3.613627292E0	2.858676910E0	9.296685219E0	2.525882721E0
3.615445074E0	2.501940727E0	9.315838814E0	2.422932148E0
3.617633382E0	2.439691544E0	9.323021889E0	2.377442360E0
3.619055728E0	2.559401512E0	9.277531624E0	2.346317768E0
3.621748330E0	2.609679937E0	9.208099365E0	2.257732153E0
3.623226997E0	3.483563423E0	9.564835548E0	2.092532396E0
3.625796446E0	4.649539471E0	9.952696800E0	1.812410712E0
3.627054882E0	4.632780075E0	9.914389610E0	1.628057122E0
3.629853138E0	4.029441357E0	9.696516991E0	1.414973259E0
3.631510651E0	3.222595453E0	9.540893555E0	1.084573388E0
3.633916484E0	2.535459518E0	9.483432770E0	7.493851185E-1
3.635381843E0	2.092532396E0	9.414001465E0	5.243301988E-1
3.637973522E0	1.860294700E0	9.291896820E0	4.094084799E-1
3.639661766E0	1.781286120E0	9.121908188E0	3.471592367E-1
3.642018176E0	1.812410712E0	8.947132111E0	2.729389966E-1
3.643243266E0	1.807622313E0	8.777143478E0	1.915361285E-1
3.646074484E0	1.733402014E0	8.602366447E0	1.484405100E-1
3.647807728E0	1.577778935E0	8.432378769E0	1.604115069E-1
3.650138638E0	1.340752959E0	8.257601738E0	1.771709323E-1
3.651378997E0	1.137245774E0	8.135497093E0	1.604115069E-1
3.654195407E0	7.900865674E-1	8.032546997E0	1.436520964E-1
3.655956920E0	5.123591423E-1	7.991845131E0	1.939303428E-1
3.658102920E0	5.099649429E-1	8.037335396E0	2.753331959E-1
3.659519266E0	7.110779285E-1	8.123526573E0	3.519476354E-1
3.662311984E0	1.010353088E0	8.219294548E0	4.620809257E-1
3.663661689E0	1.328781962E0	8.322244644E0	5.817909837E-1
3.666408445E0	1.616086125E0	8.422801971E0	6.967126727E-1
3.667778228E0	1.860294700E0	8.554482460E0	8.259995580E-1
3.670499599E0	2.044648170E0	8.688557625E0	9.768342972E-1
3.672304266E0	2.128445387E0	8.908824921E0	1.271321058E0
3.674561753E0	2.111685991E0	8.966285706E0	1.379060149E0
3.675800266E0	2.027888775E0	8.951920509E0	1.572990537E0
3.678618945E0	1.874659896E0	8.731653214E0	1.719036818E0
3.680293151E0	1.685518026E0	8.121131897E0	1.838746905E0
3.682650445E0	1.671152830E0	7.898471355E0	1.860294700E0
3.683876305E0	1.709460020E0	7.553706169E0	1.912967205E0
3.686706330E0	1.946485996E0	7.527369976E0	1.924938202E0
3.688359228E0	2.509123325E0	8.288725853E0	2.193088770E0
3.690782330E0	2.846705914E0	8.765172005E0	2.506729126E0
3.692014805E0	3.007117271E0	9.071630478E0	2.758120298E0
3.694838368E0	3.016694069E0	9.299078941E0	2.920926094E0
3.696594228E0	2.940079689E0	9.497797966E0	3.028665066E0
3.698751959E0	2.901772499E0	9.562441826E0	3.167528868E0
3.700156266E0	2.987963676E0	9.500192642E0	3.347094059E0
3.702944138E0	3.129221678E0	9.380482674E0	3.533841610E0
3.704796536E0	3.227383852E0	9.244012833E0	3.684676409E0
3.707024791E0	3.270479441E0	9.095572472E0	3.801992416E0
3.708380343E0	3.258508444E0	8.961497307E0	3.892971992E0
3.711081330E0	3.201047659E0	8.851364136E0	3.962403774E0
3.712695689E0	3.165134668E0	8.762778282E0	3.967192173E0
3.715160676E0	3.167528868E0	8.705317497E0	3.883395195E0
3.716496843E0	3.215412855E0	8.681375504E0	3.758896589E0
3.719217830E0	3.253720045E0	8.698134422E0	3.586514235E0
3.720913612E0	3.241749048E0	8.741230011E0	3.390189648E0
3.723248868E0	3.153163671E0	8.810662270E0	3.179499865E0
3.724629420E0	3.016694069E0	8.887276649E0	3.002328873E0
3.727305253E0	2.901772499E0	8.927978516E0	2.985569477E0
3.728902574E0	2.774879694E0	8.906430244E0	3.050212860E0
3.731369022E0	2.616862535E0	8.858546257E0	3.110068083E0
3.732615689E0	2.537853718E0	8.829815865E0	3.119644880E0
3.735426330E0	2.590526342E0	8.851364136E0	3.088520288E0
3.737229420E0	3.055001259E0	8.925583839E0	3.222595453E0
3.739421497E0	3.284844637E0	8.937555313E0	3.320757866E0
3.740836420E0	3.682282209E0	8.959102631E0	3.507505417E0
3.743549560E0	3.912125587E0	8.999804497E0	3.605667830E0
3.744888382E0	4.010287762E0	9.059659004E0	3.600879431E0
3.747641868E0	4.005499363E0	9.148244858E0	3.502717018E0
3.748991651E0	3.883395195E0	9.239224434E0	3.397372246E0
3.751734791E0	3.596091032E0	9.342175484E0	3.275267839E0
3.753346382E0	3.481169224E0	9.416395187E0	3.174711466E0
3.755799676E0	3.375824451E0	9.471462250E0	3.074155092E0
3.757035112E0	3.308786631E0	9.509769440E0	2.964021683E0
3.759857176E0	3.313575268E0	9.548076630E0	2.853888512E0
3.761703151E0	3.306392431E0	9.581595421E0	2.779668093E0
3.763903983E0	3.251325846E0	9.600749016E0	2.705447912E0
3.765110382E0	3.177105665E0	9.612719536E0	2.619256735E0
3.767962868E0	3.145981073E0	9.636661530E0	2.480392933E0
3.769572959E0	3.165134668E0	9.672574997E0	2.190694571E0
3.772026560E0	3.184288263E0	9.703699112E0	1.716642618E0
3.773278305E0	3.217807055E0	9.742006302E0	1.130063176E0
3.776084945E0	3.289633036E0	9.770736694E0	5.746083856E-1
3.777817843E0	3.390189648E0	9.770736694E0	1.795651317E-1
3.780136035E0	3.512293816E0	9.751583099E0	-2.394201607E-2
3.781403805E0	3.651157618E0	9.706093788E0	-1.436521020E-2
3.784203406E0	3.830722809E0	9.639056206E0	1.915361285E-1
3.785877189E0	4.034229755E0	9.586383820E0	5.267243981E-1
3.788268830E0	4.187458992E0	9.574412346E0	9.385270476E-1
3.789586651E0	4.335899353E0	9.495404243E0	1.453280449E0
3.792326522E0	4.484339714E0	9.392453194E0	2.003946781E0
3.794003651E0	4.599261284E0	9.320627213E0	2.513911724E0
3.796390060E0	4.632780075E0	9.282320023E0	2.925714493E0
3.797671997E0	4.582501888E0	9.311050415E0	3.179499865E0
3.800447483E0	4.481945515E0	9.318233490E0	3.330334663E0
3.802077535E0	4.343081951E0	9.244012833E0	3.454833031E0
3.804479291E0	4.309563160E0	9.215282440E0	3.466804028E0
3.805715266E0	4.220977783E0	9.184157372E0	3.452438831E0
3.808536714E0	4.129997730E0	9.172186852E0	3.394978046E0
3.810154497E0	4.031835556E0	9.179368973E0	3.268085241E0
3.812615214E0	4.003105164E0	9.184157372E0	3.215412855E0
3.813975728E0	3.955221176E0	9.188945770E0	3.095702887E0
3.816673291E0	3.955221176E0	9.181763649E0	2.956839085E0
3.818845497E0	3.895366192E0	9.203310966E0	2.724601507E0
3.820573189E0	3.782838583E0	9.229647636E0	2.566584110E0
3.821985997E0	3.699041605E0	9.251194954E0	2.406172752E0
3.824782176E0	3.732560396E0	9.267954826E0	2.183511972E0
3.826101382E0	3.845088005E0	9.248801231E0	1.977610588E0
3.828908060E0	3.840299606E0	9.210494041E0	1.874659896E0
3.830169305E0	3.715801001E0	9.162610054E0	1.845929503E0
3.833000483E0	3.608062029E0	9.124302864E0	1.814804912E0
3.834641843E0	3.572149038E0	9.085995674E0	1.786074519E0
3.837079214E0	3.538630009E0	9.045293808E0	1.738190413E0
3.838333266E0	3.521870613E0	9.006986618E0	1.630451322E0
3.841136175E0	3.636792421E0	8.937555313E0	1.467645645E0
3.842745651E0	3.641580820E0	8.836998940E0	1.412579060E0
3.845167637E0	3.507505417E0	8.738836288E0	1.383848548E0
3.846393112E0	3.404554844E0	8.652645111E0	1.362300754E0
3.849223829E0	3.318363667E0	8.573636055E0	1.376665950E0
3.850841112E0	3.224989653E0	8.511386871E0	1.388636947E0
3.853286368E0	3.179499865E0	8.487444878E0	1.376665950E0
3.854775958E0	3.153163671E0	8.463502884E0	1.407790542E0
3.857342522E0	3.114856482E0	8.432378769E0	1.455674648E0
3.859077920E0	3.052607059E0	8.386888504E0	1.561019540E0
3.861269997E0	3.002328873E0	8.377311707E0	1.611297727E0
3.862715958E0	2.935291290E0	8.389283180E0	1.685518026E0
3.865464060E0	3.004723072E0	8.413225174E0	1.716642618E0
3.866921920E0	3.090914488E0	8.439560890E0	1.778891921E0
3.869519945E0	3.134010077E0	8.473079681E0	1.843535304E0
3.870748343E0	3.153163671E0	8.523358345E0	1.900996208E0
3.873577137E0	3.169923067E0	8.583212852E0	1.960851192E0
3.875284882E0	3.210624456E0	8.643068314E0	1.968033791E0
3.877640637E0	3.236960649E0	8.667010307E0	1.963245392E0
3.878878997E0	3.229778051E0	8.710105896E0	1.999158382E0
3.881698021E0	3.083731890E0	8.750806808E0	2.097320795E0
3.883319728E0	2.880224705E0	8.789113998E0	2.221819162E0
3.885743791E0	2.877830505E0	8.789113998E0	2.260126352E0
3.887009805E0	2.928108692E0	8.779537201E0	2.276885748E0
3.889801445E0	2.985569477E0	8.772355080E0	2.291250944E0
3.891407035E0	3.021482468E0	8.781931877E0	2.305616140E0
3.893866214E0	3.023876667E0	8.791508675E0	2.315192938E0
3.895111920E0	3.038241863E0	8.791508675E0	2.319981337E0
3.897923868E0	3.078943491E0	8.779537201E0	2.319981337E0
3.899928497E0	3.131615877E0	8.765172005E0	2.312798738E0
3.901856612E0	3.126827478E0	8.757989883E0	2.317587137E0
3.903368305E0	3.043030262E0	8.714894295E0	2.346317768E0
3.906039675E0	2.896984100E0	8.655038834E0	2.382230759E0
3.907384958E0	2.729389906E0	8.607154846E0	2.413355350E0
3.910146368E0	2.592920542E0	8.576030731E0	2.454056740E0
3.911428343E0	2.485181332E0	8.564059258E0	2.477998734E0
3.914239098E0	2.403778553E0	8.571242332E0	2.475604534E0
3.915893382E0	2.334346771E0	8.571242332E0	2.468421936E0
3.918302560E0	2.233790159E0	8.583212852E0	2.468421936E0
3.919531382E0	2.092532396E0	8.621520042E0	2.480392933E0
3.922360829E0	1.927332401E0	8.662221909E0	2.511517525E0
3.923963420E0	1.781286120E0	8.695740700E0	2.547430515E0
3.926393637E0	1.687912226E0	8.729259491E0	2.583343744E0
3.927630305E0	1.673547029E0	8.793902397E0	2.614468336E0
3.930452367E0	1.774103403E0	8.911218643E0	2.511517525E0
3.932084035E0	1.960851192E0	8.956708908E0	2.398990154E0
3.934532829E0	1.982398987E0	8.944737434E0	2.422932148E0
3.935824612E0	2.008735180E0	8.930372238E0	2.506729126E0
3.938591021E0	2.109291792E0	8.942343712E0	2.568978310E0
3.940297728E0	2.492363930E0	8.918401718E0	2.640804529E0
3.942500343E0	2.717418909E0	8.884882927E0	2.671929121E0
3.943925535E0	3.265691042E0	8.791508675E0	2.719813108E0
3.946699098E0	3.833117008E0	8.712499619E0	2.717418909E0
3.948183612E0	4.517858505E0	8.755595207E0	2.640804529E0
3.950762021E0	4.738125324E0	8.884882927E0	2.580949545E0
3.952091689E0	4.690241337E0	9.023746490E0	2.528276920E0
3.954819637E0	4.390965939E0	9.107542992E0	2.489969730E0
3.956535535E0	3.873818398E0	9.138668060E0	2.466027737E0
3.958896906E0	3.268085241E0	9.196128845E0	2.451662540E0
3.960132728E0	2.844311714E0	9.301473618E0	2.468421936E0
3.962954329E0	2.621650934E0	9.368511200E0	2.535459518E0
3.964553343E0	2.463633537E0	9.349357605E0	2.619256735E0
3.966985560E0	2.334346771E0	9.267954826E0	2.695871115E0
3.968251458E0	2.260126352E0	9.191340446E0	2.758120298E0
3.971043290E0	2.226607561E0	9.143456459E0	2.813186884E0
3.972638074E0	2.183511972E0	9.059659004E0	2.853888512E0
3.975107713E0	2.140416384E0	8.923190117E0	2.892195702E0
3.976338151E0	2.166752577E0	8.784325600E0	2.935291290E0
3.979165637E0	2.269703150E0	8.678980827E0	2.973598480E0
3.980889189E0	2.451662540E0	8.631096840E0	2.987963676E0
3.983107805E0	2.686294317E0	8.619126320E0	2.966415882E0
3.984513651E0	2.885013103E0	8.580819130E0	2.899378300E0
3.987289136E0	2.995146275E0	8.568847656E0	2.786850691E0
3.988601805E0	3.009511471E0	8.580819130E0	2.669534922E0
3.991389098E0	2.829946518E0	8.422801971E0	2.643198729E0
3.992645189E0	2.322375536E0	8.042123795E0	2.695871115E0
3.995481944E0	2.042253971E0	7.891288757E0	2.753331900E0
3.997168612E0	1.958456993E0	8.015787125E0	2.767697096E0
3.999546483E0	1.932120800E0	8.099584579E0	2.748543501E0
4.000828112E0	1.881842494E0	8.243236542E0	2.712630510E0
4.003605098E0	1.872265697E0	8.319850922E0	2.726995707E0
4.005500651E0	1.898601890E0	8.406042099E0	2.750937700E0
4.007651829E0	1.893813491E0	8.449137688E0	2.738966703E0
4.008862189E0	1.826775908E0	8.559270859E0	2.703053713E0
4.011709483E0	1.750161409E0	8.688557625E0	2.707842112E0
4.013294689E0	1.719036818E0	8.748413086E0	2.710236311E0
4.015772983E0	1.673547029E0	8.791508675E0	2.698265314E0
4.017034305E0	1.596932530E0	8.829815865E0	2.710236311E0
4.019831021E0	1.513135433E0	8.853757858E0	2.731784105E0
4.021640458E0	1.431732655E0	8.887276649E0	2.736572504E0
4.023749189E0	1.338358760E0	8.925583839E0	2.746149302E0
4.025169766E0	1.216254473E0	8.949525833E0	2.762908697E0
4.027948406E0	9.433154464E-1	8.935160637E0	2.758120298E0
4.029402305E0	5.578489900E-1	8.870517731E0	2.741360903E0
4.031995444E0	4.333505034E-1	8.853757858E0	2.784456491E0
4.033313997E0	4.932055473E-1	8.875306129E0	2.856282711E0
4.036053944E0	5.817909837E-1	8.920795441E0	2.935291290E0
4.037622920E0	6.584054828E-1	8.954314232E0	3.002328873E0
4.040086021E0	7.469909191E-1	8.968679428E0	3.052607059E0
4.041272189E0	8.762778044E-1	8.995016098E0	3.074155092E0
4.044143752E0	9.959878922E-1	9.033323288E0	3.095702887E0
4.045723728E0	1.115697980E0	9.088389397E0	3.129221678E0
4.048174752E0	1.283292055E0	9.148244858E0	3.160346270E0
4.049373843E0	1.470039845E0	9.181763649E0	3.179499865E0
4.052232713E0	1.632845521E0	9.208099365E0	3.172317266E0
4.053808651E0	1.800439715E0	9.236829758E0	3.155557871E0
4.056312290E0	1.980004787E0	9.251194954E0	3.124433279E0
4.057704574E0	2.130839586E0	9.275136948E0	3.074155092E0
4.060370752E0	2.269703150E0	9.294290543E0	3.009511471E0
4.062022458E0	2.530671120E0	9.301473618E0	2.882618904E0
4.064245612E0	2.640804529E0	9.308655739E0	2.832340717E0
4.065634920E0	2.846705914E0	9.327810287E0	2.738966703E0
4.068479059E0	3.035847664E0	9.342175484E0	2.647987127E0
4.069726497E0	3.210624456E0	9.337387085E0	2.542642117E0
4.072572444E0	3.366247654E0	9.334992409E0	2.437297344E0
4.073814035E0	3.497928619E0	9.330204010E0	2.353500366E0
4.076664790E0	3.622427225E0	9.320627213E0	2.286462545E0
4.078246497E0	3.763684988E0	9.296685219E0	2.190694571E0
4.080744367E0	3.842693806E0	9.277531624E0	2.135627985E0
4.081940035E0	3.873818398E0	9.258378029E0	2.075772762E0
4.084802059E0	3.849876404E0	9.212887764E0	2.035071373E0
4.086363035E0	3.742137194E0	9.102754593E0	2.039859772E0
4.088833521E0	3.567360640E0	9.016563416E0	2.047042370E0
4.090047151E0	3.416525841E0	8.973467827E0	2.032677174E0
4.092890944E0	3.315969467E0	8.959102631E0	2.023100376E0
4.094458958E0	3.299209833E0	8.961497307E0	2.011129379E0
4.096954251E0	3.368641853E0	8.985439301E0	2.006340981E0
4.098129535E0	3.497928619E0	9.021351814E0	2.025494576E0
4.101011905E0	3.632004023E0	9.050082207E0	2.056619167E0
4.102694843E0	3.756502390E0	9.057265282E0	2.092532396E0
4.104912420E0	3.881000996E0	9.052476883E0	2.138022184E0
4.106307343E0	4.067748547E0	9.085995674E0	2.152387381E0
4.109135790E0	4.311957359E0	9.150638580E0	2.147598982E0
4.110552766E0	4.592078686E0	9.210494041E0	2.138022184E0
4.113181521E0	4.876988888E0	9.255983353E0	2.128445387E0
4.114374920E0	5.149928093E0	9.287108421E0	2.111685991E0
4.117239328E0	5.465962410E0	9.308655739E0	2.078166962E0
4.118823612E0	5.872976780E0	9.358934402E0	2.006340981E0
4.121302405E0	6.344634533E0	9.402029991E0	1.905784607E0
4.122497035E0	6.816292286E0	9.414001465E0	1.826775908E0
4.125359828E0	7.268796444E0	9.423578262E0	1.757344007E0
4.126986843E0	7.699752808E0	9.378087997E0	1.659181833E0
4.129439367E0	7.733271599E0	9.323021889E0	1.651999116E0
4.130631651E0	7.551311970E0	9.153033257E0	1.675941229E0
4.133496405E0	7.094019413E0	8.995016098E0	1.711854219E0
4.135091035E0	6.129156113E0	8.841787338E0	1.838746905E0
4.137561136E0	5.604825974E0	8.781931877E0	1.982398987E0
4.138756381E0	4.503493309E0	8.614337921E0	2.370259762E0
4.141618213E0	3.869029999E0	8.439560890E0	2.655169725E0
4.143393997E0	3.739742994E0	8.279149055E0	2.815581083E0
4.145551920E0	3.794809580E0	8.264783859E0	2.849100113E0
4.146888189E0	3.924096584E0	8.295908928E0	2.908955097E0
4.149735444E0	4.125209332E0	8.394071579E0	2.973598480E0
4.150973343E0	4.249708176E0	8.463502884E0	3.043030262E0
4.153833213E0	4.350264549E0	8.556877136E0	3.145981073E0
4.155062612E0	4.419696331E0	8.655038834E0	3.253720045E0
4.157924790E0	4.398148537E0	8.772355080E0	3.342305660E0
4.159508343E0	4.326322556E0	8.904036522E0	3.392583847E0
4.161988405E0	4.256890774E0	9.045293808E0	3.399766445E0
4.163193843E0	4.177882195E0	9.220070839E0	3.375824451E0
4.166045020E0	4.115632534E0	9.411606789E0	3.335123062E0
4.167667804E0	4.070142746E0	9.619902611E0	3.296815634E0
4.170076867E0	4.027047157E0	9.821015358E0	3.270479441E0
4.171278074E0	3.962403774E0	1.000776291E1	3.256114244E0
4.174134059E0	3.794809580E0	1.015380955E1	3.258508444E0
4.175728151E0	3.521870613E0	1.025675964E1	3.277662039E0
4.178212136E0	3.241749048E0	1.034295177E1	3.284844637E0
4.179669843E0	2.997540474E0	1.042435455E1	3.268085241E0
4.182268867E0	2.760514498E0	1.047463226E1	3.241749048E0
4.183968535E0	2.432508945E0	1.051772785E1	3.191470861E0
4.186137727E0	2.353500366E0	1.051533413E1	3.165134668E0
4.187527420E0	2.238578558E0	1.048899746E1	3.098097086E0
4.190374405E0	2.164358377E0	1.042914295E1	3.004723072E0
4.191790920E0	2.126051188E0	1.034055710E1	2.892195702E0
4.194418520E0	2.104503393E0	1.022084713E1	2.762908697E0
4.195702074E0	2.054224968E0	1.007240677E1	2.628833532E0
4.198475559E0	1.965639591E0	9.916783333E0	2.552218914E0
4.200138381E0	1.757344007E0	9.658209801E0	2.456450939E0
4.202555059E0	1.668758631E0	9.567230225E0	2.425326347E0
4.203748112E0	1.458068848E0	9.399636269E0	2.408566952E0
4.206611751E0	1.194706678E0	9.265560150E0	2.403778553E0
4.208211535E0	8.403648138E-1	9.052476883E0	2.382230759E0
4.210643020E0	7.493851185E-1	8.980650902E0	2.394201756E0
4.211834958E0	5.386953950E-1	8.848969460E0	2.422932148E0
4.214700520E0	1.292868853E-1	8.655038834E0	2.501940727E0
4.216278535E0	-1.005564705E-1	8.513781548E0	2.525882721E0
4.218766366E0	-2.633621991E-1	8.384494781E0	2.557007313E0
4.219973151E0	-3.878606856E-1	8.271966934E0	2.588132143E0
4.222823905E0	-4.764461517E-1	8.188169479E0	2.607285738E0
4.224638035E0	-4.453215301E-1	8.140285492E0	2.671929121E0
4.226715958E0	-2.609679997E-1	8.097189903E0	2.765302896E0
4.228090804E0	-7.182604820E-2	8.063671112E0	2.822763920E0
4.230944597E0	7.422025502E-2	8.058882713E0	2.877830505E0
4.232182458E0	2.777273953E-1	8.080430984E0	2.947262287E0
4.235037251E0	6.272808313E-1	8.109161377E0	3.040636063E0
4.236277497E0	9.361328483E-1	8.111555099E0	3.074155092E0
4.239129059E0	1.134851575E0	8.116343498E0	3.076549292E0
4.240773612E0	1.328781962E0	8.152256966E0	3.086126089E0
4.243193328E0	1.549048543E0	8.221688271E0	3.078943491E0
4.244421381E0	1.790862918E0	8.303091049E0	3.031059265E0
4.247250635E0	2.068590164E0	8.377311707E0	2.954444885E0
4.248840612E0	2.391807556E0	8.434772491E0	2.875436306E0
4.251297789E0	2.729389906E0	8.463502884E0	2.796427488E0
4.252485189E0	3.026270866E0	8.446743965E0	2.703053713E0
4.255355059E0	3.275267839E0	8.367734909E0	2.588132143E0
4.256938189E0	3.550601006E0	8.209717751E0	2.367865562E0
4.259417751E0	3.612850428E0	8.164227486E0	2.288856745E0
4.260674843E0	3.711012602E0	8.082824707E0	2.140416384E0
4.263474866E0	3.799597979E0	8.013393402E0	2.011129379E0
4.265162920E0	3.876212597E0	7.994239330E0	1.845929503E0
4.267371612E0	3.878606796E0	8.013393402E0	1.788468719E0
4.268738689E0	3.876212597E0	8.080430984E0	1.666364431E0
4.271592751E0	3.890577793E0	8.190564156E0	1.539471745E0
4.273056612E0	3.885789394E0	8.370129585E0	1.388636947E0
4.275655751E0	3.878606796E0	8.429984093E0	1.357512355E0
4.276888420E0	3.895366192E0	8.547300339E0	1.319205165E0
4.279713520E0	4.015076160E0	8.748413086E0	1.338358760E0
4.281437458E0	4.129997730E0	8.882488251E0	1.364694953E0
4.283775981E0	4.228160381E0	9.002198219E0	1.407790542E0
4.284996266E0	4.297592163E0	9.105149269E0	1.493981838E0
