"Time (s)"	"Gyroscope x (rad/s)"	"Gyroscope y (rad/s)"	"Gyroscope z (rad/s)"
1.223665400E-2	1.890844405E-1	-2.876213938E-2	-1.523328125E-1
1.501384400E-2	1.890844405E-1	-2.876213938E-2	-1.523328125E-1
1.637015400E-2	1.890844405E-1	-2.876213938E-2	-1.523328125E-1
1.910599800E-2	1.890844405E-1	-2.876213938E-2	-1.523328125E-1
2.080419200E-2	1.890844405E-1	-2.876213938E-2	-1.523328125E-1
2.313045900E-2	1.890844405E-1	-2.876213938E-2	-1.523328125E-1
2.475546100E-2	1.890844405E-1	-2.876213938E-2	-1.523328125E-1
2.714845900E-2	1.890844405E-1	-2.876213938E-2	-1.523328125E-1
2.840680700E-2	1.890844405E-1	-2.876213938E-2	-1.523328125E-1
3.120592100E-2	1.890844405E-1	-2.876213938E-2	-1.523328125E-1
3.285169200E-2	1.890844405E-1	-2.876213938E-2	-1.523328125E-1
3.528422800E-2	1.890844405E-1	-2.876213938E-2	-1.523328125E-1
3.661219200E-2	1.890844405E-1	-2.876213938E-2	-1.523328125E-1
3.934145900E-2	1.890844405E-1	-2.876213938E-2	-1.523328125E-1
4.106619200E-2	1.890844405E-1	-2.876213938E-2	-1.523328125E-1
4.326965400E-2	1.890844405E-1	-2.876213938E-2	-1.523328125E-1
4.479565400E-2	-4.101268053E-1	-7.755125165E-1	-4.474110603E-1
4.744915200E-2	-4.223773479E-1	-7.914915085E-1	-4.756405652E-1
4.900100000E-2	-4.324973822E-1	-8.042746782E-1	-5.049353242E-1
5.149776700E-2	-4.431500137E-1	-8.149272799E-1	-5.347627401E-1
5.275376900E-2	-4.527373910E-1	-8.293083906E-1	-5.667206645E-1
5.555449800E-2	-4.585963488E-1	-8.410263062E-1	-5.938849449E-1
5.723407700E-2	-4.697816372E-1	-8.548747301E-1	-6.274407506E-1
5.963249800E-2	-4.756405652E-1	-8.697884083E-1	-6.604639888E-1
6.093065400E-2	-4.809668958E-1	-8.847021461E-1	-6.886934638E-1
6.368911300E-2	-4.868258536E-1	-9.017463326E-1	-7.206513882E-1
6.533619200E-2	-4.910869002E-1	-9.289106131E-1	-7.643272281E-1
6.771872800E-2	-4.910869002E-1	-9.363674521E-1	-7.792409658E-1
6.896830700E-2	-4.910869002E-1	-9.566074610E-1	-8.090683818E-1
7.177511300E-2	-4.910869002E-1	-9.725864530E-1	-8.394283652E-1
7.342011500E-2	-4.852279723E-1	-9.944243431E-1	-8.857674003E-1
7.583865100E-2	-4.830974340E-1	-1.000283360E0	-9.022790194E-1
7.709784600E-2	-4.761732221E-1	-1.014664412E0	-9.353021979E-1
7.989622800E-2	-4.681837261E-1	-1.027447581E0	-9.667274952E-1
8.162653800E-2	-4.463458061E-1	-1.042361259E0	-1.019458055E0
8.384180700E-2	-4.362258017E-1	-1.045557022E0	-1.033839107E0
8.523673000E-2	-4.213120937E-1	-1.051948667E0	-1.068992853E0
8.802015100E-2	-3.909520507E-1	-1.068992853E0	-1.116929770E0
8.931288400E-2	-3.632551730E-1	-1.091896057E0	-1.154214025E0
9.211299700E-2	-3.371562064E-1	-1.122256160E0	-1.187237263E0
9.347473000E-2	-3.115898669E-1	-1.161670923E0	-1.219727755E0
9.620553600E-2	-2.785666585E-1	-1.202683568E0	-1.251685739E0
9.782661500E-2	-2.492718846E-1	-1.248489976E0	-1.283111095E0
1.002693440E-1	-2.173139453E-1	-1.287372112E0	-1.318264723E0
1.015248070E-1	-1.842907518E-1	-1.319862604E0	-1.351287961E0
1.043272280E-1	-1.507349163E-1	-1.342233181E0	-1.387506962E0
1.059849610E-1	-1.177117229E-1	-1.352353215E0	-1.423725963E0
1.083740360E-1	-8.362326026E-2	-1.344896317E0	-1.462608099E0
1.096914230E-1	-5.219795927E-2	-1.323058486E0	-1.498827100E0
1.124316510E-1	-2.396845073E-2	-1.287904739E0	-1.537176609E0
1.141004230E-1	-2.130528912E-3	-1.245826840E0	-1.571797729E0
1.164958440E-1	2.183792181E-2	-1.201085687E0	-1.607484102E0
1.177658070E-1	4.048004746E-2	-1.159007788E0	-1.640507221E0
1.205531130E-1	5.912217870E-2	-1.123321414E0	-1.671399951E0
1.222831530E-1	7.936219871E-2	-1.079645514E0	-1.716140985E0
1.245144610E-1	8.628641814E-2	-1.069525480E0	-1.728924155E0
1.258912690E-1	9.747169912E-2	-1.058872819E0	-1.756088495E0
1.286704970E-1	1.091896072E-1	-1.054079175E0	-1.782187462E0
1.302036150E-1	1.171790883E-1	-1.051948667E0	-1.808819056E0
1.327002280E-1	1.241033077E-1	-1.051416039E0	-1.829059124E0
1.339623840E-1	1.336906850E-1	-1.048752904E0	-1.853560209E0
1.367578050E-1	1.416801661E-1	-1.027447581E0	-1.877528548E0
1.384004230E-1	1.533980817E-1	-9.901633263E-1	-1.911617041E0
1.407889200E-1	1.565938741E-1	-9.768475294E-1	-1.923334956E0
1.420588840E-1	1.629854590E-1	-9.448895454E-1	-1.945705533E0
1.448454200E-1	1.640507281E-1	-9.129316211E-1	-1.965412974E0
1.464904230E-1	1.645833552E-1	-8.436894417E-1	-1.989381313E0
1.488753050E-1	1.629854590E-1	-8.149272799E-1	-1.995772958E0
1.501447690E-1	1.560612470E-1	-7.430219650E-1	-2.008023500E0
1.529319590E-1	1.454086006E-1	-6.716492176E-1	-2.016545534E0
1.548124230E-1	1.241033077E-1	-5.890912414E-1	-2.008556128E0
1.570091130E-1	1.012001261E-1	-5.528722405E-1	-1.989914060E0
1.582730000E-1	7.669904083E-2	-5.326322317E-1	-1.957423449E0
1.610655360E-1	5.113269389E-2	-5.193164349E-1	-1.910551786E0
1.627823460E-1	1.917476021E-2	-5.038700700E-1	-1.858886480E0
1.649997690E-1	-1.917476021E-2	-4.894890189E-1	-1.796568513E0
1.663863070E-1	-5.699164793E-2	-4.676510990E-1	-1.736913681E0
1.691713820E-1	-9.906959534E-2	-4.319647253E-1	-1.667671561E0
1.704637300E-1	-1.454086006E-1	-3.824299276E-1	-1.605353594E0
1.732631130E-1	-1.912149638E-1	-3.254382908E-1	-1.541970253E0
1.745572690E-1	-2.386192381E-1	-2.695119083E-1	-1.483380795E0
1.773545740E-1	-2.822950780E-1	-2.210423797E-1	-1.419464946E0
1.790451150E-1	-3.222424984E-1	-1.741707325E-1	-1.358744860E0
1.814327660E-1	-3.643204570E-1	-1.288969964E-1	-1.299622655E0
1.827097690E-1	-4.005394280E-1	-8.788431436E-2	-1.239435196E0
1.854902280E-1	-4.383563101E-1	-4.953479767E-2	-1.178182483E0
1.871884610E-1	-4.708468914E-1	-2.396845073E-2	-1.113734007E0
1.895219200E-1	-5.028048158E-1	5.326322280E-4	-1.050883412E0
1.908133460E-1	-5.278385282E-1	2.822950855E-2	-9.885654449E-1
1.935794200E-1	-5.544701219E-1	5.539375171E-2	-9.257147908E-1
1.952056530E-1	-5.784385800E-1	8.788431436E-2	-8.628641963E-1
1.976426890E-1	-5.970807076E-1	1.203748807E-1	-7.989483476E-1
1.988781920E-1	-6.189186573E-1	1.480717659E-1	-7.371630073E-1
2.016997660E-1	-6.370281577E-1	1.757686287E-1	-6.695187092E-1
2.034266530E-1	-6.705839634E-1	2.221076339E-1	-5.672533512E-1
2.057187690E-1	-6.838997602E-1	2.364887148E-1	-5.358279943E-1
2.070385000E-1	-7.084008455E-1	2.716424465E-1	-4.644553065E-1
2.098206890E-1	-7.350324988E-1	3.099919558E-1	-3.973436356E-1
2.114753840E-1	-7.824367285E-1	3.856257200E-1	-2.913498282E-1
2.138999590E-1	-7.973504663E-1	4.138552547E-1	-2.583266199E-1
2.151997690E-1	-8.325041533E-1	4.793690145E-1	-1.901497096E-1
2.179571890E-1	-8.878979087E-1	5.874933600E-1	-8.894958347E-2
2.197404610E-1	-9.315737486E-1	6.748450398E-1	-2.183792181E-2
2.220206120E-1	-9.752495885E-1	7.691209316E-1	3.994741663E-2
2.232676530E-1	-1.017327547E0	8.745821118E-1	1.038632840E-1
2.260780350E-1	-1.065797091E0	9.864348769E-1	1.651159972E-1
2.277829230E-1	-1.110005617E0	1.108407617E0	2.242381722E-1
2.301246510E-1	-1.153148770E0	1.237837315E0	2.833603323E-1
2.313875380E-1	-1.196824670E0	1.375789046E0	3.408846259E-1
2.341818430E-1	-1.245826840E0	1.522262931E0	3.920173049E-1
2.359389610E-1	-1.286839485E0	1.679922104E0	4.436826408E-1
2.382457660E-1	-1.333711147E0	1.842374921E0	4.868258536E-1
2.395292690E-1	-1.376854300E0	2.014947653E0	5.283711553E-1
2.423028050E-1	-1.422660708E0	2.192314148E0	5.661880374E-1
2.440926150E-1	-1.465271235E0	2.373941898E0	5.981460214E-1
2.462585000E-1	-1.507881880E0	2.559830427E0	6.332997084E-1
2.476773840E-1	-1.551025033E0	2.751045465E0	6.593986750E-1
2.504196120E-1	-1.592570305E0	2.939597368E0	6.833671331E-1
2.518878460E-1	-1.631452560E0	3.131877422E0	7.057377100E-1
2.545149970E-1	-1.669269443E0	3.322559834E0	7.249124646E-1
2.559033070E-1	-1.706553698E0	3.508981228E0	7.414240837E-1
2.586069580E-1	-1.744370580E0	3.689010859E0	7.526093125E-1
2.605053460E-1	-1.794970632E0	3.857855320E0	7.488809228E-1
2.626712660E-1	-1.869006515E0	4.018177509E0	7.297061682E-1
2.639261150E-1	-1.956358194E0	4.165184021E0	7.099987864E-1
2.667286890E-1	-2.051166773E0	4.282362938E0	6.844323874E-1
2.684080380E-1	-2.204032183E0	4.361192703E0	6.306365728E-1
2.707601510E-1	-2.253566980E0	4.350007534E0	6.056028605E-1
2.720715380E-1	-2.349973440E0	4.250405312E0	5.550028086E-1
2.748173430E-1	-2.438390255E0	4.012851238E0	4.846953154E-1
2.765155000E-1	-2.555036783E0	3.342799902E0	3.515372574E-1
2.788963810E-1	-2.588059902E0	3.036003590E0	2.993393242E-1
2.801408840E-1	-2.643986464E0	2.339853287E0	1.880191714E-1
2.829528810E-1	-2.724413872E0	1.285774231E0	1.012001187E-2
2.850431920E-1	-2.789927721E0	6.929545403E-1	-1.097222418E-1
2.870009580E-1	-2.857571840E0	2.135855258E-1	-2.205097377E-1
2.884820380E-1	-2.933738232E0	-1.635181010E-1	-3.222424984E-1
2.910582280E-1	-3.013633251E0	-4.500742257E-1	-3.989415467E-1
2.927048460E-1	-3.093528032E0	-6.700513363E-1	-4.649879336E-1
2.951308040E-1	-3.173422813E0	-8.452873230E-1	-5.166532397E-1
2.964131530E-1	-3.252784967E0	-9.859022498E-1	-5.597964525E-1
2.991878810E-1	-3.328418732E0	-1.112668753E0	-5.869607329E-1
3.010041920E-1	-3.401389360E0	-1.233043551E0	-6.050702333E-1
3.032653040E-1	-3.469566345E0	-1.349690080E0	-6.066681147E-1
3.046128070E-1	-3.534547567E0	-1.465803862E0	-5.992112756E-1
3.073223430E-1	-3.594202280E0	-1.580319762E0	-5.800365210E-1
3.091082690E-1	-3.651726484E0	-1.689509392E0	-5.576659441E-1
3.113528810E-1	-3.704457045E0	-1.798166394E0	-5.289037824E-1
3.126162690E-1	-3.738013029E0	-1.897768617E0	-4.937500656E-1
3.154100740E-1	-3.710848808E0	-1.977663517E0	-4.356931746E-1
3.170501920E-1	-3.604322195E0	-2.009088755E0	-3.392867148E-1
3.194744580E-1	-3.450924158E0	-1.992577195E0	-2.450108230E-1
3.207476530E-1	-3.275155544E0	-1.913214922E0	-1.890844405E-1
3.235320740E-1	-3.107908964E0	-1.767806411E0	-1.656486243E-1
3.252626530E-1	-2.842658281E0	-1.440770149E0	-1.597896665E-1
3.275962270E-1	-2.752643347E0	-1.310807943E0	-1.597896665E-1
3.289941920E-1	-2.563558817E0	-1.041828632E0	-1.448759735E-1
3.316532660E-1	-2.369148254E0	-7.744472623E-1	-1.267664731E-1
3.329726150E-1	-2.169411182E0	-5.166532397E-1	-1.033306494E-1
3.357721120E-1	-1.963282347E0	-2.695119083E-1	-7.829693705E-2
3.371185760E-1	-1.748631597E0	-3.515372798E-2	-5.379585549E-2
3.398639580E-1	-1.524926066E0	1.832254827E-1	-2.929477207E-2
3.415204990E-1	-1.177117229E0	4.873584807E-1	-2.130528912E-3
3.439276500E-1	-1.060470819E0	5.805691481E-1	2.663161140E-3
3.451954610E-1	-8.282431364E-1	7.568703890E-1	9.587380104E-3
3.479849200E-1	-4.942827225E-1	9.912285805E-1	1.597896684E-3
3.496382300E-1	-2.844256163E-1	1.127582431E0	-1.118527725E-2
3.520303810E-1	-8.096009493E-2	1.246359468E0	-3.089267015E-2
3.532869230E-1	1.075917110E-1	1.348624825E0	-5.752427876E-2
3.560873430E-1	2.924150825E-1	1.430650115E0	-9.267801046E-2
3.577276920E-1	4.649879336E-1	1.484978676E0	-1.315601617E-1
3.601502660E-1	6.301039457E-1	1.508947134E0	-1.826928556E-1
3.614220380E-1	7.850999236E-1	1.500957608E0	-2.460760921E-1
3.642066500E-1	9.305084944E-1	1.462075472E0	-3.126551211E-1
3.659524230E-1	1.059405446E0	1.390170097E0	-3.872236311E-1
3.682638810E-1	1.172856212E0	1.284708977E0	-4.719121456E-1
3.697031920E-1	1.277252078E0	1.149953008E0	-5.603290796E-1
3.723198040E-1	1.367799520E0	9.864348769E-1	-6.540724039E-1
3.739707690E-1	1.442368031E0	7.952198982E-1	-7.526093125E-1
3.763687660E-1	1.506283998E0	5.800365210E-1	-8.511462808E-1
3.776468840E-1	1.551025033E0	3.382214606E-1	-9.566074610E-1
3.804255350E-1	1.582983017E0	7.084008306E-2	-1.059405446E0
3.821439230E-1	1.598429322E0	-2.087918371E-1	-1.168595076E0
3.844879190E-1	1.599494576E0	-4.953479767E-1	-1.269795179E0
3.857492300E-1	1.592570305E0	-7.430219650E-1	-1.365669012E0
3.885451120E-1	1.581917763E0	-9.448895454E-1	-1.450357556E0
3.901874220E-1	1.570199847E0	-1.106809735E0	-1.538774490E0
3.925756120E-1	1.553155541E0	-1.260207891E0	-1.618669391E0
3.938569990E-1	1.522795558E0	-1.433313370E0	-1.691639900E0
3.966328810E-1	1.481250167E0	-1.625060916E0	-1.761947393E0
3.982910760E-1	1.410410166E0	-1.899899125E0	-1.857288599E0
4.007118420E-1	1.388572216E0	-1.975000262E0	-1.888181210E0
4.020409990E-1	1.345961690E0	-2.105495214E0	-1.939846516E0
4.047689960E-1	1.309210062E0	-2.204564810E0	-1.985652924E0
4.064970380E-1	1.257544637E0	-2.328135490E0	-2.035720348E0
4.087336150E-1	1.241033077E0	-2.364354372E0	-2.047438383E0
4.103208070E-1	1.209075212E0	-2.443184137E0	-2.063949823E0
4.128749190E-1	1.179247737E0	-2.524144173E0	-2.070874214E0
4.142849220E-1	1.151550889E0	-2.618952751E0	-2.069276094E0
4.169935730E-1	1.111603498E0	-2.798449755E0	-2.054895163E0
4.183133840E-1	1.076982379E0	-2.949184656E0	-2.037850857E0
4.210851500E-1	1.045024395E0	-3.115898609E0	-2.017610788E0
4.227457690E-1	1.006142259E0	-3.296993494E0	-1.989381313E0
4.251631120E-1	9.656622410E-1	-3.478088379E0	-1.960086584E0
4.264313070E-1	9.219864011E-1	-3.658118248E0	-1.929193974E0
4.292198420E-1	8.751147389E-1	-3.825897217E0	-1.897768617E0
4.308553840E-1	8.229168057E-1	-3.982491255E0	-1.862614870E0
4.332501500E-1	7.728493810E-1	-4.115116596E0	-1.830124378E0
4.345350380E-1	7.174556255E-1	-4.215784073E0	-1.808286428E0
4.373071120E-1	6.572681665E-1	-4.289820194E0	-1.785383224E0
4.390102300E-1	5.970807076E-1	-4.355866432E0	-1.764077902E0
4.413706880E-1	5.320996046E-1	-4.417119026E0	-1.744370580E0
4.426438070E-1	4.655205607E-1	-4.463458061E0	-1.724663138E0
4.454270730E-1	4.000068009E-1	-4.492220402E0	-1.707086325E0
4.471607690E-1	3.344930410E-1	-4.493818283E0	-1.684715748E0
4.494093840E-1	2.727077007E-1	-4.470914841E0	-1.670334697E0
4.508361150E-1	2.231729031E-1	-4.418716908E0	-1.659149408E0
4.535475730E-1	1.810949594E-1	-4.337756634E0	-1.646366239E0
4.553181530E-1	1.512675583E-1	-4.251470566E0	-1.632517815E0
4.576324960E-1	1.278317273E-1	-4.183825970E0	-1.615473509E0
4.589616530E-1	1.070590764E-1	-4.144944191E0	-1.594700933E0
4.616886500E-1	8.468852192E-2	-4.125769138E0	-1.570199847E0
4.637783840E-1	5.539375171E-2	-4.131628036E0	-1.532382965E0
4.657511500E-1	4.367584363E-2	-4.139617443E0	-1.518001795E0
4.670816530E-1	2.077265643E-2	-4.156661987E0	-1.492435455E0
4.698070730E-1	-2.663161140E-3	-4.170510292E0	-1.470597625E0
4.714714610E-1	-3.728425503E-2	-4.206729412E0	-1.439172268E0
4.738530730E-1	-4.367584363E-2	-4.226436615E0	-1.432780743E0
4.751188070E-1	-5.539375171E-2	-4.274906158E0	-1.419464946E0
4.779093810E-1	-5.752427876E-2	-4.330832481E0	-1.407214403E0
4.795343460E-1	-6.977482140E-2	-4.452272892E0	-1.405616403E0
4.819721880E-1	-8.096009493E-2	-4.559864521E0	-1.409877539E0
4.832507690E-1	-9.321063757E-2	-4.683434963E0	-1.415736437E0
4.860284580E-1	-1.129180342E-1	-4.827245712E0	-1.426921725E0
4.877776530E-1	-1.347559541E-1	-4.984905243E0	-1.437574387E0
4.899738840E-1	-1.661812514E-1	-5.146825314E0	-1.453553319E0
4.913509610E-1	-1.960086524E-1	-5.294897079E0	-1.473260760E0
4.941438420E-1	-2.210423797E-1	-5.417402267E0	-1.494566083E0
4.957438840E-1	-2.439455539E-1	-5.503688812E0	-1.516403913E0
4.982453040E-1	-2.604571581E-1	-5.547364712E0	-1.543568254E0
4.997610380E-1	-2.705771625E-1	-5.536712170E0	-1.572330356E0
5.023369190E-1	-2.732403278E-1	-5.447762489E0	-1.600559831E0
5.040718840E-1	-2.785666585E-1	-5.245362282E0	-1.633583069E0
5.064009570E-1	-2.876214087E-1	-4.944425106E0	-1.675660968E0
5.078320760E-1	-3.051982522E-1	-4.676510811E0	-1.729456902E0
5.104569190E-1	-3.281014562E-1	-4.491687775E0	-1.786981106E0
5.120949990E-1	-3.387540877E-1	-4.323375702E0	-1.853560209E0
5.144857270E-1	-3.387540877E-1	-4.111920834E0	-1.924400210E0
5.158123840E-1	-3.312972486E-1	-3.854126692E0	-2.001099348E0
5.185417650E-1	-3.249056637E-1	-3.565972805E0	-2.085255146E0
5.201934610E-1	-3.312972486E-1	-3.263437748E0	-2.164617300E0
5.226184960E-1	-3.440804183E-1	-2.954510927E0	-2.249838591E0
5.239538840E-1	-3.664509654E-1	-2.658900023E0	-2.331863880E0
5.266739960E-1	-3.930825889E-1	-2.378202915E0	-2.414954424E0
5.283988840E-1	-4.388889670E-1	-2.021339417E0	-2.523078918E0
5.305838450E-1	-4.554005563E-1	-1.916410804E0	-2.556102037E0
5.320543070E-1	-4.905542731E-1	-1.726793647E0	-2.619485378E0
5.347791500E-1	-5.278385282E-1	-1.557949305E0	-2.677009583E0
5.363218450E-1	-5.944175720E-1	-1.344363689E0	-2.727077007E0
5.388254190E-1	-6.194512844E-1	-1.282045722E0	-2.721218109E0
5.401516530E-1	-6.641923785E-1	-1.170725584E0	-2.655704260E0
5.428822270E-1	-7.046724558E-1	-1.091363430E0	-2.487392426E0
5.445209220E-1	-7.414240837E-1	-1.027447581E0	-2.041046619E0
5.469616110E-1	-7.675230503E-1	-1.009338021E0	-1.707618952E0
5.482510760E-1	-8.005462289E-1	-9.859022498E-1	-1.409344912E0
5.510180730E-1	-8.490157723E-1	-9.507485032E-1	-1.146224499E0
5.526701150E-1	-9.113337398E-1	-9.049421549E-1	-9.177253246E-1
5.550489190E-1	-9.875001311E-1	-8.548747301E-1	-7.137271762E-1
5.563390380E-1	-1.076982379E0	-8.069378138E-1	-5.464806557E-1
5.591059570E-1	-1.176584601E0	-7.717841268E-1	-4.138552547E-1
5.607542690E-1	-1.274588943E0	-7.579356432E-1	-3.094593287E-1
5.631701880E-1	-1.376321673E0	-7.675230503E-1	-2.247707993E-1
5.644408070E-1	-1.479652286E0	-7.946872711E-1	-1.581917703E-1
5.672264190E-1	-1.582450390E0	-8.399610519E-1	-9.108011425E-2
5.692371530E-1	-1.683650494E0	-9.065400362E-1	-3.675162420E-2
5.712911880E-1	-1.786448479E0	-1.001348615E0	-4.261057824E-3
5.726587300E-1	-1.886583328E0	-1.115864515E0	1.065264456E-2
5.753478800E-1	-1.986718178E0	-1.251153111E0	7.989482954E-3
5.767034990E-1	-2.083124638E0	-1.408279657E0	-1.544633508E-2
5.794668030E-1	-2.172606945E0	-1.588309288E0	-5.219795927E-2
5.809524220E-1	-2.255164862E0	-1.779524326E0	-1.027980223E-1
5.835580340E-1	-2.323874474E0	-1.981924534E0	-1.533980817E-1
5.852155760E-1	-2.382996559E0	-2.198705912E0	-2.087918371E-1
5.876214570E-1	-2.427737713E0	-2.428270340E0	-2.551308274E-1
5.889561530E-1	-2.457032442E0	-2.664758921E0	-2.940129936E-1
5.916776880E-1	-2.473544121E0	-2.902312994E0	-3.275688291E-1
5.934832690E-1	-2.475674629E0	-3.246393442E0	-3.611246645E-1
5.957233030E-1	-2.470348358E0	-3.355582952E0	-3.659183383E-1
5.970225380E-1	-2.450640917E0	-3.558516026E0	-3.797667921E-1
5.997803420E-1	-2.420813560E0	-3.735349894E0	-3.925499618E-1
6.016696150E-1	-2.356364965E0	-3.930293322E0	-4.095941782E-1
6.038434570E-1	-2.332929134E0	-3.978230000E0	-4.154531360E-1
6.051693070E-1	-2.273274422E0	-4.046407223E0	-4.218447208E-1
6.079006880E-1	-2.206162691E0	-4.088484764E0	-4.298342168E-1
6.096542300E-1	-2.092179298E0	-4.095409393E0	-4.335626364E-1
6.119524610E-1	-2.011219263E0	-4.070908070E0	-4.335626364E-1
6.136218070E-1	-1.921737075E0	-4.021905899E0	-4.255731404E-1
6.160165720E-1	-1.829591751E0	-3.938282728E0	-4.154531360E-1
6.176431920E-1	-1.745968461E0	-3.820038319E0	-4.117247164E-1
6.200652650E-1	-1.671932578E0	-3.655987501E0	-4.069310129E-1
6.214569220E-1	-1.625060916E0	-3.428553581E0	-4.095941782E-1
6.241214950E-1	-1.585646152E0	-3.181412220E0	-4.149205089E-1
6.258060760E-1	-1.545698762E0	-2.933738232E0	-4.218447208E-1
6.281863030E-1	-1.497229218E0	-2.687129498E0	-4.202468395E-1
6.295156920E-1	-1.441302776E0	-2.436259747E0	-4.053331316E-1
6.322434950E-1	-1.389104843E0	-2.189651012E0	-3.802994192E-1
6.341688450E-1	-1.335309029E0	-1.953162432E0	-3.531351686E-1
6.362740720E-1	-1.288437366E0	-1.736381054E0	-3.211772442E-1
6.375139990E-1	-1.251685739E0	-1.528654456E0	-2.934803665E-1
6.403303420E-1	-1.229315162E0	-1.345961690E0	-2.684466541E-1
6.419828840E-1	-1.219195127E0	-1.198955178E0	-2.492718846E-1
6.444097650E-1	-1.223988891E0	-1.086569786E0	-2.306297570E-1
6.456606920E-1	-1.232510924E0	-1.010403395E0	-2.141181529E-1
6.484663030E-1	-1.252750993E0	-9.635316730E-1	-1.885518134E-1
6.501988070E-1	-1.274588943E0	-9.464874864E-1	-1.645833552E-1
6.524363070E-1	-1.304416299E0	-9.454222322E-1	-1.331580579E-1
6.538299990E-1	-1.345429063E0	-9.624664187E-1	-1.043959185E-1
6.565714570E-1	-1.398159623E0	-1.013066530E0	-8.309062570E-2
6.580377680E-1	-1.464205980E0	-1.082308650E0	-7.137271762E-2
6.606628410E-1	-1.536111355E0	-1.138235092E0	-5.645901710E-2
6.620319990E-1	-1.617604017E0	-1.181910872E0	-4.367584363E-2
6.647542260E-1	-1.703890443E0	-1.214401484E0	-3.142530099E-2
6.664808450E-1	-1.842907548E0	-1.249555230E0	-2.024002373E-2
6.688331490E-1	-1.892442346E0	-1.258610010E0	-2.024002373E-2
6.701964610E-1	-1.992577195E0	-1.272458434E0	-2.503371425E-2
6.728895340E-1	-2.096973181E0	-1.296426892E0	-3.728425503E-2
6.747615380E-1	-2.207760572E0	-1.251685739E0	-6.870955974E-2
6.769211490E-1	-2.242381573E0	-1.167529821E0	-9.640643001E-2
6.781881920E-1	-2.271143913E0	-1.068460226E0	-1.272991002E-1
6.809782640E-1	-2.309493303E0	-9.976201653E-1	-1.619201899E-1
6.827011530E-1	-2.349440813E0	-9.651296139E-1	-1.970739216E-1
6.850418410E-1	-2.383529186E0	-9.715211987E-1	-2.258360684E-1
6.863773070E-1	-2.403769255E0	-1.021588564E0	-2.482066154E-1
6.890982260E-1	-2.412823915E0	-1.097755075E0	-2.647182047E-1
6.910648840E-1	-2.400040865E0	-1.197357297E0	-2.769687474E-1
6.930884610E-1	-2.374474525E0	-1.298557401E0	-2.886866629E-1
6.944502300E-1	-2.330798626E0	-1.391767979E0	-3.004045784E-1
6.972202260E-1	-2.279665947E0	-1.471662879E0	-3.126551211E-1
6.988680760E-1	-2.222141743E0	-1.532382965E0	-3.243730366E-1
7.012909950E-1	-2.161421537E0	-1.573395610E0	-3.387540877E-1
7.026738070E-1	-2.100701571E0	-1.589374542E0	-3.542004228E-1
7.053475340E-1	-2.039448738E0	-1.577656627E0	-3.632551730E-1
7.070052680E-1	-1.978728771E0	-1.550492406E0	-3.605920076E-1
7.094104950E-1	-1.913747549E0	-1.515871286E0	-3.621899188E-1
7.106618840E-1	-1.848233819E0	-1.473260760E0	-3.632551730E-1
7.134676490E-1	-1.780589581E0	-1.422128081E0	-3.664509654E-1
7.152808840E-1	-1.711879969E0	-1.367799520E0	-3.664509654E-1
7.175141100E-1	-1.637311459E0	-1.307079434E0	-3.669835925E-1
7.189860380E-1	-1.565938711E0	-1.239967823E0	-3.653857112E-1
7.215715720E-1	-1.493500710E0	-1.174986720E0	-3.600593805E-1
7.232276150E-1	-1.383778572E0	-1.087635040E0	-3.478088379E-1
7.256349570E-1	-1.346494317E0	-1.060470819E0	-3.451456726E-1
7.269149990E-1	-1.278849959E0	-1.007740140E0	-3.398193717E-1
7.296924950E-1	-1.209607840E0	-9.555422068E-1	-3.339604139E-1
7.314616530E-1	-1.113201380E0	-8.783105612E-1	-3.238403797E-1
7.336452300E-1	-1.082841277E0	-8.543421030E-1	-3.222424984E-1
7.350708840E-1	-1.026382327E0	-8.021441102E-1	-3.222424984E-1
7.378089180E-1	-9.773801565E-1	-7.446198463E-1	-3.286340833E-1
7.391140760E-1	-9.262474179E-1	-6.796387434E-1	-3.376888335E-1
7.419038800E-1	-8.633968234E-1	-5.832322836E-1	-3.595267534E-1
7.434144220E-1	-8.239820600E-1	-5.193164349E-1	-3.728425503E-1
7.459966490E-1	-7.861651778E-1	-4.681837261E-1	-3.861583769E-1
7.478534220E-1	-7.531419992E-1	-4.335626364E-1	-4.032025933E-1
7.500604180E-1	-7.195861340E-1	-4.143878818E-1	-4.250405133E-1
7.513160760E-1	-6.908239722E-1	-4.143878818E-1	-4.468784332E-1
7.541174180E-1	-6.673882008E-1	-4.335626364E-1	-4.681837261E-1
7.559322300E-1	-6.492787004E-1	-4.713795185E-1	-4.932174385E-1
7.581487640E-1	-6.354302764E-1	-5.230448246E-1	-5.187838078E-1
7.594324610E-1	-6.221144199E-1	-5.917543769E-1	-5.502091050E-1
7.622060330E-1	-6.135923266E-1	-6.636597514E-1	-5.752428174E-1
7.639161150E-1	-6.050702333E-1	-7.371630073E-1	-5.848301649E-1
7.662844950E-1	-6.002765298E-1	-7.994809747E-1	-5.795038939E-1
7.677033450E-1	-5.928196907E-1	-8.617989421E-1	-5.587311983E-1
7.703419560E-1	-5.858954787E-1	-9.171926975E-1	-5.278385282E-1
7.720450380E-1	-5.795038939E-1	-9.672601223E-1	-4.910869002E-1
7.742913070E-1	-5.725796223E-1	-1.011468649E0	-4.511395097E-1
7.758406150E-1	-5.640575290E-1	-1.050883412E0	-4.117247164E-1
7.784503030E-1	-5.496764779E-1	-1.087635040E0	-3.739078343E-1
7.802205380E-1	-5.342301130E-1	-1.125984550E0	-3.376888335E-1
7.825231870E-1	-5.097290277E-1	-1.172856212E0	-3.041329980E-1
7.839434610E-1	-4.793690145E-1	-1.230380416E0	-2.732403278E-1
7.865798410E-1	-4.474110603E-1	-1.294828892E0	-2.476739883E-1
7.884450380E-1	-3.957457542E-1	-1.400290132E0	-2.189118415E-1
7.906568030E-1	-3.808320463E-1	-1.437041759E0	-2.146507949E-1
7.919428070E-1	-3.504720032E-1	-1.506816626E0	-2.066612989E-1
7.947139560E-1	-3.312972486E-1	-1.574460864E0	-2.103897333E-1
7.966656530E-1	-3.051982522E-1	-1.655953646E0	-2.295644879E-1
7.987454180E-1	-3.004045784E-1	-1.678856730E0	-2.434129268E-1
8.000068840E-1	-2.918824553E-1	-1.717738986E0	-2.759034932E-1
8.028028020E-1	-2.961435318E-1	-1.749164224E0	-3.046656251E-1
8.044551530E-1	-3.153182864E-1	-1.794970632E0	-3.563309610E-1
8.068651100E-1	-3.254382908E-1	-1.810416937E0	-3.765709996E-1
8.081568840E-1	-3.542004228E-1	-1.835983276E0	-4.255731404E-1
8.109215330E-1	-4.016047120E-1	-1.879126549E0	-5.001416802E-1
8.127247300E-1	-4.388889670E-1	-1.910019159E0	-5.544701219E-1
8.148683450E-1	-4.809668958E-1	-1.937183380E0	-6.087986231E-1
8.162935760E-1	-5.235774517E-1	-1.961684465E0	-6.631271243E-1
8.190404180E-1	-5.667206645E-1	-1.988848686E0	-7.243798375E-1
8.204910760E-1	-6.103965044E-1	-2.031991959E0	-7.824367285E-1
8.231593790E-1	-6.524744630E-1	-2.085255146E0	-8.335694075E-1
8.244824610E-1	-7.004113793E-1	-2.136387825E0	-8.878979087E-1
8.272506870E-1	-7.451524734E-1	-2.189651012E0	-9.384979606E-1
8.289927300E-1	-7.957525253E-1	-2.244512320E0	-9.864348769E-1
8.313123410E-1	-8.468852639E-1	-2.302036524E0	-1.025849700E0
8.326589610E-1	-9.022790194E-1	-2.347310305E0	-1.064199209E0
8.353691100E-1	-9.603359103E-1	-2.395247221E0	-1.092961311E0
8.371066910E-1	-1.023186564E0	-2.441586018E0	-1.112136126E0
8.394147640E-1	-1.088700294E0	-2.484729290E0	-1.128115058E0
8.407188840E-1	-1.155279279E0	-2.527339935E0	-1.135039330E0
8.434717640E-1	-1.226119399E0	-2.560363054E0	-1.140365601E0
8.451155760E-1	-1.300687909E0	-2.586994648E0	-1.143561363E0
8.475338790E-1	-1.374723792E0	-2.614158869E0	-1.143561363E0
8.488134990E-1	-1.448227048E0	-2.634931564E0	-1.138767719E0
8.515901870E-1	-1.532915592E0	-2.650910616E0	-1.137169838E0
8.533805380E-1	-1.657018900E0	-2.686596870E0	-1.141430855E0
8.556506870E-1	-1.699096799E0	-2.702043295E0	-1.139832973E0
8.573287680E-1	-1.783252716E0	-2.735066414E0	-1.147289872E0
8.597076870E-1	-1.862614870E0	-2.780872822E0	-1.149953008E0
8.612684610E-1	-1.979794025E0	-2.869289875E0	-1.160073042E0
8.637356480E-1	-2.014947653E0	-2.899117231E0	-1.161670923E0
8.650796140E-1	-2.085255146E0	-2.978479385E0	-1.170192957E0
8.677922640E-1	-2.149171114E0	-3.067429066E0	-1.168595076E0
8.696299610E-1	-2.245577574E0	-3.200587034E0	-1.173921466E0
8.718531100E-1	-2.273807049E0	-3.255980730E0	-1.177117229E0
8.731351140E-1	-2.328135490E0	-3.359844208E0	-1.180845618E0
8.759092640E-1	-2.413889170E0	-3.503122091E0	-1.174454093E0
8.775982300E-1	-2.473544121E0	-3.589941263E0	-1.169660330E0
8.799400710E-1	-2.533198833E0	-3.670901299E0	-1.158475041E0
8.812592300E-1	-2.593386412E0	-3.746002436E0	-1.143028736E0
8.839976870E-1	-2.650377989E0	-3.814712048E0	-1.123321414E0
8.858815380E-1	-2.704173803E0	-3.878095150E0	-1.103081346E0
8.880766100E-1	-2.759567499E0	-3.929760695E0	-1.075917125E0
8.894147300E-1	-2.806439161E0	-3.972903728E0	-1.052481294E0
8.921333020E-1	-2.852245569E0	-4.012318611E0	-1.022653818E0
8.938988070E-1	-2.899117231E0	-4.051733494E0	-9.986854196E-1
8.960577680E-1	-2.936933994E0	-4.096474648E0	-9.763149023E-1
8.974659610E-1	-2.974218369E0	-4.148139954E0	-9.539443254E-1
9.002400710E-1	-3.006176233E0	-4.208859921E0	-9.374327064E-1
9.016486530E-1	-3.029079437E0	-4.275438786E0	-9.187905788E-1
9.043317640E-1	-3.044525862E0	-4.340952873E0	-9.070726633E-1
9.060740760E-1	-3.058374166E0	-4.408596992E0	-8.958874345E-1
9.084239940E-1	-3.062635422E0	-4.466121197E0	-8.847021461E-1
9.106970760E-1	-3.062635422E0	-4.541222572E0	-8.847021461E-1
9.124581100E-1	-3.069026947E0	-4.554538250E0	-8.831042051E-1
9.139237680E-1	-3.078081608E0	-4.545483589E0	-8.894958496E-1
9.165153790E-1	-3.074885845E0	-4.543885708E0	-9.028116465E-1
9.182684990E-1	-3.062635422E0	-4.597148895E0	-9.166600704E-1
9.205463790E-1	-3.037601709E0	-4.671184540E0	-9.299758673E-1
9.223163840E-1	-3.010969877E0	-4.747883797E0	-9.464874864E-1
9.245418790E-1	-2.974750996E0	-4.819788933E0	-9.592706561E-1
9.263609610E-1	-2.941195250E0	-4.884237766E0	-9.752495885E-1
9.285710710E-1	-2.910302401E0	-4.949751377E0	-9.949570298E-1
9.300331530E-1	-2.874083519E0	-5.013134480E0	-1.014131784E0
9.326288790E-1	-2.838929892E0	-5.086105347E0	-1.035437107E0
9.343984220E-1	-2.775013924E0	-5.185174942E0	-1.070058107E0
9.366137680E-1	-2.755839109E0	-5.221926212E0	-1.079112887E0
9.381281530E-1	-2.720685482E0	-5.291701317E0	-1.105744481E0
9.407529940E-1	-2.684466362E0	-5.352421284E0	-1.128647685E0
9.425040370E-1	-2.626942158E0	-5.396097183E0	-1.168062449E0
9.448004560E-1	-2.604571581E0	-5.396097183E0	-1.182443500E0
9.461677300E-1	-2.551308393E0	-5.376922131E0	-1.211205721E0
9.488574940E-1	-2.481533527E0	-5.323658943E0	-1.241033077E0
9.505141140E-1	-2.335059643E0	-5.181446075E0	-1.295894265E0
9.529212250E-1	-2.222674370E0	-5.049353600E0	-1.335309029E0
9.542054990E-1	-2.100168943E0	-4.902879715E0	-1.377919555E0
9.569780330E-1	-1.984587669E0	-4.730306625E0	-1.421062827E0
9.586966140E-1	-1.871669650E0	-4.559864521E0	-1.466336489E0
9.610234170E-1	-1.755555868E0	-4.401672840E0	-1.512675524E0
9.622854610E-1	-1.636246204E0	-4.249340057E0	-1.566471338E0
9.650813400E-1	-1.510545015E0	-4.100735664E0	-1.618136764E0
9.667043070E-1	-1.377386928E0	-3.969175339E0	-1.670334697E0
9.691451100E-1	-1.234641552E0	-3.852528811E0	-1.723065257E0
9.704352680E-1	-1.089765549E0	-3.750796080E0	-1.768871665E0
9.732023400E-1	-9.384979606E-1	-3.668238163E0	-1.807753801E0
9.749538070E-1	-7.856325507E-1	-3.599528551E0	-1.841309667E0
9.772053070E-1	-6.226470470E-1	-3.543602228E0	-1.862614870E0
9.786300370E-1	-4.532700181E-1	-3.498861074E0	-1.881257057E0
9.813177250E-1	-2.822950780E-1	-3.473827362E0	-1.891909719E0
9.827927680E-1	-1.027980223E-1	-3.469033718E0	-1.896703362E0
9.853533400E-1	6.870955974E-2	-3.480218887E0	-1.896703362E0
9.867063840E-1	2.386192381E-1	-3.505252600E0	-1.893507600E0
9.894099560E-1	4.032025933E-1	-3.533482313E0	-1.883387566E0
9.910483070E-1	5.624596477E-1	-3.557450533E0	-1.874332786E0
9.934713400E-1	7.137271762E-1	-3.573429585E0	-1.858886480E0
9.948050370E-1	8.538094759E-1	-3.585680246E0	-1.849831700E0
9.975279940E-1	9.821738005E-1	-3.587810755E0	-1.836515903E0
9.992654220E-1	1.109472990E0	-3.584614992E0	-1.816808581E0
1.001558917E0	1.220793009E0	-3.594202280E0	-1.796035886E0
1.002868076E0	1.315068960E0	-3.623497009E0	-1.781654835E0
1.005616379E0	1.390702724E0	-3.660781384E0	-1.767273784E0
1.007304961E0	1.451955438E0	-3.703391790E0	-1.726793647E0
1.009694417E0	1.461542845E0	-3.722566605E0	-1.714543104E0
1.011070384E0	1.465803862E0	-3.775297165E0	-1.680454731E0
1.013752302E0	1.454618573E0	-3.849333048E0	-1.640507221E0
1.015505076E0	1.423725963E0	-3.992078543E0	-1.565406084E0
1.017742307E0	1.409344912E0	-4.032558441E0	-1.532915592E0
1.019127807E0	1.393365860E0	-4.078897476E0	-1.455683827E0
1.021859609E0	1.430117488E0	-4.062386036E0	-1.369930148E0
1.023703037E0	1.617071390E0	-3.898867846E0	-1.257012010E0
1.025946455E0	1.807221174E0	-3.701261282E0	-1.203748822E0
1.027308768E0	1.979261398E0	-3.530818939E0	-1.158475041E0
1.030003340E0	2.083124638E0	-3.373692513E0	-1.118527651E0
1.032192768E0	2.141714096E0	-3.257578611E0	-1.031708598E0
1.034037071E0	2.132659435E0	-3.240001917E0	-1.006142259E0
1.035416768E0	2.069808722E0	-3.196858644E0	-9.550095797E-1
1.038093725E0	1.970206618E0	-3.164900780E0	-9.049421549E-1
1.040008576E0	1.866876006E0	-3.180879593E0	-8.293083906E-1
1.042124955E0	1.797101140E0	-3.318298817E0	-7.440872192E-1
1.043370730E0	1.731054783E0	-3.395530462E0	-6.663229465E-1
1.046182148E0	1.665540934E0	-3.388606310E0	-5.784385800E-1
1.047872153E0	1.580319762E0	-3.292732477E0	-4.852279723E-1
1.050245340E0	1.510545015E0	-3.183010101E0	-3.771036267E-1
1.051608845E0	1.457814455E0	-3.061037302E0	-2.705771625E-1
1.054301994E0	1.419997573E0	-2.918292046E0	-1.778991669E-1
1.056058537E0	1.388572216E0	-2.732935905E0	-8.788431436E-2
1.058332653E0	1.350755334E0	-2.533731461E0	-7.989482954E-3
1.059673153E0	1.298557401E0	-2.323874474E0	5.219795927E-2
1.062422648E0	1.237837315E0	-2.117213011E0	1.033306494E-1
1.064450807E0	1.167529821E0	-1.910019159E0	1.448759735E-1
1.066540878E0	1.094559193E0	-1.709216833E0	1.837581247E-1
1.067934307E0	1.017860174E0	-1.502555490E0	2.199771106E-1
1.070632725E0	9.422264099E-1	-1.315068960E0	2.514024079E-1
1.072305307E0	8.309062719E-1	-1.063133955E0	2.822950780E-1
1.074695763E0	8.005462289E-1	-9.688580036E-1	2.886866629E-1
1.076008230E0	7.467503548E-1	-7.792409658E-1	3.078614175E-1
1.078752917E0	6.876282096E-1	-6.045376062E-1	3.211772442E-1
1.080399807E0	5.949501991E-1	-3.685815036E-1	3.382214606E-1
1.082800224E0	5.656554103E-1	-2.972087860E-1	3.398193717E-1
1.084062499E0	5.065332651E-1	-1.624528319E-1	3.483414650E-1
1.086856724E0	4.479437172E-1	-3.408846259E-2	3.526025414E-1
1.088765922E0	3.739078343E-1	1.608549356E-1	3.723099232E-1
1.090919301E0	3.270362020E-1	2.806971967E-1	3.866910040E-1
1.092190884E0	2.748382390E-1	3.813646734E-1	3.989415467E-1
1.094976263E0	2.183792144E-1	4.612595141E-1	4.079962969E-1
1.096917845E0	1.672465205E-1	5.320996046E-1	4.154531360E-1
1.098928807E0	1.214401498E-1	6.050702333E-1	4.175836742E-1
1.100306422E0	8.415589482E-2	6.860303283E-1	4.154531360E-1
1.103092917E0	5.273059011E-2	7.749798894E-1	4.085289240E-1
1.104737307E0	2.450108156E-2	8.649947643E-1	3.936152160E-1
1.107141647E0	-7.989482954E-3	9.736517072E-1	3.723099232E-1
1.108469576E0	-4.314320907E-2	1.088167667E0	3.387540877E-1
1.111198801E0	-8.575379103E-2	1.200553060E0	3.014698327E-1
1.112967230E0	-1.241033077E-1	1.304416299E0	2.577939928E-1
1.115262301E0	-1.624528319E-1	1.391235352E0	2.141181529E-1
1.116828499E0	-1.992044598E-1	1.473260760E0	1.677791476E-1
1.119319763E0	-2.386192381E-1	1.578721881E0	1.145159304E-1
1.121236230E0	-2.785666585E-1	1.698031545E0	5.219795927E-2
1.123349378E0	-3.179814517E-1	1.804025412E0	-1.544633508E-2
1.124764499E0	-3.627225459E-1	1.906290770E0	-8.788431436E-2
1.127406070E0	-4.053331316E-1	1.988316059E0	-1.635181010E-1
1.129188691E0	-4.378236830E-1	2.034655094E0	-2.359560728E-1
1.131483994E0	-4.665858448E-1	2.078330994E0	-3.062635362E-1
1.132761037E0	-4.884237647E-1	2.110821486E0	-3.989415467E-1
1.135540801E0	-5.017395616E-1	2.165682554E0	-4.953479767E-1
1.137282884E0	-5.235774517E-1	2.238653183E0	-6.444849968E-1
1.139533037E0	-5.294364095E-1	2.248773336E0	-6.892260909E-1
1.140870460E0	-5.368933082E-1	2.252501726E0	-7.733820081E-1
1.143646224E0	-5.454154015E-1	2.262089014E0	-8.548747301E-1
1.145047768E0	-5.534048676E-1	2.262621641E0	-9.337043166E-1
1.147765609E0	-5.528722405E-1	2.258360624E0	-1.009338021E0
1.149337422E0	-5.432848930E-1	2.246110201E0	-1.082841277E0
1.151857493E0	-5.273059011E-1	2.225337505E0	-1.139300346E0
1.153524345E0	-5.022721887E-1	2.217347860E0	-1.209607840E0
1.155937301E0	-4.836300611E-1	2.220543861E0	-1.255946755E0
1.157235422E0	-4.532700181E-1	2.232261658E0	-1.304416299E0
1.159994916E0	-4.293015897E-1	2.238120556E0	-1.348624825E0
1.161812307E0	-4.032025933E-1	2.217347860E0	-1.379517436E0
1.164026263E0	-3.824299276E-1	2.219478607E0	-1.408279657E0
1.165326614E0	-3.712446690E-1	2.240251064E0	-1.439704895E0
1.168084070E0	-3.659183383E-1	2.258360624E0	-1.466869116E0
1.169719845E0	-3.589941263E-1	2.269546032E0	-1.486043930E0
1.172148378E0	-3.542004228E-1	2.283926964E0	-1.485511303E0
1.173451114E0	-3.488741219E-1	2.322809219E0	-1.480717540E0
1.176206455E0	-3.403519988E-1	2.389920712E0	-1.486576557E0
1.177962883E0	-3.312972486E-1	2.455434561E0	-1.492435455E0
1.180219576E0	-3.206445873E-1	2.514556646E0	-1.485511303E0
1.181567345E0	-3.089267015E-1	2.596582174E0	-1.468999743E0
1.184327647E0	-2.982740402E-1	2.696184397E0	-1.455683827E0
1.185805499E0	-2.806971967E-1	2.767024517E0	-1.445563912E0
1.188375532E0	-2.524676621E-1	2.788329601E0	-1.419997573E0
1.189621307E0	-2.274339646E-1	2.810700178E0	-1.389637470E0
1.192433263E0	-2.061286718E-1	2.835733891E0	-1.359810114E0
1.194058845E0	-1.954760253E-1	2.862898111E0	-1.331047893E0
1.196498032E0	-1.848233789E-1	2.876746655E0	-1.301220536E0
1.197746576E0	-1.810949594E-1	2.895921469E0	-1.276186824E0
1.200555070E0	-1.784317940E-1	2.911900282E0	-1.253283620E0
1.202230883E0	-1.747033745E-1	2.921487808E0	-1.210140467E0
1.204602532E0	-1.757686287E-1	2.915628910E0	-1.196292043E0
1.205804499E0	-1.715075821E-1	2.900715113E0	-1.162736177E0
1.208659916E0	-1.704423130E-1	2.884203434E0	-1.133973956E0
1.210278153E0	-1.645833552E-1	2.862898111E0	-1.102548718E0
1.212691955E0	-1.597896665E-1	2.853843451E0	-1.094559193E0
1.213914383E0	-1.565938741E-1	2.836266518E0	-1.079112887E0
1.216749686E0	-1.464738697E-1	2.825613976E0	-1.078047633E0
1.218468422E0	-1.246359423E-1	2.820820332E0	-1.099885583E0
1.220701614E0	-1.155811921E-1	2.824548721E0	-1.108940244E0
1.222215307E0	-9.640643001E-2	2.839995146E0	-1.137702465E0
1.224869570E0	-5.858954415E-2	2.863963604E0	-1.188302517E0
1.226242653E0	-2.769687586E-2	2.883138180E0	-1.226652026E0
1.228974416E0	1.384843793E-2	2.884203434E0	-1.263403654E0
1.230260999E0	5.432848632E-2	2.885268688E0	-1.308144808E0
1.233066647E0	1.001348570E-1	2.896454096E0	-1.347559571E0
1.234674345E0	1.438107044E-1	2.913498402E0	-1.393898487E0
1.237131839E0	1.848233789E-1	2.936401367E0	-1.436509132E0
1.238348268E0	2.205097377E-1	2.967294216E0	-1.483380795E0
1.241190032E0	2.604571581E-1	3.012567997E0	-1.528654456E0
1.242808614E0	3.020024598E-1	3.061037302E0	-1.571797729E0
1.245221685E0	3.392867148E-1	3.090864897E0	-1.617071390E0
1.246536230E0	3.765709996E-1	3.087136507E0	-1.655953646E0
1.249279339E0	4.154531360E-1	3.036536217E0	-1.675128341E0
1.250915960E0	4.735100567E-1	2.918292046E0	-1.672997832E0
1.253358032E0	5.544701219E-1	2.737196922E0	-1.644235730E0
1.254600806E0	6.679208279E-1	2.461293459E0	-1.564340830E0
1.257415185E0	8.042746782E-1	2.110288858E0	-1.447694421E0
1.259194383E0	9.267801046E-1	1.797633767E0	-1.324656367E0
1.261466570E0	1.037034988E0	1.546231389E0	-1.214401484E0
1.263399345E0	1.134506702E0	1.325188994E0	-1.119592905E0
1.265524108E0	1.236239433E0	1.111070871E0	-1.030110717E0
1.267075383E0	1.338504791E0	9.150621891E-1	-9.528790712E-1
1.269631339E0	1.432780743E0	7.462177277E-1	-8.894958496E-1
1.270868460E0	1.514273405E0	5.869607329E-1	-8.506136537E-1
1.273689608E0	1.587776661E0	4.484763443E-1	-8.293083906E-1
1.275302460E0	1.666073561E0	3.067961633E-1	-8.314388990E-1
1.277768224E0	1.681519985E0	2.860234976E-1	-8.436894417E-1
1.279002230E0	1.702825189E0	2.806971967E-1	-8.649947643E-1
1.281826531E0	1.704423189E0	3.105245829E-1	-8.932242393E-1
1.283466422E0	1.677258849E0	3.973436356E-1	-9.113337398E-1
1.285858378E0	1.637311459E0	4.788363874E-1	-9.076052904E-1
1.287251383E0	1.576058745E0	5.539374948E-1	-8.926916122E-1
1.289916493E0	1.507349253E0	6.263754964E-1	-8.719189763E-1
1.291525768E0	1.434378624E0	6.881608367E-1	-8.500810266E-1
1.293980031E0	1.353418469E0	7.339671850E-1	-8.282431364E-1
1.295234576E0	1.277784705E0	7.813714743E-1	-8.101336360E-1
1.298037493E0	1.205346704E0	8.586031795E-1	-7.946872711E-1
1.299787460E0	1.135039330E0	9.006810784E-1	-7.941546440E-1
1.301985960E0	1.065264463E0	9.001484513E-1	-8.080030680E-1
1.303689345E0	9.960222840E-1	8.655273914E-1	-8.356999755E-1
1.306164301E0	9.251821637E-1	8.101336360E-1	-8.751147389E-1
1.307742499E0	8.617989421E-1	7.376956344E-1	-9.161274433E-1
1.310289608E0	7.946872711E-1	6.673882008E-1	-9.651296139E-1
1.311798230E0	7.302387953E-1	5.832322836E-1	-1.016262293E0
1.314382301E0	6.636597514E-1	5.075985193E-1	-1.070590734E0
1.316021076E0	5.944175720E-1	4.298342168E-1	-1.132376075E0
1.318445493E0	5.177185535E-1	3.499393761E-1	-1.195759296E0
1.319780076E0	4.399542212E-1	2.700445354E-1	-1.267664671E0
1.322502608E0	3.568635881E-1	1.933455020E-1	-1.343298435E0
1.324153499E0	2.263686955E-1	8.681905270E-2	-1.467401743E0
1.326548531E0	1.842907518E-1	5.752427876E-2	-1.511610270E0
1.327924268E0	9.587380290E-2	8.522115648E-3	-1.604820848E0
1.330606608E0	4.793690052E-3	-2.929477207E-2	-1.706021070E0
1.332231383E0	-1.257012039E-1	-5.752427876E-2	-1.858886480E0
1.334671916E0	-1.693770438E-1	-6.231797114E-2	-1.910019159E0
1.336062114E0	-2.519350350E-1	-5.805691332E-2	-2.013882399E0
1.338729262E0	-3.265035450E-1	-3.568635881E-2	-2.113484621E0
1.340514806E0	-4.298342168E-1	1.810949668E-2	-2.251436472E0
1.342745037E0	-4.607268870E-1	3.462109342E-2	-2.291916370E0
1.344311037E0	-5.241101384E-1	6.551376730E-2	-2.373409271E0
1.346847147E0	-6.061354876E-1	1.033306494E-1	-2.484729290E0
1.348489076E0	-6.679208279E-1	1.225054115E-1	-2.548645258E0
1.350873377E0	-7.302387953E-1	1.411475390E-1	-2.608299971E0
1.352259114E0	-7.984157205E-1	1.736381054E-1	-2.659432650E0
1.354931377E0	-8.825715780E-1	2.290318608E-1	-2.710565329E0
1.356591999E0	-9.816411734E-1	3.014698327E-1	-2.761165380E0
1.358962800E0	-1.087102413E0	3.904194236E-1	-2.815494061E0
1.360259691E0	-1.200553060E0	4.942827225E-1	-2.877811909E0
1.363021570E0	-1.319862604E0	6.013417840E-1	-2.938532114E0
1.364732883E0	-1.432248116E0	7.115966678E-1	-3.003513098E0
1.367053608E0	-1.536643982E0	8.191883564E-1	-3.061037302E0
1.368384729E0	-1.626126170E0	9.118663669E-1	-3.103647947E0
1.371111800E0	-1.700162053E0	9.869675040E-1	-3.135073185E0
1.372745960E0	-1.753425241E0	1.039165497E0	-3.151584864E0
1.375192031E0	-1.796568513E0	1.073786616E0	-3.154780626E0
1.376588922E0	-1.827993751E0	1.092428684E0	-3.147856474E0
1.379250454E0	-1.850896955E0	1.091896057E0	-3.124953270E0
1.380982422E0	-1.866876006E0	1.081243396E0	-3.087669134E0
1.383227922E0	-1.881789684E0	1.062068701E0	-3.032275200E0
1.384645383E0	-1.895105481E0	1.029578090E0	-2.963565826E0
1.387359146E0	-1.908953905E0	9.832391143E-1	-2.878877163E0
1.388835345E0	-1.925465465E0	9.225190282E-1	-2.792058229E0
1.391479146E0	-1.938248634E0	8.325041533E-1	-2.691390753E0
1.392782383E0	-1.950499177E0	7.419567108E-1	-2.593386412E0
1.395571762E0	-1.962749720E0	6.540724039E-1	-2.493251562E0
1.397767806E0	-1.984055042E0	5.443501472E-1	-2.339320660E0
1.399606108E0	-1.988316059E0	5.091964006E-1	-2.292448997E0
1.400886999E0	-1.993642449E0	4.420847595E-1	-2.198173285E0
1.403664223E0	-1.992577195E0	3.925499618E-1	-2.119343519E0
1.405603614E0	-1.993642449E0	3.446130455E-1	-2.015480280E0
1.407695723E0	-1.992577195E0	3.291667104E-1	-1.985120296E0
1.409043306E0	-1.985120296E0	2.956108749E-1	-1.930791855E0
1.411752954E0	-1.969673991E0	2.620550692E-1	-1.879126549E0
1.413381922E0	-1.948901296E0	2.045307755E-1	-1.821069598E0
1.415816839E0	-1.940379262E0	1.816275865E-1	-1.806688547E0
1.417087576E0	-1.923334956E0	1.374191195E-1	-1.786448479E0
1.419874877E0	-1.903095007E0	7.350324839E-2	-1.765675783E0
1.421716845E0	-1.883920193E0	3.888215125E-2	-1.749164224E0
1.423871422E0	-1.868473887E0	1.225054078E-2	-1.732120037E0
1.425232883E0	-1.847168565E0	-4.793690052E-3	-1.714543104E0
1.427998339E0	-1.825330615E0	-1.651159860E-2	-1.703890443E0
1.429749653E0	-1.803492665E0	-2.343581803E-2	-1.707618952E0
1.432074108E0	-1.776328444E0	-3.568635881E-2	-1.716673613E0
1.433428422E0	-1.748098969E0	-6.391586363E-2	-1.742240071E0
1.436132685E0	-1.719869494E0	-1.043959185E-1	-1.776328444E0
1.437821614E0	-1.703357816E0	-1.464738697E-1	-1.826395869E0
1.440197185E0	-1.699096799E0	-1.773665249E-1	-1.884452820E0
1.441464229E0	-1.702292562E0	-1.928128600E-1	-1.956890821E0
1.444255992E0	-1.719336867E0	-1.837581247E-1	-2.042644501E0
1.445890153E0	-1.737978935E0	-1.496696621E-1	-2.139583588E0
1.448303146E0	-1.753425241E0	-9.960222989E-2	-2.240783691E0
1.449602960E0	-1.766208410E0	-1.917476021E-2	-2.340385914E0
1.452360992E0	-1.774197936E0	7.350324839E-2	-2.439455509E0
1.454091153E0	-1.774197936E0	1.544633508E-1	-2.546514750E0
1.456424877E0	-1.773665309E0	2.199771106E-1	-2.649845362E0
1.457738229E0	-1.767806411E0	2.668487430E-1	-2.754773855E0
1.460482492E0	-1.757686377E0	3.094593287E-1	-2.869822502E0
1.462219229E0	-1.734250546E0	3.818973005E-1	-3.038134336E0
1.464498729E0	-1.725195765E0	4.063983858E-1	-3.096723795E0
1.465831576E0	-1.707086325E0	4.628573954E-1	-3.209641695E0
1.468600761E0	-1.687911510E0	5.251753926E-1	-3.326288223E0
1.470018999E0	-1.661812544E0	5.848301649E-1	-3.442402124E0
1.472699646E0	-1.637844086E0	6.423544884E-1	-3.565972805E0
1.474199499E0	-1.609081984E0	7.099987864E-1	-3.681021214E0
1.476792608E0	-1.580852509E0	7.787083387E-1	-3.786482573E0
1.478463268E0	-1.544633508E0	8.761799932E-1	-3.913249016E0
1.480857684E0	-1.522262931E0	9.443569183E-1	-3.981426001E0
1.482136383E0	-1.496696591E0	1.016794920E0	-4.034688950E0
1.484915031E0	-1.463140726E0	1.089765549E0	-4.086354256E0
1.486712114E0	-1.426389098E0	1.145159245E0	-4.124703884E0
1.488947300E0	-1.385909081E0	1.196824670E0	-4.153466225E0
1.490356460E0	-1.353951097E0	1.243163586E0	-4.174238682E0
1.493005608E0	-1.321460605E0	1.282578349E0	-4.182228088E0
1.494659922E0	-1.294296265E0	1.321993232E0	-4.191815853E0
1.497084300E0	-1.273523688E0	1.375789046E0	-4.206196785E0
1.498696037E0	-1.260207891E0	1.420530200E0	-4.221110344E0
1.501141723E0	-1.252218366E0	1.461010218E0	-4.247742176E0
1.502925306E0	-1.251153111E0	1.487109184E0	-4.283428192E0
1.505123768E0	-1.252750993E0	1.497761846E0	-4.324973583E0
1.506772383E0	-1.260207891E0	1.496163964E0	-4.374508381E0
1.509249107E0	-1.271393180E0	1.487641811E0	-4.425108433E0
1.510865345E0	-1.276719451E0	1.470064998E0	-4.483697891E0
1.513324069E0	-1.280980468E0	1.441835403E0	-4.541755199E0
1.514581614E0	-1.288437366E0	1.397094369E0	-4.598214149E0
1.517381184E0	-1.303883672E0	1.334243774E0	-4.647748947E0
1.519033268E0	-1.313471079E0	1.282578349E0	-4.688761711E0
1.521459684E0	-1.319329977E0	1.229847789E0	-4.722317219E0
1.522724306E0	-1.331047893E0	1.178715110E0	-4.747351170E0
1.525517838E0	-1.345961690E0	1.144626617E0	-4.762264729E0
1.527150960E0	-1.367799520E0	1.084971905E0	-4.753742695E0
1.529582492E0	-1.376321673E0	1.058872819E0	-4.745753288E0
1.530814922E0	-1.392833233E0	1.006674886E0	-4.718056202E0
1.533640338E0	-1.405083776E0	9.560748339E-1	-4.675978184E0
1.535346191E0	-1.424791217E0	8.751147389E-1	-4.596616268E0
1.537705261E0	-1.429584861E0	8.586031795E-1	-4.563592911E0
1.539010229E0	-1.446629167E0	8.175904751E-1	-4.492753029E0
1.541763646E0	-1.466869116E0	7.914915085E-1	-4.404868603E0
1.544081999E0	-1.503620744E0	8.037420511E-1	-4.234426022E0
1.545743306E0	-1.515338659E0	8.207862377E-1	-4.152933598E0
1.547114268E0	-1.533448219E0	8.506136537E-1	-3.947870016E0
1.549845223E0	-1.538241863E0	8.831042051E-1	-3.613909721E0
1.551222191E0	-1.525991321E0	8.639294505E-1	-3.362507343E0
1.553964530E0	-1.500957608E0	8.096010089E-1	-3.069559574E0
1.555251729E0	-1.463140726E0	7.249124646E-1	-2.744121313E0
1.558056684E0	-1.415736437E0	6.056028605E-1	-2.395779848E0
1.559772191E0	-1.358212233E0	4.335626364E-1	-2.034122467E0
1.562119415E0	-1.277784705E0	2.173139453E-1	-1.660747290E0
1.563492037E0	-1.179780364E0	-2.183792181E-2	-1.292698383E0
1.566176569E0	-1.061536074E0	-2.599245310E-1	-9.225190282E-1
1.567786422E0	-9.294432402E-1	-4.958806038E-1	-5.470132828E-1
1.570222607E0	-7.824367285E-1	-7.217166424E-1	-1.656486243E-1
1.571645575E0	-6.221144199E-1	-9.422264099E-1	2.045307755E-1
1.574278992E0	-4.308994710E-1	-1.202683568E0	5.347627401E-1
1.575922075E0	-1.949433982E-1	-1.520665050E0	8.149272799E-1
1.578342607E0	4.846953228E-2	-1.847701192E0	1.057274938E0
1.579642345E0	2.913498282E-1	-2.163552046E0	1.253283620E0
1.582399261E0	5.182511806E-1	-2.439455509E0	1.411475420E0
1.584217691E0	8.255799413E-1	-2.762763262E0	1.576058745E0
1.586348575E0	9.214537740E-1	-2.853843451E0	1.617071390E0
1.587952999E0	1.104679227E0	-3.008306742E0	1.668204188E0
1.590514684E0	1.276186824E0	-3.127616405E0	1.690042019E0
1.592030114E0	1.437041759E0	-3.203782797E0	1.687378883E0
1.594566184E0	1.584048271E0	-3.231479645E0	1.669269443E0
1.595815499E0	1.723597884E0	-3.219229221E0	1.628789306E0
1.598623646E0	1.850896955E0	-3.187803984E0	1.554220796E0
1.600418806E0	2.038383484E0	-3.127083778E0	1.402420640E0
1.602688107E0	2.093244553E0	-3.102050066E0	1.346494317E0
1.603930652E0	2.200836420E0	-3.042927980E0	1.231978297E0
1.606745299E0	2.294047117E0	-2.965163708E0	1.109472990E0
1.608360883E0	2.415487051E0	-2.835201263E0	9.006810784E-1
1.610777376E0	2.450108290E0	-2.792590857E0	8.234494328E-1
1.612051306E0	2.510828257E0	-2.707369566E0	6.647250056E-1
1.614834953E0	2.580603123E0	-2.568352699E0	4.048005044E-1
1.616500575E0	2.611495733E0	-2.468750477E0	2.189118415E-1
1.618913646E0	2.621615887E0	-2.362756491E0	1.278317347E-2
1.620199460E0	2.611495733E0	-2.231729031E0	-1.981391907E-1
1.622971645E0	2.563558817E0	-2.062351942E0	-4.048005044E-1
1.624748306E0	2.491120815E0	-1.865278006E0	-6.061354876E-1
1.626927845E0	2.385127068E0	-1.646366239E0	-7.973504663E-1
1.628279152E0	2.244512320E0	-1.418932199E0	-9.869675040E-1
1.631080876E0	2.075135231E0	-1.194161415E0	-1.162203550E0
1.632506729E0	1.890844464E0	-9.672601223E-1	-1.325188994E0
1.635202992E0	1.698031545E0	-7.291735411E-1	-1.474858642E0
1.636509999E0	1.499892354E0	-4.974785149E-1	-1.613343000E0
1.639295453E0	1.299622655E0	-2.705771625E-1	-1.744370580E0
1.640949460E0	1.089765549E0	-5.912217870E-2	-1.863680124E0
1.643373607E0	8.825715780E-1	1.454086006E-1	-1.977130890E0
1.644638037E0	6.817692518E-1	3.392867148E-1	-2.084722519E0
1.647431492E0	4.873584807E-1	4.964132309E-1	-2.191248894E0
1.649050075E0	3.041329980E-1	6.173207760E-1	-2.290851116E0
1.651463453E0	1.331580579E-1	6.897587180E-1	-2.381931305E0
1.652716499E0	-2.450108156E-2	7.339671850E-1	-2.469815731E0
1.655521338E0	-1.672465205E-1	7.456851006E-1	-2.551841021E0
1.657149499E0	-3.478088379E-1	7.089334726E-1	-2.655171633E0
1.659584915E0	-4.016047120E-1	6.817692518E-1	-2.688194752E0
1.661032652E0	-4.942827225E-1	5.992112756E-1	-2.748914957E0
1.663642222E0	-5.757754445E-1	4.846953154E-1	-2.801112890E0
1.665364075E0	-6.695187092E-1	2.620550692E-1	-2.884203434E0
1.667705684E0	-6.972155571E-1	1.709749401E-1	-2.914563656E0
1.669035691E0	-7.435545921E-1	-1.491370238E-2	-2.984870911E0
1.671763030E0	-7.845672965E-1	-2.194444835E-1	-3.071690083E0
1.673315922E0	-8.319715261E-1	-5.539374948E-1	-3.184607983E0
1.675810761E0	-8.442220688E-1	-7.797735929E-1	-3.262905121E0
1.677073037E0	-8.490157723E-1	-8.974853158E-1	-3.303385019E0
1.679867838E0	-8.378304839E-1	-1.231445670E0	-3.438141108E0
1.681500306E0	-8.154599667E-1	-1.465271235E0	-3.549461126E0
1.683932261E0	-7.787083387E-1	-1.690574646E0	-3.669303417E0
1.685153960E0	-7.344998717E-1	-1.897235990E0	-3.801928759E0
1.687989876E0	-6.860303283E-1	-2.077798367E0	-3.934021711E0
1.689688652E0	-6.380934119E-1	-2.245044947E0	-4.068244934E0
1.692036453E0	-5.869607329E-1	-2.377670288E0	-4.192348480E0
1.693379998E0	-5.379585624E-1	-2.486327171E0	-4.312723160E0
1.696094068E0	-4.937500656E-1	-2.586462021E0	-4.417119026E0
1.697707652E0	-4.468784332E-1	-2.708434820E0	-4.509264469E0
1.700157338E0	-3.930825889E-1	-2.829874992E0	-4.584365368E0
1.701451575E0	-3.371562064E-1	-2.936401367E0	-4.642955303E0
1.704215068E0	-2.796319127E-1	-3.031742573E0	-4.693022728E0
1.705997806E0	-2.199771106E-1	-3.121757507E0	-4.735633373E0
1.708189037E0	-1.645833552E-1	-3.210174322E0	-4.769721508E0
1.709654229E0	-1.075917110E-1	-3.299124002E0	-4.791027069E0
1.712332030E0	-5.858954415E-2	-3.388606310E0	-4.808603764E0
1.713838575E0	-1.597896591E-2	-3.480751514E0	-4.813397408E0
1.716432030E0	3.089267015E-2	-3.567570686E0	-4.805408001E0
1.717812422E0	7.829693705E-2	-3.638943434E0	-4.790494442E0
1.720525222E0	1.209075153E-1	-3.695935011E0	-4.759068966E0
1.722215229E0	1.816275865E-1	-3.765709877E0	-4.699414253E0
1.724587376E0	1.986718178E-1	-3.785949945E0	-4.680239201E0
1.725874537E0	2.348908186E-1	-3.807255268E0	-4.623247623E0
1.728645260E0	2.689792812E-1	-3.809918404E0	-4.564125538E0
1.730251922E0	3.243730366E-1	-3.787015200E0	-4.450675011E0
1.732676299E0	3.387540877E-1	-3.769438267E0	-4.410194874E0
1.733891268E0	3.802994192E-1	-3.722033978E0	-4.315918922E0
1.736734491E0	4.229099751E-1	-3.654922247E0	-4.205664158E0
1.738321922E0	5.012069345E-1	-3.518568516E0	-4.024569035E0
1.740814184E0	5.576659441E-1	-3.408313513E0	-3.895139456E0
1.742048922E0	6.045376062E-1	-3.305515528E0	-3.753991842E0
1.744872068E0	6.482134461E-1	-3.205380678E0	-3.609116077E0
1.746650768E0	6.897587180E-1	-3.093528032E0	-3.458913803E0
1.748805075E0	7.339671850E-1	-2.969424725E0	-3.304982901E0
1.750327345E0	7.771103978E-1	-2.828277111E0	-3.150519609E0
1.752979530E0	8.207862377E-1	-2.674879074E0	-2.992327929E0
1.754419768E0	8.633968234E-1	-2.512426138E0	-2.821352959E0
1.757073799E0	9.033442736E-1	-2.338255405E0	-2.656769514E0
1.758346691E0	9.454222322E-1	-2.156627893E0	-2.488990307E0
1.761131337E0	9.832391143E-1	-1.967543483E0	-2.314819574E0
1.762887806E0	1.016794920E0	-1.770469546E0	-2.136387825E0
1.765211837E0	1.050883412E0	-1.563808203E0	-1.957956076E0
1.766454037E0	1.086037159E0	-1.352885842E0	-1.775263190E0
1.769268876E0	1.112136126E0	-1.138235092E0	-1.590439796E0
1.770854114E0	1.135571957E0	-9.166600704E-1	-1.398692250E0
1.773300299E0	1.156344533E0	-6.913566589E-1	-1.208009839E0
1.774512614E0	1.169127703E0	-4.617921412E-1	-1.016262293E0
1.777356953E0	1.173388839E0	-2.322276533E-1	-8.170578480E-1
1.778936998E0	1.172856212E0	-2.130528912E-3	-6.194512844E-1
1.781421491E0	1.163268805E0	2.242381722E-1	-4.181163013E-1
1.782687037E0	1.142496109E0	4.490089715E-1	-2.077265680E-1
1.785479068E0	1.114799261E0	6.732471585E-1	-1.065264456E-3
1.787217575E0	1.057807565E0	9.960222840E-1	3.126551211E-1
1.789374768E0	1.035437107E0	1.100950837E0	4.159857631E-1
1.790761806E0	9.864348769E-1	1.302285790E0	6.247776151E-1
1.793602606E0	9.310411215E-1	1.494033456E0	8.346347213E-1
1.794897768E0	8.719189763E-1	1.670867324E0	1.041828632E0
1.797721683E0	8.042746782E-1	1.837581158E0	1.248489976E0
1.798980537E0	7.323693037E-1	1.983522415E0	1.449292302E0
1.801814068E0	6.135923266E-1	2.173139572E0	1.741174698E0
1.803420421E0	5.262406468E-1	2.261023760E0	1.922802329E0
1.805877722E0	4.239752591E-1	2.318015575E0	2.054895163E0
1.807114114E0	3.238403797E-1	2.336657524E0	2.178465843E0
1.809934760E0	2.178465873E-1	2.332929134E0	2.286590099E0
1.811725152E0	1.230380461E-1	2.311623812E0	2.388322830E0
1.813980799E0	2.290318534E-2	2.262621641E0	2.467152596E0
1.815214383E0	-6.444849819E-2	2.178465843E0	2.515089273E0
1.818038068E0	-1.587243974E-1	2.060754061E0	2.530535698E0
1.819764768E0	-2.471413612E-1	1.916943431E0	2.525742054E0
1.822101529E0	-3.302319944E-1	1.753425241E0	2.489522934E0
1.823335575E0	-4.058657587E-1	1.567536592E0	2.426139832E0
1.826158375E0	-4.772384763E-1	1.370995402E0	2.338788033E0
1.827951152E0	-5.416869521E-1	1.159007788E0	2.228533268E0
1.830218529E0	-6.066681147E-1	9.337043166E-1	2.096973181E0
1.831491921E0	-6.604639888E-1	7.030745149E-1	1.948901296E0
1.834274568E0	-7.142598033E-1	4.713795185E-1	1.781654835E0
1.835781498E0	-7.600662112E-1	2.428802997E-1	1.610679865E0
1.838343645E0	-8.000136018E-1	1.331580617E-2	1.434378624E0
1.839633806E0	-8.399610519E-1	-2.135855258E-1	1.269262552E0
1.842400606E0	-8.761799932E-1	-4.372910559E-1	1.116397142E0
1.844045729E0	-9.113337398E-1	-6.631271243E-1	9.795106649E-1
1.846463914E0	-9.475527406E-1	-8.825715780E-1	8.623315692E-1
1.847684537E0	-9.837717414E-1	-1.090298176E0	7.558051348E-1
1.850520298E0	-1.015197039E0	-1.283643723E0	6.641923785E-1
1.852140075E0	-1.058872819E0	-1.539839745E0	5.406216979E-1
1.854584491E0	-1.071655989E0	-1.617071390E0	5.038700700E-1
1.855814075E0	-1.097755075E0	-1.760349512E0	4.079962969E-1
1.858640106E0	-1.121190786E0	-1.886050701E0	3.153182864E-1
1.860248498E0	-1.144093990E0	-2.039981365E0	1.864212751E-1
1.862716375E0	-1.151018262E0	-2.079396248E0	1.427454352E-1
1.863938498E0	-1.159007788E0	-2.154497385E0	6.977482140E-2
1.866772760E0	-1.167529821E0	-2.199238539E0	-5.326322280E-4
1.868495191E0	-1.162736177E0	-2.191248894E0	-8.042746782E-2
1.870672806E0	-1.168595076E0	-2.192846775E0	-1.155811921E-1
1.872091575E0	-1.177649856E0	-2.250371218E0	-1.454086006E-1
1.874879414E0	-1.178182483E0	-2.305232286E0	-1.629854590E-1
1.876160114E0	-1.176051974E0	-2.331863880E0	-1.693770438E-1
1.878998221E0	-1.162203550E0	-2.340385914E0	-1.640507281E-1
1.880257345E0	-1.140365601E0	-2.336124897E0	-1.518001854E-1
1.883090414E0	-1.116929770E0	-2.323874474E0	-1.278317273E-1
1.884695729E0	-1.084971905E0	-2.303634405E0	-9.853696078E-2
1.887168298E0	-1.046089649E0	-2.272741795E0	-6.391586363E-2
1.888379114E0	-9.970875382E-1	-2.228533268E0	-2.343581803E-2
1.891225337E0	-9.459548593E-1	-2.167813063E0	1.331580617E-2
1.892814537E0	-8.841695189E-1	-2.093244553E0	5.486112088E-2
1.895289414E0	-8.202536106E-1	-2.000034094E0	9.267801046E-2
1.896495844E0	-7.536746264E-1	-1.898301244E0	1.294296384E-1
1.899346644E0	-6.865629554E-1	-1.783252716E0	1.619201899E-1
1.900926998E0	-6.157228351E-1	-1.658084154E0	1.933455020E-1
1.903409721E0	-5.512743592E-1	-1.522795558E0	2.221076339E-1
1.904609691E0	-4.814995229E-1	-1.377919555E0	2.466087192E-1
1.907466106E0	-4.202468395E-1	-1.233043551E0	2.668487430E-1
1.909259575E0	-3.350256681E-1	-1.007207513E0	2.870887816E-1
1.911443960E0	-3.137203753E-1	-9.358348250E-1	2.929477394E-1
1.912938960E0	-2.716424465E-1	-8.053399324E-1	2.972087860E-1
1.915587721E0	-2.386192381E-1	-6.876282096E-1	3.057309091E-1
1.916923575E0	-2.183792144E-1	-5.848301649E-1	3.137203753E-1
1.919712452E0	-2.061286718E-1	-4.948153496E-1	3.243730366E-1
1.920949268E0	-1.981391907E-1	-4.143878818E-1	3.350256681E-1
1.923805106E0	-2.018676102E-1	-3.185140789E-1	3.451456726E-1
1.925395691E0	-2.098570913E-1	-2.679139972E-1	3.504720032E-1
1.927869183E0	-2.119876295E-1	-2.215750068E-1	3.563309610E-1
1.929080114E0	-2.130528986E-1	-1.693770438E-1	3.621899188E-1
1.931926875E0	-2.130528986E-1	-1.171790883E-1	3.728425503E-1
1.933527152E0	-2.018676102E-1	-5.858954415E-2	3.797667921E-1
1.935973644E0	-1.842907518E-1	3.728425596E-3	3.888215125E-1
1.937175806E0	-1.651159972E-1	6.977482140E-2	4.016047120E-1
1.940031144E0	-1.416801661E-1	1.395496428E-1	4.090615511E-1
1.941616844E0	-1.166464612E-1	2.050634027E-1	4.117247164E-1
1.944094414E0	-8.415589482E-2	2.684466541E-1	4.159857631E-1
1.945292037E0	-4.900216311E-2	3.296993375E-1	4.154531360E-1
1.948151375E0	-1.118527725E-2	3.856257200E-1	4.127899706E-1
1.949863383E0	3.462109342E-2	4.372910559E-1	4.106594622E-1
1.952074114E0	7.616640627E-2	4.814995229E-1	4.048005044E-1
1.953455114E0	1.203748807E-1	5.145227313E-1	3.957457542E-1
1.956267529E0	1.667138934E-1	5.411543250E-1	3.856257200E-1
1.957591960E0	2.055960447E-1	5.550028086E-1	3.733751774E-1
1.960365413E0	2.476739883E-1	5.571333170E-1	3.547330499E-1
1.961649691E0	2.844256163E-1	5.512743592E-1	3.360909224E-1
1.964457952E0	3.222424984E-1	5.352953672E-1	3.153182864E-1
1.966037268E0	3.707120419E-1	4.964132309E-1	2.849582434E-1
1.968488913E0	3.840278387E-1	4.788363874E-1	2.743056118E-1
1.969701998E0	4.095941782E-1	4.266384244E-1	2.556634545E-1
1.972546106E0	4.319647253E-1	3.680488765E-1	2.396845073E-1
1.974115114E0	4.612595141E-1	2.631203234E-1	2.205097377E-1
1.976576952E0	4.703142643E-1	2.263686955E-1	2.135855258E-1
1.977775191E0	4.878911078E-1	1.448759735E-1	2.018676102E-1
1.980633144E0	5.006743073E-1	6.338323653E-2	1.864212751E-1
1.982238268E0	5.113269091E-1	-7.243798673E-2	1.683117896E-1
1.984710413E0	5.134574771E-1	-1.177117229E-1	1.635181010E-1
1.985950421E0	5.177185535E-1	-2.034655064E-1	1.502022892E-1
1.988766298E0	5.145227313E-1	-2.908172011E-1	1.384843737E-1
1.990465498E0	5.091964006E-1	-4.122573435E-1	1.214401498E-1
1.992815490E0	5.006743073E-1	-4.809668958E-1	1.134506613E-1
1.994017537E0	4.937500656E-1	-5.384911895E-1	1.081243455E-1
1.996872990E0	4.820321798E-1	-5.858954787E-1	1.043959185E-1
1.998232575E0	4.703142643E-1	-6.194512844E-1	1.049285457E-1
2.000976683E0	4.596616030E-1	-6.396912932E-1	1.070590764E-1
2.002224883E0	4.436826408E-1	-6.466155052E-1	1.097222418E-1
2.005068913E0	4.293015897E-1	-6.380934119E-1	1.134506613E-1
2.006653575E0	4.122573435E-1	-6.231797338E-1	1.209075153E-1
2.009146721E0	3.978762627E-1	-5.976133347E-1	1.310275346E-1
2.010350652E0	3.744404614E-1	-5.656554103E-1	1.438107044E-1
2.013203067E0	3.504720032E-1	-5.273059011E-1	1.523328125E-1
2.014768691E0	3.233077526E-1	-4.841626883E-1	1.629854590E-1
2.017234490E0	2.961435318E-1	-4.330300093E-1	1.757686287E-1
2.018433383E0	2.679139972E-1	-3.797667921E-1	1.837581247E-1
2.021291182E0	2.380866110E-1	-3.254382908E-1	1.922802329E-1
2.022892998E0	2.066612989E-1	-2.679139972E-1	1.965412945E-1
2.025355798E0	1.789644361E-1	-2.066612989E-1	2.013349831E-1
2.026638767E0	1.507349163E-1	-1.390170157E-1	2.045307755E-1
2.029413529E0	1.336906850E-1	-6.018744037E-2	1.992044598E-1
2.031165960E0	1.091896072E-1	7.563377917E-2	1.880191714E-1
2.033356883E0	1.012001261E-1	1.235706806E-1	1.848233789E-1
2.034744729E0	9.161274135E-2	2.215750068E-1	1.720402092E-1
2.037536298E0	8.309062570E-2	3.163835406E-1	1.613875628E-1
2.038826921E0	7.989483327E-2	4.165183902E-1	1.464738697E-1
2.041627952E0	7.723167539E-2	5.145227313E-1	1.320927888E-1
2.042994460E0	7.510114461E-2	6.093312502E-1	1.171790883E-1
2.045720221E0	7.563377917E-2	6.966829300E-1	1.017327532E-1
2.047321729E0	7.510114461E-2	8.101336360E-1	7.776430249E-2
2.049783298E0	7.882957160E-2	8.735168576E-1	6.657902896E-2
2.051040883E0	7.989483327E-2	9.257147908E-1	5.326322466E-2
2.053841259E0	8.042746782E-2	9.656622410E-1	4.367584363E-2
2.055423229E0	7.776430249E-2	9.880327582E-1	3.675162420E-2
2.057887490E0	7.510114461E-2	9.986854196E-1	3.195793182E-2
2.059148960E0	7.084008306E-2	9.997506738E-1	2.663161233E-2
2.061945298E0	6.498113275E-2	9.800432920E-1	2.609897964E-2
2.063660498E0	5.645901710E-2	9.560748339E-1	2.716424316E-2
2.066009605E0	4.846953228E-2	9.171926975E-1	3.302319720E-2
2.067260498E0	3.728425503E-2	8.676578999E-1	4.474110901E-2
2.070066336E0	2.663161233E-2	8.080030680E-1	5.486112088E-2
2.071867114E0	1.544633508E-2	7.467503548E-1	6.657902896E-2
2.074010421E0	2.130528912E-3	6.759102941E-1	8.841694891E-2
2.075407998E0	-6.924218964E-3	6.029396653E-1	1.123853996E-1
2.078182413E0	-2.077265643E-2	5.305017233E-1	1.416801661E-1
2.079681152E0	-2.876213938E-2	4.559331834E-1	1.731054783E-1
2.082229375E0	-3.728425503E-2	3.840278387E-1	2.167813182E-1
2.083474421E0	-4.101268202E-2	3.227751255E-1	2.609897852E-1
2.086286874E0	-5.006742850E-2	2.577939928E-1	2.998719513E-1
2.087892537E0	-6.285060197E-2	1.794970632E-1	3.382214606E-1
2.090350759E0	-7.510114461E-2	9.267801046E-2	3.685815036E-1
2.091729075E0	-9.214537591E-2	2.130528912E-3	3.941478431E-1
2.094408221E0	-1.081243455E-1	-8.468852192E-2	4.149205089E-1
2.096004960E0	-1.203748807E-1	-1.544633508E-1	4.340952635E-1
2.098438951E0	-1.251685768E-1	-2.061286718E-1	4.458131790E-1
2.099731075E0	-1.257012039E-1	-2.492718846E-1	4.548679292E-1
2.102495451E0	-1.288969964E-1	-2.806971967E-1	4.617921412E-1
2.104113691E0	-1.219727769E-1	-3.051982522E-1	4.665858448E-1
2.106574067E0	-1.187769845E-1	-3.099919558E-1	4.623247683E-1
2.107826037E0	-1.113201380E-1	-3.121224940E-1	4.580637217E-1
2.110630605E0	-1.001348570E-1	-3.057309091E-1	4.495415986E-1
2.112324152E0	-7.989483327E-2	-2.822950780E-1	4.277036786E-1
2.114601344E0	-7.510114461E-2	-2.721750736E-1	4.197141826E-1
2.115929614E0	-5.912217870E-2	-2.428802997E-1	3.978762627E-1
2.118736874E0	-4.367584363E-2	-2.114549875E-1	3.771036267E-1
2.120147806E0	-1.704423130E-2	-1.459412277E-1	3.366235793E-1
2.122829605E0	5.326322280E-3	-8.948221803E-2	3.036003709E-1
2.124099537E0	2.982740477E-2	-2.929477207E-2	2.743056118E-1
2.126922105E0	5.752427876E-2	4.420847446E-2	2.370213419E-1
2.128525075E0	8.362326026E-2	1.155811921E-1	2.002697140E-1
2.130999990E0	1.187769845E-1	2.013349831E-1	1.603222936E-1
2.132248960E0	1.619201899E-1	3.062635362E-1	1.161138266E-1
2.135057605E0	2.119876295E-1	4.122573435E-1	6.764429063E-2
2.136703460E0	2.604571581E-1	5.246427655E-1	1.810949668E-2
2.139089413E0	3.158509135E-1	6.322344542E-1	-3.888215125E-2
2.140320614E0	3.643204570E-1	7.291735411E-1	-9.374327213E-2
2.143146836E0	4.090615511E-1	8.101336360E-1	-1.502022892E-1
2.144761229E0	4.468784332E-1	8.756473660E-1	-2.050634027E-1
2.147211567E0	4.793690145E-1	9.235842824E-1	-2.577939928E-1
2.148477844E0	5.060006380E-1	9.661948681E-1	-3.057309091E-1
2.151268490E0	5.320996046E-1	9.965549111E-1	-3.520699143E-1
2.153340152E0	5.523396134E-1	1.016262293E0	-3.866910040E-1
2.155333182E0	5.709817410E-1	1.034904361E0	-4.122573435E-1
2.156608844E0	5.826996565E-1	1.048752904E0	-4.298342168E-1
2.159390067E0	5.896238685E-1	1.056209683E0	-4.330300093E-1
2.160878844E0	5.933523178E-1	1.059405446E0	-4.261057973E-1
2.163437682E0	5.922870636E-1	1.056209683E0	-4.095941782E-1
2.164649152E0	5.842975378E-1	1.046089649E0	-3.834952116E-1
2.167494874E0	5.720469952E-1	1.027980208E0	-3.488741219E-1
2.169077767E0	5.475459099E-1	9.965549111E-1	-2.844256163E-1
2.171558759E0	5.368933082E-1	9.805759192E-1	-2.620550692E-1
2.172843190E0	5.193164349E-1	9.491506219E-1	-2.146507949E-1
2.175616259E0	4.921521842E-1	9.155948162E-1	-1.629854590E-1
2.177360037E0	4.506068528E-1	8.511462808E-1	-8.255799860E-2
2.179697182E0	4.335626364E-1	8.245146871E-1	-5.486112088E-2
2.180922460E0	4.026699662E-1	7.765777707E-1	1.597896684E-3
2.183754066E0	3.542004228E-1	6.982808709E-1	8.149272949E-2
2.185443344E0	3.265035450E-1	6.476807594E-1	1.283643693E-1
2.187816874E0	3.025351167E-1	6.072007418E-1	1.784317940E-1
2.189076575E0	2.860234976E-1	5.848301649E-1	2.157160491E-1
2.191873682E0	2.817624509E-1	5.773733258E-1	2.567287385E-1
2.193651075E0	2.812298238E-1	5.880259871E-1	2.876214087E-1
2.195843267E0	2.918824553E-1	6.056028605E-1	3.179814517E-1
2.197338383E0	3.020024598E-1	6.290386319E-1	3.382214606E-1
2.199991836E0	3.158509135E-1	6.556702852E-1	3.547330499E-1
2.201256998E0	3.328951299E-1	6.775081754E-1	3.664509654E-1
2.204086989E0	3.483414650E-1	6.945524216E-1	3.717772961E-1
2.205428806E0	3.589941263E-1	7.046724558E-1	3.739078343E-1
2.208177720E0	3.685815036E-1	7.041398287E-1	3.723099232E-1
2.209845229E0	3.787015080E-1	6.982808709E-1	3.664509654E-1
2.212240297E0	3.861583769E-1	6.828345060E-1	3.579288721E-1
2.213459460E0	3.909520507E-1	6.609966159E-1	3.488741219E-1
2.216296682E0	3.898867965E-1	6.263754964E-1	3.360909224E-1
2.217943883E0	3.898867965E-1	5.853627920E-1	3.233077526E-1
2.220328566E0	3.818973005E-1	5.347627401E-1	3.115898669E-1
2.221585767E0	3.749730885E-1	4.735100567E-1	2.961435318E-1
2.224385797E0	3.589941263E-1	3.957457542E-1	2.833603323E-1
2.226126537E0	3.403519988E-1	3.014698327E-1	2.663161159E-1
2.228463720E0	3.147856593E-1	1.944107562E-1	2.487392575E-1
2.229901690E0	2.876214087E-1	7.936219871E-2	2.311623842E-1
2.232521143E0	2.545982003E-1	-4.261057824E-2	2.135855258E-1
2.234258190E0	2.013349831E-1	-2.375539690E-1	1.922802329E-1
2.236445921E0	1.821602285E-1	-3.030677438E-1	1.837581247E-1
2.237806152E0	1.475391239E-1	-4.308994710E-1	1.704423130E-1
2.240627797E0	1.113201380E-1	-5.597964525E-1	1.619201899E-1
2.242126921E0	5.699164793E-2	-7.568703890E-1	1.603222936E-1
2.244675028E0	3.568635881E-2	-8.261125684E-1	1.640507281E-1
2.245913652E0	-8.522115648E-3	-9.677927494E-1	1.715075821E-1
2.248732335E0	-5.486112088E-2	-1.117995024E0	1.896170676E-1
2.250345883E0	-1.235706806E-1	-1.339570045E0	2.327602804E-1
2.252810682E0	-1.699096859E-1	-1.495098710E0	2.652508616E-1
2.254044998E0	-2.189118415E-1	-1.662345171E0	2.993393242E-1
2.256868182E0	-2.732403278E-1	-1.853560209E0	3.371562064E-1
2.258474421E0	-3.371562064E-1	-2.071939468E0	3.808320463E-1
2.260899489E0	-4.101268053E-1	-2.315884829E0	4.308994710E-1
2.262122998E0	-4.404868484E-1	-2.462891340E0	4.793690145E-1
2.264956605E0	-4.452805519E-1	-2.539590359E0	5.267732739E-1
2.266611690E0	-4.415521026E-1	-2.589125156E0	5.805691481E-1
2.269019912E0	-4.191815555E-1	-2.607767344E0	6.317018270E-1
2.270297767E0	-3.882888854E-1	-2.594984293E0	6.705839634E-1
2.273076835E0	-3.467435837E-1	-2.564091444E0	6.849650741E-1
2.274910729E0	-3.067961633E-1	-2.525742054E0	6.844323874E-1
2.277005767E0	-2.679139972E-1	-2.491653681E0	6.807039976E-1
2.278396652E0	-2.300971150E-1	-2.463956594E0	6.588660479E-1
2.281198605E0	-1.917476058E-1	-2.436259747E0	6.402239203E-1
2.282492652E0	-1.533980817E-1	-2.407497644E0	6.141249537E-1
2.285318105E0	-1.177117229E-1	-2.385127068E0	5.816344023E-1
2.286602383E0	-8.362326026E-2	-2.371278763E0	5.470132828E-1
2.289410143E0	-5.432848632E-2	-2.359028101E0	5.081311464E-1
2.291072729E0	-1.278317347E-2	-2.338788033E0	4.426173866E-1
2.293472412E0	5.326322280E-4	-2.329733372E0	4.186489284E-1
2.294728113E0	2.450108156E-2	-2.313221693E0	3.723099232E-1
2.297529681E0	4.580637068E-2	-2.290851116E0	3.249056637E-1
2.299155344E0	7.723167539E-2	-2.241848946E0	2.492718846E-1
2.301576143E0	8.681905270E-2	-2.222674370E0	2.210423797E-1
2.302819306E0	1.049285457E-1	-2.180063725E0	1.683117896E-1
2.305632566E0	1.214401498E-1	-2.128931046E0	1.198422536E-1
2.307272690E0	1.422128081E-1	-2.033589840E0	3.888215125E-2
2.309694451E0	1.486043930E-1	-1.999501348E0	1.065264456E-2
2.311340806E0	1.635181010E-1	-1.922269702E0	-4.580637068E-2
2.313751181E0	1.826928556E-1	-1.790176868E0	-1.278317273E-1
2.315522421E0	1.965412945E-1	-1.693237901E0	-1.757686287E-1
2.317690421E0	2.098570913E-1	-1.589907169E0	-2.221076339E-1
2.319071075E0	2.269013226E-1	-1.476989150E0	-2.764361203E-1
2.321866181E0	2.444781959E-1	-1.353951097E0	-3.302319944E-1
2.323706575E0	2.620550692E-1	-1.220260382E0	-3.877562582E-1
2.325892335E0	2.817624509E-1	-1.086037159E0	-4.404868484E-1
2.327185729E0	2.993393242E-1	-9.459548593E-1	-4.921521842E-1
2.329948412E0	3.195793331E-1	-8.111988902E-1	-5.459480286E-1
2.331726267E0	3.344930410E-1	-6.785734296E-1	-5.976133347E-1
2.334010643E0	3.515372574E-1	-5.422195792E-1	-6.359629035E-1
2.335297383E0	3.696467578E-1	-4.058657587E-1	-6.721818447E-1
2.338067374E0	3.861583769E-1	-2.721750736E-1	-7.004113793E-1
2.339702036E0	3.957457542E-1	-1.400822699E-1	-7.227819562E-1
2.342098027E0	4.111920893E-1	-1.225054078E-2	-7.414240837E-1
2.343345921E0	4.197141826E-1	1.134506613E-1	-7.467503548E-1
2.346154758E0	4.293015897E-1	2.258360684E-1	-7.552725077E-1
2.347927190E0	4.340952635E-1	3.339604139E-1	-7.568703890E-1
2.350233335E0	4.388889670E-1	4.324973822E-1	-7.590008974E-1
2.351487921E0	4.367584288E-1	5.166532397E-1	-7.595335841E-1
2.354291527E0	4.293015897E-1	5.944175720E-1	-7.531419992E-1
2.356001267E0	4.218447208E-1	6.562029123E-1	-7.494135499E-1
2.358340873E0	4.063983858E-1	7.014766335E-1	-7.456851006E-1
2.359689383E0	3.888215125E-1	7.398261428E-1	-7.478156686E-1
2.362397950E0	3.723099232E-1	7.728493810E-1	-7.430219650E-1
2.363832806E0	3.616572917E-1	8.197209835E-1	-7.414240837E-1
2.366517104E0	3.542004228E-1	8.740494847E-1	-7.270429730E-1
2.367863383E0	3.515372574E-1	9.273127317E-1	-6.966829300E-1
2.370608489E0	3.515372574E-1	9.912285805E-1	-6.631271243E-1
2.372398767E0	3.605920076E-1	1.090830803E0	-5.874933600E-1
2.374685450E0	3.643204570E-1	1.130245566E0	-5.560680628E-1
2.376024844E0	3.802994192E-1	1.221858382E0	-4.953479767E-1
2.378741758E0	4.202468395E-1	1.394431114E0	-4.926848114E-1
2.380357344E0	4.202468395E-1	1.443433285E0	-4.676510990E-1
2.382773796E0	4.095941782E-1	1.445563912E0	-4.213120937E-1
2.384051652E0	3.914846778E-1	1.430117488E0	-3.728425503E-1
2.386831450E0	3.733751774E-1	1.400822759E0	-3.206445873E-1
2.388552152E0	3.552657068E-1	1.369397402E0	-2.753708661E-1
2.390894719E0	3.392867148E-1	1.332113147E0	-2.359560728E-1
2.392191036E0	3.222424984E-1	1.292698383E0	-1.885518134E-1
2.394951219E0	3.036003709E-1	1.251685739E0	-1.379517466E-1
2.396894690E0	2.854908705E-1	1.201618314E0	-9.427590668E-2
2.399014681E0	2.695119083E-1	1.163801432E0	-4.687163606E-2
2.400472883E0	2.556634545E-1	1.129180312E0	5.326322280E-4
2.403071566E0	2.455434501E-1	1.098820329E0	4.474110901E-2
2.404651575E0	2.348908186E-1	1.066329718E0	9.108011425E-2
2.407129989E0	2.189118415E-1	1.013066530E0	1.315601617E-1
2.408409806E0	1.970739216E-1	9.502158761E-1	1.715075821E-1
2.411186412E0	1.752360016E-1	8.783105612E-1	2.039981484E-1
2.413275383E0	1.549959779E-1	8.143946528E-1	2.386192381E-1
2.415249681E0	1.326254308E-1	7.510114312E-1	2.790992856E-1
2.416502960E0	1.150485575E-1	6.913566589E-1	3.147856593E-1
2.419306681E0	9.853696078E-2	6.396912932E-1	3.579288721E-1
2.420993729E0	7.989483327E-2	5.954828262E-1	4.021373391E-1
2.423352604E0	6.231797114E-2	5.406216979E-1	4.399542212E-1
2.424652344E0	4.420847446E-2	4.889563918E-1	4.846953154E-1
2.427409719E0	2.663161233E-2	4.442152679E-1	5.262406468E-1
2.429129036E0	1.171790902E-2	4.053331316E-1	5.869607329E-1
2.431472642E0	6.924218964E-3	3.968110085E-1	6.056028605E-1
2.432928729E0	2.663161140E-3	3.925499618E-1	6.364955306E-1
2.435530258E0	-1.065264456E-3	3.888215125E-1	6.583334208E-1
2.437321229E0	-6.391586736E-3	3.776362538E-1	6.764429212E-1
2.439595065E0	-1.065264456E-2	3.685815036E-1	6.775081754E-1
2.441398113E0	-1.810949668E-2	3.547330499E-1	6.801713705E-1
2.443652681E0	-2.556634694E-2	3.387540877E-1	6.748450398E-1
2.445301498E0	-2.130528912E-2	3.430151641E-1	6.641923785E-1
2.447749989E0	-2.237055451E-2	3.323625028E-1	6.226470470E-1
2.449069652E0	-2.822950855E-2	3.025351167E-1	5.949501991E-1
2.451842258E0	-3.408846259E-2	2.615224123E-1	5.512743592E-1
2.453507844E0	-4.527373984E-2	2.157160491E-1	4.884237647E-1
2.455904912E0	-6.498113275E-2	1.432780623E-1	4.271710515E-1
2.457269075E0	-8.202536404E-2	5.699164793E-2	3.797667921E-1
2.459961604E0	-1.134506613E-1	-2.077265643E-2	2.860234976E-1
2.461566921E0	-1.363538504E-1	-7.243798673E-2	1.225054115E-1
2.463993258E0	-1.571265012E-1	-1.214401498E-1	1.864212751E-2
2.465287729E0	-1.896170676E-1	-1.890844405E-1	-2.450108156E-2
2.468050181E0	-2.290318608E-1	-2.684466541E-1	-6.764429063E-2
2.469740498E0	-2.732403278E-1	-3.808320463E-1	-9.906959534E-2
2.472127681E0	-3.153182864E-1	-4.905542731E-1	-1.145159304E-1
2.473387421E0	-3.462109566E-1	-5.933523178E-1	-1.443433315E-1
2.476184758E0	-3.877562582E-1	-7.046724558E-1	-1.635181010E-1
2.477997575E0	-4.314320982E-1	-8.298410177E-1	-1.704423130E-1
2.480235142E0	-4.788363874E-1	-9.454222322E-1	-1.789644361E-1
2.481474306E0	-5.193164349E-1	-1.035969734E0	-1.949433982E-1
2.484291411E0	-5.464806557E-1	-1.066329718E0	-2.162486911E-1
2.485740959E0	-5.795038939E-1	-1.131310821E0	-2.290318608E-1
2.488437027E0	-6.109291911E-1	-1.210140467E0	-2.444781959E-1
2.489809575E0	-6.375607848E-1	-1.266066790E0	-2.604571581E-1
2.492528681E0	-6.439523697E-1	-1.282045722E0	-3.115898669E-1
2.494533613E0	-6.897587180E-1	-1.443433285E0	-4.037352204E-1
2.496605027E0	-7.068029642E-1	-1.515871286E0	-4.452805519E-1
2.497887229E0	-7.302387953E-1	-1.593103051E0	-5.326322317E-1
2.500661758E0	-7.483482957E-1	-1.635180950E0	-6.455502510E-1
2.502409229E0	-7.696535587E-1	-1.693237901E0	-7.414240837E-1
2.504692181E0	-7.840346098E-1	-1.735848427E0	-7.424893379E-1
2.505967267E0	-8.064051867E-1	-1.799764276E0	-7.185208797E-1
2.508748950E0	-8.271778226E-1	-1.838113785E0	-6.476807594E-1
2.510405113E0	-8.335694075E-1	-1.826928496E0	-5.858954787E-1
2.512811834E0	-8.250473142E-1	-1.786981106E0	-5.273059011E-1
2.514547767E0	-8.064051867E-1	-1.726261020E0	-4.846953154E-1
2.516868527E0	-7.850999236E-1	-1.650094628E0	-4.415521026E-1
2.518763190E0	-7.600662112E-1	-1.576591372E0	-3.941478431E-1
2.520837729E0	-7.297061682E-1	-1.514806032E0	-3.414172530E-1
2.522363498E0	-7.089334726E-1	-1.474858642E0	-2.849582434E-1
2.524989681E0	-6.918892860E-1	-1.461010218E0	-2.237055302E-1
2.526324767E0	-6.785734296E-1	-1.466869116E0	-1.613875628E-1
2.529109296E0	-6.711165905E-1	-1.488707066E0	-1.027980223E-1
2.530410690E0	-6.604639888E-1	-1.519067168E0	-4.846953228E-2
2.533201719E0	-6.524744630E-1	-1.548894525E0	3.195793368E-3
2.534856459E0	-6.380934119E-1	-1.578721881E0	4.740426689E-2
2.537266219E0	-6.247776151E-1	-1.608016729E0	8.042746782E-2
2.538630767E0	-6.093312502E-1	-1.629854560E0	1.054611802E-1
2.541324180E0	-5.901564956E-1	-1.648496747E0	1.230380461E-1
2.543310152E0	-5.736449361E-1	-1.663410425E0	1.326254308E-1
2.545370796E0	-5.523396134E-1	-1.670867324E0	1.278317273E-1
2.546632190E0	-5.305017233E-1	-1.675128341E0	1.171790883E-1
2.549428873E0	-5.134574771E-1	-1.674595714E0	9.906959534E-2
2.551314498E0	-4.830974340E-1	-1.670867324E0	6.498113275E-2
2.553493988E0	-4.740426838E-1	-1.666606188E0	5.060006306E-2
2.555182113E0	-4.538026452E-1	-1.661812544E0	2.396845073E-2
2.557551527E0	-4.388889670E-1	-1.658616781E0	-3.195793368E-3
2.559331113E0	-4.143878818E-1	-1.657551527E0	-4.048004746E-2
2.561523421E0	-4.101268053E-1	-1.659149408E0	-5.486112088E-2
2.562897998E0	-3.925499618E-1	-1.655421019E0	-7.137271762E-2
2.565668142E0	-3.845604658E-1	-1.652225137E0	-9.161274135E-2
2.567077652E0	-3.701793849E-1	-1.642637849E0	-1.123853996E-1
2.569735027E0	-3.616572917E-1	-1.629321933E0	-1.283643693E-1
2.571085229E0	-3.547330499E-1	-1.597896695E0	-1.406149119E-1
2.573792603E0	-3.478088379E-1	-1.563808203E0	-1.512675583E-1
2.575756767E0	-3.382214606E-1	-1.515871286E0	-1.656486243E-1
2.577856373E0	-3.318298757E-1	-1.464205980E0	-1.800296903E-1
2.579134652E0	-3.249056637E-1	-1.402953267E0	-2.008023560E-1
2.581913796E0	-3.179814517E-1	-1.339037418E0	-2.194444835E-1
2.583691998E0	-3.131877482E-1	-1.265534163E0	-2.455434501E-1
2.585945411E0	-3.036003709E-1	-1.185639381E0	-2.737729549E-1
2.587282229E0	-2.929477394E-1	-1.092961311E0	-3.078614175E-1
2.590002680E0	-2.822950780E-1	-9.944243431E-1	-3.488741219E-1
2.591770921E0	-2.652508616E-1	-8.772453070E-1	-3.925499618E-1
2.594080796E0	-2.487392575E-1	-7.568703890E-1	-4.410194755E-1
2.595672075E0	-2.279665917E-1	-6.285060048E-1	-4.910869002E-1
2.598137757E0	-2.029328793E-1	-5.006743073E-1	-5.395564437E-1
2.600121806E0	-1.800296903E-1	-3.802994192E-1	-5.784385800E-1
2.602139113E0	-1.518001854E-1	-2.519350350E-1	-6.167881489E-1
2.603533690E0	-1.177117229E-1	-1.107875034E-1	-6.498113275E-1
2.606243411E0	-8.522115648E-2	3.142530099E-2	-6.647250056E-1
2.607736190E0	-4.687163606E-2	1.747033745E-1	-6.796387434E-1
2.610342103E0	1.065264456E-3	3.462109566E-1	-6.924219131E-1
2.611745690E0	6.018744037E-2	5.454154015E-1	-6.823018789E-1
2.614433642E0	1.123853996E-1	7.131945491E-1	-6.226470470E-1
2.616168267E0	1.704423130E-1	8.772453070E-1	-5.384911895E-1
2.618511642E0	1.864212751E-1	9.129316211E-1	-5.155879855E-1
2.619791075E0	2.194444835E-1	9.672601223E-1	-4.676510990E-1
2.622567796E0	2.524676621E-1	1.031175971E0	-4.245078862E-1
2.624196498E0	3.158509135E-1	1.136637211E0	-3.627225459E-1
2.626597949E0	3.403519988E-1	1.171258211E0	-3.382214606E-1
2.627900113E0	3.845604658E-1	1.232510924E0	-2.759034932E-1
2.630654180E0	4.165183902E-1	1.248489976E0	-2.173139453E-1
2.632421652E0	4.415521026E-1	1.200020432E0	-1.560612470E-1
2.634716642E0	4.452805519E-1	1.142496109E0	-1.304948926E-1
2.636118652E0	4.431500137E-1	1.081776023E0	-1.075917110E-1
2.638772911E0	4.410194755E-1	1.026382327E0	-9.960222989E-2
2.640467229E0	4.383563101E-1	9.853696227E-1	-9.800432622E-2
2.642836026E0	4.335626364E-1	9.587380290E-1	-9.427590668E-2
2.644222036E0	4.319647253E-1	9.448895454E-1	-9.534116834E-2
2.646892065E0	4.218447208E-1	9.358348250E-1	-1.001348570E-1
2.648316805E0	4.085289240E-1	9.257147908E-1	-1.049285457E-1
2.650948411E0	3.920173049E-1	9.219864011E-1	-1.081243455E-1
2.652244305E0	3.739078343E-1	9.187905788E-1	-1.065264493E-1
2.655004988E0	3.563309610E-1	9.155948162E-1	-1.081243455E-1
2.656619498E0	3.360909224E-1	9.076052904E-1	-1.118527651E-1
2.659067257E0	3.099919558E-1	8.996158242E-1	-1.017327532E-1
2.660382998E0	2.865561247E-1	8.937568665E-1	-9.321063757E-2
2.663123103E0	2.641855776E-1	8.878979087E-1	-8.522115648E-2
2.664805421E0	2.402171344E-1	8.793758154E-1	-7.936219871E-2
2.667167334E0	2.146507949E-1	8.735168576E-1	-7.084008306E-2
2.668427421E0	1.885518134E-1	8.687231541E-1	-6.018744037E-2
2.671223065E0	1.688444167E-1	8.713863492E-1	-4.900216311E-2
2.672925729E0	1.427454352E-1	8.697884083E-1	-4.101268202E-2
2.675285565E0	1.214401498E-1	8.681905270E-1	-3.302319720E-2
2.676562036E0	1.054611802E-1	8.708537221E-1	-2.769687586E-2
2.679342565E0	8.415589482E-2	8.655273914E-1	-2.982740477E-2
2.681047152E0	5.592638254E-2	8.378304839E-1	-2.769687586E-2
2.683339152E0	4.846953228E-2	8.213189244E-1	-2.663161233E-2
2.684666805E0	2.609897964E-2	7.771103978E-1	-2.822950855E-2
2.687458295E0	3.195793368E-3	7.307714224E-1	-3.568635881E-2
2.688776190E0	-1.171790902E-2	6.817692518E-1	-5.113269389E-2
2.691555026E0	-2.876213938E-2	6.295713186E-1	-7.776430249E-2
2.692864882E0	-3.888215125E-2	5.784385800E-1	-1.054611802E-1
2.695646641E0	-5.113269389E-2	5.214469433E-1	-1.400822699E-1
2.697253536E0	-8.149272949E-2	3.941478431E-1	-1.715075821E-1
2.699709411E0	-1.022653878E-1	3.110572100E-1	-1.688444167E-1
2.700970613E0	-1.113201380E-1	2.524676621E-1	-1.842907518E-1
2.703765564E0	-1.139832959E-1	2.295644879E-1	-2.119876295E-1
2.705424267E0	-9.427590668E-2	2.583266199E-1	-2.466087192E-1
2.707795180E0	-7.297061384E-2	2.860234976E-1	-2.769687474E-1
2.709067690E0	-5.539375171E-2	3.083940744E-1	-2.988066673E-1
2.711850911E0	-4.048004746E-2	3.355582952E-1	-3.067961633E-1
2.713578075E0	-2.929477207E-2	3.510046303E-1	-2.892192900E-1
2.715927603E0	-4.154531285E-2	3.137203753E-1	-2.343581766E-1
2.717291459E0	-3.728425503E-2	2.924150825E-1	-1.683117896E-1
2.719984257E0	-5.965480953E-2	2.210423797E-1	-1.070590764E-1
2.722080036E0	-9.108011425E-2	1.400822699E-1	-3.408846259E-2
2.723947459E0	-9.001484513E-2	1.470064968E-1	5.006742850E-2
2.725459305E0	-6.178534031E-2	2.055960447E-1	1.193096191E-1
2.728089911E0	-2.769687586E-2	2.609897852E-1	1.587243974E-1
2.729625536E0	3.621899337E-2	3.792341352E-1	1.544633508E-1
2.732240103E0	1.027980223E-1	5.001416802E-1	1.555286050E-1
2.733578805E0	1.699096859E-1	6.290386319E-1	1.640507281E-1
2.736331487E0	2.625876963E-1	7.941546440E-1	1.443433315E-1
2.738315267E0	3.483414650E-1	9.166600704E-1	1.171790883E-1
2.740409103E0	4.463458061E-1	1.027447581E0	-5.326322280E-3
2.741689921E0	5.507417321E-1	1.154746652E0	-1.358212233E-1
2.744465026E0	6.519418359E-1	1.268197298E0	-2.636529505E-1
2.746103959E0	7.968178391E-1	1.416269064E0	-4.346278906E-1
2.748494795E0	8.404936790E-1	1.450357556E0	-4.878911078E-1
2.749776421E0	9.097358584E-1	1.495631337E0	-5.890912414E-1
2.752550987E0	9.704559445E-1	1.524926066E0	-6.801713705E-1
2.754214459E0	1.018392801E0	1.527056575E0	-7.819041014E-1
2.756614526E0	1.028512836E0	1.520132422E0	-8.080030680E-1
2.757902267E0	1.032773852E0	1.519599795E0	-8.367652297E-1
2.760670218E0	1.021588564E0	1.514273405E0	-8.452873230E-1
2.762433805E0	9.779127836E-1	1.506283998E0	-8.287757635E-1
2.764733526E0	9.448895454E-1	1.528654456E0	-7.946872711E-1
2.766126267E0	9.134642482E-1	1.579254508E0	-7.483482957E-1
2.768789141E0	8.729842305E-1	1.634115696E0	-6.844323874E-1
2.770104305E0	8.234494328E-1	1.681519985E0	-6.157228351E-1
2.772907218E0	7.632619739E-1	1.714010477E0	-5.267732739E-1
2.774254690E0	6.913566589E-1	1.736913681E0	-4.314320982E-1
2.776998449E0	6.109291911E-1	1.740642071E0	-3.227751255E-1
2.778723998E0	5.219795704E-1	1.721467376E0	-2.077265680E-1
2.781061603E0	4.218447208E-1	1.683117867E0	-8.894958347E-2
2.782459805E0	3.195793331E-1	1.621865153E0	3.781688958E-2
2.785117833E0	2.077265680E-1	1.537709236E0	1.720402092E-1
2.786866228E0	8.096009493E-2	1.414138556E0	3.094593287E-1
2.789162949E0	-4.314320907E-2	1.276186824E0	4.468784332E-1
2.790525459E0	-1.576591432E-1	1.133441329E0	5.709817410E-1
2.793219487E0	-2.631203234E-1	9.859022498E-1	6.775081754E-1
2.794918921E0	-3.589941263E-1	8.250473142E-1	7.712514400E-1
2.797282064E0	-4.442152679E-1	6.412891746E-1	8.586031795E-1
2.798614228E0	-5.113269091E-1	4.516721368E-1	9.273127317E-1
2.801338103E0	-5.672533512E-1	2.444781959E-1	9.901633263E-1
2.803036152E0	-6.130596995E-1	-7.084008306E-2	1.061536074E0
2.805395795E0	-6.226470470E-1	-1.763012707E-1	1.084439158E0
2.806963728E0	-6.247776151E-1	-3.781688809E-1	1.110538244E0
2.809451603E0	-6.210491657E-1	-5.677859783E-1	1.126517177E0
2.810939228E0	-6.045376062E-1	-7.462177277E-1	1.133973956E0
2.813522641E0	-5.938849449E-1	-9.294432402E-1	1.141430855E0
2.814830267E0	-5.784385800E-1	-1.110005617E0	1.142496109E0
2.817578949E0	-5.608617067E-1	-1.285241604E0	1.139300346E0
2.819256152E0	-5.390238166E-1	-1.540904999E0	1.117995024E0
2.821641833E0	-5.299690962E-1	-1.622930408E0	1.100950837E0
2.822944190E0	-5.107942820E-1	-1.773132682E0	1.067927599E0
2.825698179E0	-4.729774296E-1	-1.953162432E0	1.014664412E0
2.827422036E0	-4.362258017E-1	-2.037850857E0	9.688580036E-1
2.829727333E0	-4.032025933E-1	-2.104962587E0	9.230516553E-1
2.831057152E0	-3.707120419E-1	-2.153964758E0	8.894958496E-1
2.833783410E0	-3.392867148E-1	-2.176335335E0	8.559399843E-1
2.835416844E0	-3.137203753E-1	-2.185389996E0	8.202536106E-1
2.837860872E0	-2.775014043E-1	-2.129996300E0	7.659251690E-1
2.839510728E0	-2.290318608E-1	-2.030394077E0	7.004113793E-1
2.841918641E0	-1.858886480E-1	-1.923334956E0	6.466155052E-1
2.843746536E0	-1.448759735E-1	-1.804558039E0	5.944175720E-1
2.845860805E0	-1.033306494E-1	-1.683117867E0	5.534048676E-1
2.847328805E0	-6.604639441E-2	-1.551025033E0	5.145227313E-1
2.850024987E0	-2.716424316E-2	-1.417334318E0	4.836300611E-1
2.851392113E0	4.261057824E-3	-1.282045722E0	4.500742257E-1
2.854116987E0	3.089267015E-2	-1.147289872E0	4.218447208E-1
2.855510652E0	5.113269389E-2	-1.014664412E0	4.000068009E-1
2.858208948E0	7.190535218E-2	-8.761799932E-1	3.696467578E-1
2.860072382E0	9.161274135E-2	-7.339671850E-1	3.435477912E-1
2.862286872E0	1.012001261E-1	-6.013417840E-1	3.201119602E-1
2.863898575E0	1.139832959E-1	-4.777711034E-1	2.966761589E-1
2.866343910E0	1.182443574E-1	-3.605920076E-1	2.790992856E-1
2.867995113E0	1.251685768E-1	-2.396845073E-1	2.593919039E-1
2.870375525E0	1.342233270E-1	-1.161138266E-1	2.412824035E-1
2.871766613E0	1.459412277E-1	1.012001187E-2	2.231729031E-1
2.874432948E0	1.571265012E-1	1.283643693E-1	2.045307755E-1
2.876166844E0	1.736381054E-1	2.753708661E-1	1.773665249E-1
2.878496410E0	1.752360016E-1	3.153182864E-1	1.693770438E-1
2.880256036E0	1.794970632E-1	3.877562582E-1	1.507349163E-1
2.882553756E0	1.805623323E-1	4.404868484E-1	1.267664731E-1
2.884261228E0	1.789644361E-1	4.889563918E-1	9.480853379E-2
2.886617987E0	1.778991669E-1	5.038700700E-1	8.096009493E-2
2.888130344E0	1.731054783E-1	5.209143162E-1	5.006742850E-2
2.890674948E0	1.672465205E-1	5.246427655E-1	-1.065264456E-3
2.892214690E0	1.608549356E-1	5.060006380E-1	-4.154531285E-2
2.894720987E0	1.470064968E-1	4.671184719E-1	-8.948221803E-2
2.896008998E0	1.283643693E-1	4.058657587E-1	-1.347559541E-1
2.898778025E0	1.065264493E-1	3.318298757E-1	-1.773665249E-1
2.900559075E0	8.149272949E-2	2.588592768E-1	-2.157160491E-1
2.902840871E0	5.912217870E-2	1.912149638E-1	-2.535329461E-1
2.904161959E0	4.048004746E-2	1.363538504E-1	-2.886866629E-1
2.906897064E0	2.769687586E-2	9.960222989E-2	-3.179814517E-1
2.908709267E0	1.864212751E-2	7.776430249E-2	-3.424825370E-1
2.910943025E0	2.183792181E-2	7.616640627E-2	-3.691141307E-1
2.912244267E0	1.597896591E-2	5.912217870E-2	-3.978762627E-1
2.914999025E0	3.142530099E-2	6.391586363E-2	-4.255731404E-1
2.916802728E0	1.171790902E-2	1.917476021E-2	-4.527373910E-1
2.919062448E0	-2.663161140E-3	-2.077265643E-2	-4.777711034E-1
2.920492613E0	-6.924218964E-3	-2.237055451E-2	-5.001416802E-1
2.923118717E0	5.326322280E-4	4.261057824E-3	-5.230448246E-1
2.924779767E0	1.704423130E-2	3.781688958E-2	-5.518069863E-1
2.927122844E0	2.183792181E-2	4.314320907E-2	-5.912217498E-1
2.928609190E0	1.810949668E-2	3.142530099E-2	-6.301039457E-1
2.931237064E0	3.462109342E-2	7.084008306E-2	-6.727145314E-1
2.932680536E0	5.113269389E-2	9.800432622E-2	-7.360977530E-1
2.935333717E0	5.592638254E-2	1.075917110E-1	-7.701861858E-1
2.936679959E0	5.592638254E-2	1.086569726E-1	-7.845672965E-1
2.939425371E0	5.432848632E-2	1.294296384E-1	-7.968178391E-1
2.941051382E0	5.805691332E-2	1.864212751E-1	-8.010788560E-1
2.943488410E0	6.125270575E-2	2.077265680E-1	-7.989483476E-1
2.944847075E0	6.977482140E-2	2.620550692E-1	-7.829693556E-1
2.947545679E0	7.882957160E-2	3.163835406E-1	-7.605988383E-1
2.949248882E0	9.534116834E-2	4.069310129E-1	-7.403587699E-1
2.951577679E0	1.022653878E-1	4.372910559E-1	-7.371630073E-1
2.952842113E0	1.187769845E-1	4.974785149E-1	-7.371630073E-1
2.955635102E0	1.352885813E-1	5.528722405E-1	-7.430219650E-1
2.957291075E0	1.597896665E-1	6.370281577E-1	-7.733820081E-1
2.959713333E0	1.763012707E-1	6.908239722E-1	-8.021441102E-1
2.961035575E0	1.938781291E-1	7.408914566E-1	-8.378304839E-1
2.963770717E0	2.146507949E-1	7.893609405E-1	-8.761799932E-1
2.965619575E0	2.386192381E-1	8.372978568E-1	-9.209211469E-1
2.967819833E0	2.652508616E-1	8.863000274E-1	-9.720538259E-1
2.969146613E0	2.945456207E-1	9.321063757E-1	-1.024251819E0
2.971876833E0	3.201119602E-1	9.693906307E-1	-1.083373904E0
2.973462113E0	3.478088379E-1	9.986854196E-1	-1.147289872E0
2.975952294E0	3.712446690E-1	1.012533903E0	-1.209607840E0
2.977224113E0	3.930825889E-1	1.021055937E0	-1.272991061E0
2.980009140E0	4.133225977E-1	1.020523310E0	-1.341700554E0
2.981986421E0	4.335626364E-1	1.010936022E0	-1.409877539E0
2.984087333E0	4.532700181E-1	9.928264618E-1	-1.481250167E0
2.985394998E0	4.665858448E-1	9.598032832E-1	-1.548361897E0
2.988144371E0	4.767058492E-1	9.214537740E-1	-1.616538763E0
2.989872344E0	4.777711034E-1	8.719189763E-1	-1.677791476E0
2.992175294E0	4.735100567E-1	8.143946528E-1	-1.740642071E0
2.993448151E0	4.644553065E-1	7.536746264E-1	-1.794970632E0
2.996232563E0	4.479437172E-1	6.759102941E-1	-1.842907548E0
2.997878921E0	4.239752591E-1	5.938849449E-1	-1.886050701E0
3.000296833E0	3.914846778E-1	5.118595958E-1	-1.914280176E0
3.001581190E0	3.510046303E-1	4.117247164E-1	-1.929726601E0
3.004354409E0	3.004045784E-1	2.988066673E-1	-1.940379262E0
3.006092882E0	2.061286718E-1	1.166464612E-1	-1.964880347E0
3.008334613E0	1.699096859E-1	4.953479767E-2	-1.977130890E0
3.009711190E0	9.427590668E-2	-7.882957160E-2	-1.980859280E0
3.012475679E0	1.864212751E-2	-1.853560209E-1	-1.966478229E0
3.013939151E0	-5.113269389E-2	-2.668487430E-1	-1.923867583E0
3.016595448E0	-1.113201380E-1	-3.222424984E-1	-1.855158091E0
3.017924459E0	-1.560612470E-1	-3.275688291E-1	-1.759284258E0
3.020688563E0	-2.029328793E-1	-3.025351167E-1	-1.640507221E0
3.022389151E0	-2.434129268E-1	-2.892192900E-1	-1.549959779E0
3.024754256E0	-2.822950780E-1	-2.668487430E-1	-1.453553319E0
3.026075959E0	-3.233077526E-1	-2.428802997E-1	-1.331580520E0
3.028811679E0	-3.675162494E-1	-2.231729031E-1	-1.196824670E0
3.030533036E0	-4.197141826E-1	-2.327602804E-1	-1.048220277E0
3.032858217E0	-4.905542731E-1	-2.652508616E-1	-8.644620776E-1
3.034140574E0	-5.422195792E-1	-2.524676621E-1	-7.238472104E-1
3.036915409E0	-5.805691481E-1	-2.024002522E-1	-6.029396653E-1
3.038686190E0	-6.146575809E-1	-1.555286050E-1	-4.921521842E-1
3.040979717E0	-6.514092088E-1	-1.368864775E-1	-3.872236311E-1
3.042297844E0	-7.206513882E-1	-1.810949594E-1	-2.620550692E-1
3.045037140E0	-7.515440583E-1	-1.640507281E-1	-1.896170676E-1
3.046785728E0	-7.664577961E-1	-1.043959185E-1	-1.496696621E-1
3.049095755E0	-7.712514400E-1	-2.876213938E-2	-1.299622655E-1
3.050447613E0	-7.701861858E-1	4.846953228E-2	-1.161138266E-1
3.053153217E0	-7.637946010E-1	1.113201380E-1	-1.091896072E-1
3.054766074E0	-7.861651778E-1	7.510114461E-2	-9.374327213E-2
3.057202178E0	-8.032094240E-1	5.858954415E-2	-8.362326026E-2
3.058542498E0	-8.074704409E-1	7.989483327E-2	-1.075917110E-1
3.061259371E0	-8.032094240E-1	1.091896072E-1	-1.528654546E-1
3.063281844E0	-7.930893898E-1	1.368864775E-1	-1.933455020E-1
3.065323755E0	-7.888283134E-1	1.358212233E-1	-2.237055302E-1
3.066617613E0	-7.925567627E-1	1.012001261E-1	-2.418150306E-1
3.069380640E0	-7.925567627E-1	6.870955974E-2	-2.482066154E-1
3.071022036E0	-7.882956862E-1	5.326322466E-2	-2.615224123E-1
3.073412140E0	-7.824367285E-1	5.486112088E-2	-2.759034932E-1
3.074721690E0	-7.595335841E-1	1.017327532E-1	-3.078614175E-1
3.077470063E0	-7.302387953E-1	1.635181010E-1	-3.286340833E-1
3.079200997E0	-6.679208279E-1	2.620550692E-1	-3.339604139E-1
3.081550217E0	-6.455502510E-1	2.977414131E-1	-3.238403797E-1
3.082853421E0	-6.002765298E-1	3.691141307E-1	-3.025351167E-1
3.085607255E0	-5.534048676E-1	4.319647253E-1	-2.737729549E-1
3.087530805E0	-4.841626883E-1	4.900216460E-1	-2.183792144E-1
3.089655678E0	-4.596616030E-1	5.028048158E-1	-1.960086524E-1
3.091068844E0	-4.186489284E-1	5.150553584E-1	-1.470064968E-1
3.093711832E0	-3.691141307E-1	4.980111420E-1	-6.018744037E-2
3.095082421E0	-3.408846259E-1	4.761732221E-1	-1.438106969E-2
3.097803140E0	-3.158509135E-1	4.554005563E-1	2.609897964E-2
3.099126728E0	-2.956108749E-1	4.207794666E-1	6.391586363E-2
3.101893563E0	-2.743056118E-1	3.712446690E-1	9.800432622E-2
3.103649305E0	-2.567287385E-1	3.062635362E-1	1.182443574E-1
3.105970601E0	-2.545982003E-1	1.938781291E-1	1.012001261E-1
3.107344267E0	-2.631203234E-1	3.888215125E-2	7.456851006E-2
3.110026409E0	-2.737729549E-1	-1.246359423E-1	4.793690145E-2
3.111795228E0	-2.822950780E-1	-2.748382390E-1	1.171790902E-2
3.114057409E0	-2.806971967E-1	-3.946804702E-1	-2.024002373E-2
3.115343613E0	-2.716424465E-1	-4.937500656E-1	-5.006742850E-2
3.118114101E0	-2.572613657E-1	-5.629922748E-1	-8.202536404E-2
3.119802151E0	-2.380866110E-1	-6.146575809E-1	-1.070590764E-1
3.122177294E0	-2.167813182E-1	-6.631271243E-1	-1.177117229E-1
3.123530997E0	-1.970739216E-1	-7.243798375E-1	-1.225054115E-1
3.126234332E0	-1.826928556E-1	-7.861651778E-1	-1.272991002E-1
3.127954036E0	-1.613875628E-1	-8.836368918E-1	-1.049285457E-1
3.130255921E0	-1.544633508E-1	-9.145295620E-1	-9.480853379E-2
3.131527805E0	-1.422128081E-1	-9.731190801E-1	-5.965480953E-2
3.134358063E0	-1.294296384E-1	-1.026914954E0	-2.183792181E-2
3.136129844E0	-1.225054115E-1	-1.076449752E0	-1.331580617E-2
3.138416063E0	-1.129180342E-1	-1.116929770E0	-1.384843793E-2
3.139672305E0	-1.070590764E-1	-1.151018262E0	-1.384843793E-2
3.142473794E0	-9.960222989E-2	-1.177649856E0	-1.704423130E-2
3.144059305E0	-9.161274135E-2	-1.219727755E0	-2.556634694E-2
3.146539255E0	-8.948221803E-2	-1.231445670E0	-2.396845073E-2
3.147757844E0	-8.415589482E-2	-1.252218366E0	-3.036003746E-2
3.150596140E0	-8.042746782E-2	-1.265534163E0	-3.355583176E-2
3.152192574E0	-7.882957160E-2	-1.286306858E0	-3.195793182E-2
3.154642447E0	-8.255799860E-2	-1.306014180E0	-3.195793182E-2
3.155945036E0	-8.522115648E-2	-1.315601587E0	-3.355583176E-2
3.158699524E0	-1.006674916E-1	-1.333711147E0	-3.195793182E-2
3.160344805E0	-1.134506613E-1	-1.355548978E0	-2.556634694E-2
3.162763178E0	-1.315601617E-1	-1.372060657E0	-9.054748341E-3
3.164055421E0	-1.475391239E-1	-1.374191165E0	9.587380104E-3
3.166820793E0	-1.693770438E-1	-1.375256419E0	3.675162420E-2
3.168635690E0	-1.938781291E-1	-1.382713318E0	7.243798673E-2
3.170784844E0	-2.210423797E-1	-1.394431114E0	1.134506613E-1
3.172410844E0	-2.508697808E-1	-1.408812284E0	1.661812514E-1
3.174938409E0	-2.801645398E-1	-1.410410166E0	2.242381722E-1
3.176261267E0	-3.121224940E-1	-1.406681657E0	2.892192900E-1
3.179036755E0	-3.371562064E-1	-1.377919555E0	3.488741219E-1
3.180398305E0	-3.536677957E-1	-1.325721622E0	4.074636400E-1
3.183129140E0	-3.600593805E-1	-1.239967823E0	4.596616030E-1
3.184898344E0	-3.579288721E-1	-1.130245566E0	5.012069345E-1
3.187191678E0	-3.499393761E-1	-1.006142259E0	5.305017233E-1
3.188431036E0	-3.323625028E-1	-8.724516034E-1	5.470132828E-1
3.191249716E0	-3.078614175E-1	-7.355651259E-1	5.518069863E-1
3.192873651E0	-2.828277051E-1	-5.965480804E-1	5.448827744E-1
3.195281139E0	-2.476739883E-1	-4.522047639E-1	5.230448246E-1
3.196500228E0	-2.109223604E-1	-3.142530024E-1	4.985437691E-1
3.199339024E0	-1.699096859E-1	-1.826928556E-1	4.655205607E-1
3.201044651E0	-1.070590764E-1	-7.989482954E-3	4.122573435E-1
3.203419063E0	-8.309062570E-2	4.900216311E-2	3.898867965E-1
3.204825844E0	-3.834952042E-2	1.544633508E-1	3.446130455E-1
3.207476101E0	9.587380104E-3	2.450108230E-1	2.977414131E-1
3.209257728E0	7.616640627E-2	3.483414650E-1	2.189118415E-1
3.211403228E0	9.640643001E-2	3.749730885E-1	1.896170676E-1
3.212825844E0	1.374191195E-1	4.111920893E-1	1.262338310E-1
3.215581409E0	1.725728363E-1	4.175836742E-1	6.604639441E-2
3.217064074E0	1.789644361E-1	3.291667104E-1	1.970739290E-2
3.219645524E0	1.912149638E-1	3.014698327E-1	-4.633900523E-2
3.220911536E0	2.013349831E-1	3.062635362E-1	-8.681905270E-2
3.223701909E0	2.588592768E-1	3.579288721E-1	-2.316950262E-1
3.225384651E0	3.014698327E-1	4.032025933E-1	-3.328951299E-1
3.227780409E0	3.451456726E-1	4.420847595E-1	-4.399542212E-1
3.229079228E0	3.824299276E-1	4.687163532E-1	-5.257080197E-1
3.231836293E0	4.175836742E-1	4.921521842E-1	-5.944175720E-1
3.233472728E0	4.442152679E-1	5.102616549E-1	-6.492787004E-1
3.235866101E0	4.660531878E-1	5.390238166E-1	-7.084008455E-1
3.237110805E0	4.894890189E-1	5.885586143E-1	-7.701861858E-1
3.239921755E0	5.193164349E-1	6.641923785E-1	-8.479505181E-1
3.241562267E0	5.448827744E-1	7.510114312E-1	-9.326390028E-1
3.243984909E0	5.704491138E-1	8.463526368E-1	-1.023719192E0
3.245539113E0	5.912217498E-1	9.523464441E-1	-1.125984550E0
3.248040909E0	6.072007418E-1	1.064199209E0	-1.235174179E0
3.249857074E0	6.130596995E-1	1.169127703E0	-1.348624825E0
3.252000228E0	6.119944453E-1	1.262871027E0	-1.438639641E0
3.253408997E0	5.992112756E-1	1.345961690E0	-1.500957608E0
3.256160255E0	5.731122494E-1	1.410410166E0	-1.538241863E0
3.257647228E0	5.299690962E-1	1.447694421E0	-1.561677694E0
3.260279639E0	4.740426838E-1	1.466869116E0	-1.551557660E0
3.261569574E0	4.090615511E-1	1.471662879E0	-1.530252337E0
3.264371101E0	3.360909224E-1	1.465271235E0	-1.500957608E0
3.265992882E0	2.178465873E-1	1.446629167E0	-1.479652286E0
3.268433293E0	1.794970632E-1	1.437041759E0	-1.482848167E0
3.269674536E0	9.427590668E-2	1.399757504E0	-1.465803862E0
3.272489947E0	3.195793368E-3	1.353951097E0	-1.412540674E0
3.274160151E0	-1.299622655E-1	1.271925807E0	-1.258610010E0
3.276536062E0	-1.704423130E-1	1.242098331E0	-1.187237263E0
3.277797767E0	-2.503371537E-1	1.172323585E0	-1.040230751E0
3.280593562E0	-3.227751255E-1	1.093493938E0	-8.783105612E-1
3.282297959E0	-4.175836742E-1	9.518138170E-1	-6.098638773E-1
3.284657178E0	-4.713795185E-1	8.415589333E-1	-4.261057973E-1
3.286057728E0	-5.123922229E-1	7.275756001E-1	-2.508697808E-1
3.288714370E0	-5.406216979E-1	6.178534031E-1	-8.362326026E-2
3.290539651E0	-5.608617067E-1	5.166532397E-1	7.350324839E-2
3.292691651E0	-5.736449361E-1	4.245078862E-1	2.098570913E-1
3.294047843E0	-5.683186054E-1	3.382214606E-1	3.366235793E-1
3.296830716E0	-5.608617067E-1	2.572613657E-1	4.458131790E-1
3.298492767E0	-5.432848930E-1	1.805623323E-1	5.432848930E-1
3.300888908E0	-5.182511806E-1	1.081243455E-1	6.269081235E-1
3.302192574E0	-4.889563918E-1	3.408846259E-2	6.940197945E-1
3.304946178E0	-4.564658105E-1	-4.314320907E-2	7.510114312E-1
3.306647728E0	-4.250405133E-1	-1.161138266E-1	7.936220169E-1
3.309008601E0	-3.941478431E-1	-1.906823367E-1	8.234494328E-1
3.310280959E0	-3.616572917E-1	-2.727077007E-1	8.388957381E-1
3.313065716E0	-3.302319944E-1	-3.595267534E-1	8.378304839E-1
3.314725997E0	-3.004045784E-1	-4.506068528E-1	8.202536106E-1
3.317130408E0	-2.695119083E-1	-5.395564437E-1	7.904262543E-1
3.318416113E0	-2.343581766E-1	-6.151902080E-1	7.536746264E-1
3.321187370E0	-2.002697140E-1	-6.844323874E-1	7.073355913E-1
3.322940267E0	-1.651159972E-1	-7.504788041E-1	6.593986750E-1
3.325264562E0	-1.331580579E-1	-8.159925938E-1	6.061354876E-1
3.326551843E0	-9.587380290E-2	-8.868326545E-1	5.496764779E-1
3.329320908E0	-6.764429063E-2	-9.550095797E-1	4.969458580E-1
3.331181728E0	-2.450108156E-2	-1.064731836E0	4.181163013E-1
3.333280613E0	-1.225054078E-2	-1.103081346E0	3.941478431E-1
3.334817997E0	1.118527725E-2	-1.180845618E0	3.515372574E-1
3.337426985E0	2.716424316E-2	-1.250620484E0	3.121224940E-1
3.338846036E0	4.687163606E-2	-1.316134214E0	2.775014043E-1
3.341551524E0	6.444849819E-2	-1.372593284E0	2.423476577E-1
3.342877574E0	7.456851006E-2	-1.426921725E0	2.055960447E-1
3.345643062E0	8.788431436E-2	-1.488707066E0	1.629854590E-1
3.347296728E0	9.214537591E-2	-1.508947134E0	1.368864775E-1
3.349720408E0	1.001348570E-1	-1.511610270E0	1.107875034E-1
3.350978997E0	1.027980223E-1	-1.509479761E0	8.575379103E-2
3.353776870E0	9.853696078E-2	-1.518001795E0	5.912217870E-2
3.355444190E0	8.149272949E-2	-1.562210321E0	4.687163606E-2
3.357807523E0	5.539375171E-2	-1.596831441E0	6.072007492E-2
3.359105190E0	3.089267015E-2	-1.627724051E0	7.563377917E-2
3.361864447E0	1.438106969E-2	-1.602157712E0	5.219795927E-2
3.363528728E0	3.249056637E-2	-1.518001795E0	1.597896591E-2
3.365927677E0	4.687163606E-2	-1.442368031E0	-3.142530099E-2
3.367180613E0	4.953479767E-2	-1.408812284E0	-6.338323653E-2
3.369984562E0	3.568635881E-2	-1.400822759E0	-1.001348570E-1
3.371837459E0	1.065264456E-2	-1.410410166E0	-1.139832959E-1
3.373979497E0	1.065264456E-2	-1.399757504E0	-1.720402092E-1
3.375332613E0	1.225054078E-2	-1.385909081E0	-2.412824035E-1
3.378105908E0	1.651159860E-2	-1.381115317E0	-2.924150825E-1
3.379781190E0	-2.290318534E-2	-1.455683827E0	-3.062635362E-1
3.382156908E0	-6.231797114E-2	-1.499892354E0	-3.478088379E-1
3.383407767E0	-8.255799860E-2	-1.502022862E0	-4.085289240E-1
3.386213793E0	-9.906959534E-2	-1.495631337E0	-4.532700181E-1
3.387933574E0	-6.338323653E-2	-1.378452182E0	-5.203816891E-1
3.390277216E0	-6.391586736E-3	-1.266066790E0	-6.274407506E-1
3.391670190E0	6.551376730E-2	-1.146224499E0	-7.041398287E-1
3.394334100E0	1.198422536E-1	-1.046622276E0	-7.616640925E-1
3.396005420E0	1.661812514E-1	-9.645969868E-1	-8.090683818E-1
3.398379908E0	1.747033745E-1	-9.555422068E-1	-8.143946528E-1
3.399663728E0	1.858886480E-1	-9.289106131E-1	-8.101336360E-1
3.402436869E0	2.098570913E-1	-8.852347732E-1	-7.984157205E-1
3.404343959E0	2.609897852E-1	-7.813714743E-1	-7.675230503E-1
3.406499639E0	2.806971967E-1	-7.414240837E-1	-7.558051348E-1
3.407767613E0	3.190467060E-1	-6.450176239E-1	-7.344998717E-1
3.410556677E0	3.632551730E-1	-5.315669775E-1	-7.174556255E-1
3.412318651E0	4.106594622E-1	-3.925499618E-1	-6.876282096E-1
3.414614869E0	4.239752591E-1	-3.472762108E-1	-6.854977012E-1
3.415999074E0	4.367584288E-1	-2.796319127E-1	-6.753776670E-1
3.418671292E0	4.500742257E-1	-1.704423130E-1	-6.636597514E-1
3.420013113E0	4.415521026E-1	-1.161138266E-1	-6.657902598E-1
3.422767408E0	4.218447208E-1	-8.681905270E-2	-6.807039976E-1
3.424357151E0	3.818973005E-1	-8.096009493E-2	-7.073355913E-1
3.426859292E0	3.265035450E-1	-7.456851006E-2	-7.387608886E-1
3.428490113E0	2.711097896E-1	-5.858954415E-2	-7.696535587E-1
3.430922139E0	2.119876295E-1	-4.953479767E-2	-8.037420511E-1
3.432255343E0	1.480717659E-1	-4.527373984E-2	-8.266451955E-1
3.434979177E0	8.149272949E-2	-3.834952042E-2	-8.378304839E-1
3.436897266E0	1.438106969E-2	-3.355583176E-2	-8.346347213E-1
3.439010869E0	-4.740426689E-2	-2.130528912E-2	-8.053399324E-1
3.440303690E0	-1.043959185E-1	-1.597896684E-3	-7.456851006E-1
3.443068600E0	-1.565938741E-1	2.716424316E-2	-6.641923785E-1
3.444745074E0	-1.976065636E-1	5.379585549E-2	-5.544701219E-1
3.447146139E0	-2.396845073E-1	7.297061384E-2	-4.202468395E-1
3.448555497E0	-2.812298238E-1	8.362326026E-2	-2.663161159E-1
3.451203215E0	-3.185140789E-1	8.096009493E-2	-9.693906456E-2
3.453005613E0	-3.627225459E-1	8.894958347E-2	1.592570394E-1
3.455149266E0	-3.749730885E-1	9.267801046E-2	2.439455539E-1
3.456523113E0	-3.957457542E-1	1.107875034E-1	3.925499618E-1
3.459308831E0	-4.133225977E-1	1.304948926E-1	5.219795704E-1
3.460825536E0	-4.250405133E-1	1.549959779E-1	6.343649626E-1
3.463377562E0	-4.271710515E-1	1.842907518E-1	7.297061682E-1
3.464655613E0	-4.250405133E-1	2.146507949E-1	7.952198982E-1
3.467434908E0	-4.181163013E-1	2.407497615E-1	8.298410177E-1
3.469312074E0	-4.095941782E-1	2.482066154E-1	8.564726114E-1
3.471513831E0	-4.058657587E-1	2.450108230E-1	8.522115946E-1
3.472799997E0	-4.026699662E-1	2.215750068E-1	8.479505181E-1
3.475571677E0	-4.026699662E-1	1.741707325E-1	8.335694075E-1
3.477286036E0	-4.085289240E-1	7.882957160E-2	8.058725595E-1
3.479601946E0	-4.037352204E-1	5.060006306E-2	7.957525253E-1
3.480952805E0	-3.973436356E-1	-1.438106969E-2	7.888283134E-1
3.483659408E0	-4.053331316E-1	-1.427454352E-1	7.835019827E-1
3.485480343E0	-4.218447208E-1	-2.380866110E-1	7.882956862E-1
3.487723254E0	-4.468784332E-1	-3.265035450E-1	8.032094240E-1
3.489184920E0	-4.729774296E-1	-3.946804702E-1	8.239820600E-1
3.491780869E0	-4.985437691E-1	-4.559331834E-1	8.495483994E-1
3.493685843E0	-5.155879855E-1	-4.830974340E-1	8.697884083E-1
3.495845908E0	-5.155879855E-1	-4.612595141E-1	8.761799932E-1
3.497163882E0	-4.916195571E-1	-4.074636400E-1	8.703210354E-1
3.499902908E0	-4.692489803E-1	-3.451456726E-1	8.596684337E-1
3.501320343E0	-4.463458061E-1	-2.775014043E-1	8.351673484E-1
3.503996023E0	-4.143878818E-1	-1.944107562E-1	8.032094240E-1
3.505321882E0	-3.771036267E-1	-9.534116834E-2	7.590008974E-1
3.508088023E0	-3.414172530E-1	9.587380104E-3	7.105314136E-1
3.509717651E0	-2.977414131E-1	1.161138266E-1	6.519418359E-1
3.512151138E0	-2.540655732E-1	2.061286718E-1	5.906891227E-1
3.513385882E0	-2.066612989E-1	2.748382390E-1	5.225121975E-1
3.516207061E0	-1.619201899E-1	3.222424984E-1	4.479437172E-1
3.517859766E0	-1.075917110E-1	3.526025414E-1	3.739078343E-1
3.520251600E0	-5.699164793E-2	3.584614992E-1	3.041329980E-1
3.521574266E0	-5.326322280E-3	3.483414650E-1	2.359560728E-1
3.524308023E0	4.580637068E-2	3.307646215E-1	1.587243974E-1
3.525969574E0	1.091896072E-1	2.956108749E-1	5.060006306E-2
3.528370907E0	1.299622655E-1	2.780340314E-1	1.597896591E-2
3.529691459E0	1.693770438E-1	2.375539690E-1	-4.900216311E-2
3.532427254E0	1.949433982E-1	1.869539171E-1	-1.065264493E-1
3.534279728E0	2.205097377E-1	1.150485575E-1	-1.672465205E-1
3.536488100E0	2.263686955E-1	9.267801046E-2	-1.885518134E-1
3.537743574E0	2.343581766E-1	5.273059011E-2	-2.189118415E-1
3.540544523E0	2.343581766E-1	2.183792181E-2	-2.375539690E-1
3.542116689E0	2.221076339E-1	-2.290318534E-2	-2.508697808E-1
3.544604215E0	2.173139453E-1	-3.568635881E-2	-2.530003190E-1
3.545976613E0	1.992044598E-1	-5.432848632E-2	-2.577939928E-1
3.548660561E0	1.720402092E-1	-7.350324839E-2	-2.572613657E-1
3.550452305E0	1.491370201E-1	-7.989483327E-2	-2.545982003E-1
3.552723023E0	1.257012039E-1	-8.042746782E-2	-2.508697808E-1
3.553980228E0	1.038632840E-1	-8.362326026E-2	-2.450108230E-1
3.556779100E0	7.936219871E-2	-8.255799860E-2	-2.407497615E-1
3.558415459E0	5.805691332E-2	-8.149272949E-2	-2.380866110E-1
3.560809369E0	3.888215125E-2	-7.669904083E-2	-2.364887148E-1
3.562059151E0	1.970739290E-2	-7.510114461E-2	-2.348908186E-1
3.564865753E0	1.597896684E-3	-7.829693705E-2	-2.338255495E-1
3.566505497E0	-1.704423130E-2	-8.628641814E-2	-2.380866110E-1
3.568944907E0	-3.568635881E-2	-1.043959185E-1	-2.492718846E-1
3.570413497E0	-4.953479767E-2	-1.288969964E-1	-2.641855776E-1
3.573001177E0	-6.817692518E-2	-1.635181010E-1	-2.854908705E-1
3.574764843E0	-8.096009493E-2	-2.087918371E-1	-3.036003709E-1
3.576990497E0	-9.693906456E-2	-2.577939928E-1	-3.174487948E-1
3.578463766E0	-1.086569726E-1	-2.961435318E-1	-3.062635362E-1
3.581105523E0	-1.166464612E-1	-3.259709179E-1	-2.743056118E-1
3.582545997E0	-1.230380461E-1	-3.451456726E-1	-2.348908186E-1
3.585197176E0	-1.262338310E-1	-3.632551730E-1	-1.970739216E-1
3.586552920E0	-1.219727769E-1	-3.744404614E-1	-1.661812514E-1
3.589288215E0	-1.166464612E-1	-3.824299276E-1	-1.374191195E-1
3.591043920E0	-9.800432622E-2	-3.802994192E-1	-1.070590764E-1
3.593364561E0	-9.001484513E-2	-3.771036267E-1	-9.853696078E-2
3.594650766E0	-6.870955974E-2	-3.664509654E-1	-8.841694891E-2
3.597420407E0	-4.154531285E-2	-3.547330499E-1	-8.096009493E-2
3.599048228E0	4.793690052E-3	-3.323625028E-1	-7.297061384E-2
3.601450446E0	2.290318534E-2	-3.259709179E-1	-7.350324839E-2
3.602789613E0	5.592638254E-2	-3.153182864E-1	-7.190535218E-2
3.605506369E0	9.321063757E-2	-2.998719513E-1	-6.657902896E-2
3.607234228E0	1.560612470E-1	-2.753708661E-1	-5.486112088E-2
3.609570253E0	1.768338978E-1	-2.641855776E-1	-4.633900523E-2
3.610886305E0	2.221076339E-1	-2.428802997E-1	-3.621899337E-2
3.613627292E0	2.849582434E-1	-2.087918371E-1	-1.331580617E-2
3.615501805E0	3.302319944E-1	-1.805623323E-1	2.663161140E-3
3.617688266E0	3.717772961E-1	-1.603222936E-1	1.012001187E-2
3.619096612E0	4.063983858E-1	-1.427454352E-1	2.130528912E-2
3.621748330E0	4.463458061E-1	-7.669904083E-2	-5.326322280E-4
3.623270343E0	4.719121456E-1	-6.924218964E-3	-4.367584363E-2
3.625796446E0	4.974785149E-1	6.125270575E-2	-7.137271762E-2
3.627093959E0	5.123922229E-1	1.091896072E-1	-9.214537591E-2
3.629853138E0	5.134574771E-1	1.395496428E-1	-9.587380290E-2
3.631652728E0	5.006743073E-1	1.581917703E-1	-8.948221803E-2
3.633916484E0	4.799016416E-1	1.773665249E-1	-7.723167539E-2
3.635422997E0	4.543353021E-1	1.976065636E-1	-6.178534031E-2
3.637973522E0	4.271710515E-1	2.194444835E-1	-4.261057824E-2
3.639702843E0	3.962783813E-1	2.434129268E-1	-2.556634694E-2
3.642018176E0	3.605920076E-1	2.705771625E-1	-5.326322280E-3
3.643279112E0	3.217098713E-1	3.004045784E-1	1.491370238E-2
3.646074484E0	2.865561247E-1	3.355582952E-1	3.994741663E-2
3.647846728E0	2.492718846E-1	3.659183383E-1	6.711166352E-2
3.650138638E0	2.045307755E-1	3.914846778E-1	9.747169912E-2
3.651459382E0	1.608549356E-1	4.085289240E-1	1.294296384E-1
3.654195407E0	1.161138266E-1	4.197141826E-1	1.603222936E-1
3.655969689E0	5.273059011E-2	4.340952635E-1	1.922802329E-1
3.658217382E0	2.982740477E-2	4.404868484E-1	1.986718178E-1
3.659694959E0	-7.989482954E-3	4.532700181E-1	2.061286718E-1
3.662311984E0	-4.580637068E-2	4.633900523E-1	2.024002522E-1
3.663710497E0	-8.202536404E-2	4.713795185E-1	1.928128600E-1
3.666408445E0	-1.145159304E-1	4.783037305E-1	1.784317940E-1
3.667881997E0	-1.427454352E-1	4.868258536E-1	1.629854590E-1
3.670499599E0	-1.672465205E-1	4.910869002E-1	1.438107044E-1
3.672346920E0	-1.933455020E-1	4.900216460E-1	1.225054115E-1
3.674561753E0	-1.986718178E-1	4.884237647E-1	1.155811921E-1
3.675838882E0	-2.098570913E-1	4.751079381E-1	1.187769845E-1
3.678618945E0	-2.332929224E-1	4.356931746E-1	1.432780623E-1
3.680333959E0	-2.455434501E-1	4.010720551E-1	1.683117896E-1
3.682650445E0	-2.657834888E-1	3.563309610E-1	1.933455020E-1
3.683927497E0	-2.817624509E-1	3.126551211E-1	2.050634027E-1
3.686706330E0	-2.924150825E-1	2.796319127E-1	1.997370869E-1
3.688401689E0	-2.950782478E-1	2.540655732E-1	1.789644361E-1
3.690782330E0	-2.897519469E-1	2.226402760E-1	1.560612470E-1
3.692063189E0	-2.838929892E-1	1.917476058E-1	1.272991002E-1
3.694838368E0	-2.780340314E-1	1.635181010E-1	1.001348570E-1
3.696604651E0	-2.668487430E-1	1.283643693E-1	7.190535218E-2
3.698886907E0	-2.487392575E-1	8.522115648E-2	4.261057824E-2
3.700195612E0	-2.354234457E-1	4.207794741E-2	1.384843793E-2
3.702944138E0	-2.151834220E-1	-4.261057824E-3	-9.054748341E-3
3.704805920E0	-1.922802329E-1	-4.207794741E-2	-2.876213938E-2
3.707024791E0	-1.709749401E-1	-7.510114461E-2	-4.314320907E-2
3.708414228E0	-1.464738697E-1	-1.022653878E-1	-5.113269389E-2
3.711081330E0	-1.267664731E-1	-1.283643693E-1	-5.273059011E-2
3.712734266E0	-1.102548689E-1	-1.518001854E-1	-5.166532472E-2
3.715160676E0	-9.800432622E-2	-1.800296903E-1	-5.166532472E-2
3.716527536E0	-9.480853379E-2	-2.125202566E-1	-5.166532472E-2
3.719217830E0	-9.960222989E-2	-2.498045117E-1	-5.113269389E-2
3.720963497E0	-1.129180342E-1	-2.961435318E-1	-4.474110901E-2
3.723248868E0	-1.294296384E-1	-3.435477912E-1	-3.941478580E-2
3.724674651E0	-1.496696621E-1	-3.755057156E-1	-3.355583176E-2
3.727305253E0	-1.661812514E-1	-4.032025933E-1	-1.970739290E-2
3.729001074E0	-1.880191714E-1	-4.463458061E-1	6.924218964E-3
3.731369022E0	-1.944107562E-1	-4.612595141E-1	1.544633508E-2
3.732653112E0	-2.087918371E-1	-4.948153496E-1	3.408846259E-2
3.735426330E0	-2.210423797E-1	-5.214469433E-1	3.621899337E-2
3.737241305E0	-2.221076339E-1	-5.326322317E-1	2.876213938E-2
3.739447689E0	-2.167813182E-1	-5.315669775E-1	2.130528912E-2
3.740940305E0	-2.055960447E-1	-5.305017233E-1	7.456851192E-3
3.743549560E0	-1.933455020E-1	-5.416869521E-1	-1.171790902E-2
3.744900651E0	-1.821602285E-1	-5.592638254E-1	-3.408846259E-2
3.747641868E0	-1.704423130E-1	-5.938849449E-1	-5.486112088E-2
3.749031843E0	-1.597896665E-1	-6.173207760E-1	-6.817692518E-2
3.751734791E0	-1.571265012E-1	-6.402239203E-1	-7.936219871E-2
3.753386805E0	-1.464738697E-1	-6.562029123E-1	-8.522115648E-2
3.755799676E0	-1.406149119E-1	-6.679208279E-1	-8.735168725E-2
3.757078151E0	-1.331580579E-1	-6.769755483E-1	-9.054747969E-2
3.759857176E0	-1.262338310E-1	-6.759102941E-1	-9.161274135E-2
3.761771843E0	-1.177117229E-1	-6.657902598E-1	-8.788431436E-2
3.763903983E0	-1.070590764E-1	-6.428871155E-1	-8.309062570E-2
3.765134305E0	-9.640643001E-2	-6.119944453E-1	-7.563377917E-2
3.767962868E0	-9.054747969E-2	-5.635249019E-1	-6.711166352E-2
3.769610689E0	-8.309062570E-2	-4.884237647E-1	-5.965480953E-2
3.772026560E0	-8.628641814E-2	-3.946804702E-1	-5.273059011E-2
3.773316843E0	-9.267801046E-2	-2.775014043E-1	-4.953479767E-2
3.776084945E0	-9.800432622E-2	-1.523328125E-1	-4.527373984E-2
3.777860997E0	-1.038632840E-1	-2.769687586E-2	-4.367584363E-2
3.780145253E0	-1.118527651E-1	9.108011425E-2	-4.687163606E-2
3.781528882E0	-1.118527651E-1	1.933455020E-1	-4.953479767E-2
3.784203406E0	-1.097222418E-1	2.689792812E-1	-6.231797114E-2
3.785916920E0	-1.086569726E-1	3.249056637E-1	-7.350324839E-2
3.788268830E0	-9.693906456E-2	3.494067490E-1	-9.267801046E-2
3.789668728E0	-8.096009493E-2	3.520699143E-1	-1.145159304E-1
3.792326522E0	-6.391586363E-2	3.366235793E-1	-1.422128081E-1
3.794057305E0	-3.142530099E-2	2.902845740E-1	-1.800296903E-1
3.796390060E0	-2.183792181E-2	2.748382390E-1	-1.928128600E-1
3.797724997E0	2.663161140E-3	2.364887148E-1	-2.183792144E-1
3.800447483E0	2.396845073E-2	1.896170676E-1	-2.375539690E-1
3.802113305E0	5.432848632E-2	1.235706806E-1	-2.679139972E-1
3.804479291E0	6.231797114E-2	1.027980223E-1	-2.764361203E-1
3.805752305E0	7.616640627E-2	5.752427876E-2	-2.886866629E-1
3.808536714E0	8.681905270E-2	1.917476021E-2	-3.004045784E-1
3.810184805E0	9.853696078E-2	-3.195793182E-2	-3.142530024E-1
3.812615214E0	1.001348570E-1	-6.551376730E-2	-3.206445873E-1
3.814017189E0	1.006674916E-1	-9.693906456E-2	-3.296993375E-1
3.816673291E0	9.534116834E-2	-1.251685768E-1	-3.355582952E-1
3.818851459E0	8.788431436E-2	-1.475391239E-1	-3.339604139E-1
3.820616959E0	7.563377917E-2	-1.645833552E-1	-3.328951299E-1
3.822041420E0	6.498113275E-2	-1.667138934E-1	-3.318298757E-1
3.824782176E0	4.633900523E-2	-1.576591432E-1	-3.334277868E-1
3.826145074E0	2.876213938E-2	-1.438107044E-1	-3.339604139E-1
3.828908060E0	1.757686399E-2	-1.315601617E-1	-3.323625028E-1
3.830210766E0	-1.597896684E-3	-1.177117229E-1	-3.296993375E-1
3.833000483E0	-1.757686399E-2	-1.006674916E-1	-3.265035450E-1
3.834677805E0	-3.089267015E-2	-8.255799860E-2	-3.227751255E-1
3.837079214E0	-4.846953228E-2	-6.444849819E-2	-3.201119602E-1
3.838372420E0	-6.657902896E-2	-4.900216311E-2	-3.222424984E-1
3.841136175E0	-8.681905270E-2	-4.474110901E-2	-3.233077526E-1
3.842782458E0	-1.065264493E-1	-4.580637068E-2	-3.233077526E-1
3.845167637E0	-1.257012039E-1	-4.740426689E-2	-3.206445873E-1
3.846429497E0	-1.406149119E-1	-5.219795927E-2	-3.185140789E-1
3.849223829E0	-1.576591432E-1	-5.326322466E-2	-3.121224940E-1
3.850889151E0	-1.731054783E-1	-5.379585549E-2	-3.025351167E-1
3.853286368E0	-1.869539171E-1	-5.699164793E-2	-2.956108749E-1
3.854817997E0	-1.986718178E-1	-5.912217870E-2	-2.876214087E-1
3.857342522E0	-2.061286718E-1	-5.645901710E-2	-2.796319127E-1
3.859090920E0	-2.109223604E-1	-5.219795927E-2	-2.609897852E-1
3.861390997E0	-2.151834220E-1	-4.580637068E-2	-2.519350350E-1
3.862859535E0	-2.125202566E-1	-2.556634694E-2	-2.444781959E-1
3.865464060E0	-2.109223604E-1	-1.597896684E-3	-2.348908186E-1
3.866952266E0	-1.986718178E-1	4.367584363E-2	-2.231729031E-1
3.869519945E0	-1.965412945E-1	6.018744037E-2	-2.205097377E-1
3.870788305E0	-1.869539171E-1	9.693906456E-2	-2.146507949E-1
3.873577137E0	-1.709749401E-1	1.486043930E-1	-2.119876295E-1
3.875322882E0	-1.597896665E-1	1.880191714E-1	-2.130528986E-1
3.877640637E0	-1.491370201E-1	2.178465873E-1	-2.114549875E-1
3.878913574E0	-1.347559541E-1	2.434129268E-1	-2.050634027E-1
3.881698021E0	-1.187769845E-1	2.705771625E-1	-1.981391907E-1
3.883355535E0	-1.075917110E-1	2.977414131E-1	-1.933455020E-1
3.885743791E0	-9.321063757E-2	3.265035450E-1	-1.896170676E-1
3.887046920E0	-8.042746782E-2	3.515372574E-1	-1.858886480E-1
3.889801445E0	-6.604639441E-2	3.861583769E-1	-1.885518134E-1
3.891441766E0	-5.592638254E-2	4.170510471E-1	-1.869539171E-1
3.893866214E0	-4.580637068E-2	4.495415986E-1	-1.901497096E-1
3.895162074E0	-3.781688958E-2	4.793690145E-1	-1.912149638E-1
3.897923868E0	-2.663161233E-2	5.107942820E-1	-1.944107562E-1
3.900014728E0	-1.970739290E-2	5.395564437E-1	-2.002697140E-1
3.901900266E0	-1.597896591E-2	5.704491138E-1	-2.029328793E-1
3.903410035E0	-6.924218964E-3	6.018744111E-1	-2.024002522E-1
3.906039675E0	-3.195793368E-3	6.263754964E-1	-1.922802329E-1
3.907422035E0	4.261057824E-3	6.572681665E-1	-1.890844405E-1
3.910146368E0	6.924218964E-3	6.785734296E-1	-1.816275865E-1
3.911471228E0	8.522115648E-3	6.972155571E-1	-1.725728363E-1
3.914239098E0	7.989482954E-3	7.131945491E-1	-1.635181010E-1
3.915911074E0	5.326322280E-3	7.265103459E-1	-1.496696621E-1
3.918302560E0	1.065264456E-3	7.270429730E-1	-1.448759735E-1
3.919623458E0	-5.326322280E-4	7.323693037E-1	-1.326254308E-1
3.922360829E0	-1.597896684E-3	7.376956344E-1	-1.182443574E-1
3.923998382E0	-7.456851192E-3	7.510114312E-1	-1.001348570E-1
3.926393637E0	-9.054748341E-3	7.579356432E-1	-9.640643001E-2
3.927654958E0	-1.544633508E-2	7.776430249E-1	-8.575379103E-2
3.930452367E0	-2.237055451E-2	7.957525253E-1	-8.149272949E-2
3.932129074E0	-3.142530099E-2	8.090683818E-1	-7.243798673E-2
3.934532829E0	-3.568635881E-2	8.101336360E-1	-7.403588295E-2
3.935862343E0	-4.314320907E-2	8.090683818E-1	-6.817692518E-2
3.938591021E0	-5.006742850E-2	8.005462289E-1	-7.616640627E-2
3.940345843E0	-5.219795927E-2	7.893609405E-1	-8.894958347E-2
3.942539766E0	-5.326322466E-2	7.755125165E-1	-1.086569726E-1
3.943954497E0	-5.699164793E-2	7.611314654E-1	-1.384843737E-1
3.946699098E0	-6.018744037E-2	7.456851006E-1	-1.672465205E-1
3.948221343E0	-5.912217870E-2	7.387608886E-1	-2.018676102E-1
3.950762021E0	-6.125270575E-2	7.297061682E-1	-2.338255495E-1
3.952103843E0	-6.072007492E-2	7.217166424E-1	-2.604571581E-1
3.954819637E0	-6.125270575E-2	7.121292949E-1	-2.711097896E-1
3.956564228E0	-6.018744037E-2	7.105314136E-1	-2.705771625E-1
3.958896906E0	-5.699164793E-2	7.163903713E-1	-2.684466541E-1
3.960139112E0	-4.793690145E-2	7.265103459E-1	-2.673813701E-1
3.962954329E0	-4.207794741E-2	7.392935157E-1	-2.588592768E-1
3.964563574E0	-3.089267015E-2	7.542072535E-1	-2.482066154E-1
3.966985560E0	-1.864212751E-2	7.712514400E-1	-2.348908186E-1
3.968263189E0	-4.261057824E-3	7.920241356E-1	-2.215750068E-1
3.971043290E0	1.118527725E-2	8.111988902E-1	-2.034655064E-1
3.972674228E0	2.822950855E-2	8.293083906E-1	-1.832254827E-1
3.975107713E0	4.580637068E-2	8.468852639E-1	-1.608549356E-1
3.976374920E0	6.178534031E-2	8.665926456E-1	-1.363538504E-1
3.979165637E0	8.042746782E-2	8.868326545E-1	-1.193096191E-1
3.980902035E0	1.059938148E-1	9.150621891E-1	-9.587380290E-2
3.983157381E0	1.123853996E-1	9.257147908E-1	-8.575379103E-2
3.984654151E0	1.241033077E-1	9.432916641E-1	-7.403588295E-2
3.987289136E0	1.347559541E-1	9.598032832E-1	-5.752427876E-2
3.988632612E0	1.422128081E-1	9.688580036E-1	-3.941478580E-2
3.991389098E0	1.496696621E-1	9.608685374E-1	5.326322280E-3
3.992676266E0	1.608549356E-1	9.582054019E-1	4.261057824E-2
3.995481944E0	1.683117896E-1	9.667274952E-1	7.882957160E-2
3.997220266E0	1.800296903E-1	9.890980721E-1	1.320927888E-1
3.999546483E0	1.826928556E-1	9.954896569E-1	1.512675583E-1
4.000863266E0	1.917476058E-1	1.010936022E0	1.826928556E-1
4.003605098E0	1.997370869E-1	1.026382327E0	2.167813182E-1
4.005515997E0	2.024002522E-1	1.030110717E0	2.386192381E-1
4.007651829E0	2.093244642E-1	1.031708598E0	2.599245310E-1
4.008919805E0	2.109223604E-1	1.028512836E0	2.753708661E-1
4.011709483E0	2.146507949E-1	1.027447581E0	2.902845740E-1
4.013316381E0	2.183792144E-1	1.023719192E0	3.030677438E-1
4.015772983E0	2.215750068E-1	1.017327547E0	3.163835406E-1
4.017045805E0	2.247707993E-1	1.012533903E0	3.238403797E-1
4.019831021E0	2.258360684E-1	9.992180467E-1	3.366235793E-1
4.021656766E0	2.274339646E-1	9.859022498E-1	3.456783295E-1
4.023785728E0	2.290318608E-1	9.603359103E-1	3.557983339E-1
4.025196074E0	2.300971150E-1	9.086706042E-1	3.696467578E-1
4.027948406E0	2.242381722E-1	8.255799413E-1	3.952131271E-1
4.029492728E0	2.199771106E-1	7.451524734E-1	4.111920893E-1
4.031995444E0	2.194444835E-1	6.796387434E-1	4.293015897E-1
4.033346228E0	2.183792144E-1	6.285060048E-1	4.415521026E-1
4.036053944E0	2.173139453E-1	5.912217498E-1	4.543353021E-1
4.037644535E0	2.194444835E-1	5.651227832E-1	4.623247683E-1
4.040086021E0	2.215750068E-1	5.448827744E-1	4.687163532E-1
4.041292266E0	2.258360684E-1	5.267732739E-1	4.719121456E-1
4.044143752E0	2.284992188E-1	5.107942820E-1	4.777711034E-1
4.045750035E0	2.343581766E-1	4.980111420E-1	4.799016416E-1
4.048174752E0	2.428802997E-1	4.836300611E-1	4.756405652E-1
4.049397035E0	2.466087192E-1	4.751079381E-1	4.767058492E-1
4.052232713E0	2.551308274E-1	4.623247683E-1	4.681837261E-1
4.053831266E0	2.604571581E-1	4.463458061E-1	4.575310946E-1
4.056312290E0	2.620550692E-1	4.404868484E-1	4.538026452E-1
4.057729766E0	2.641855776E-1	4.277036786E-1	4.420847595E-1
4.060370752E0	2.625876963E-1	4.138552547E-1	4.319647253E-1
4.062045728E0	2.604571581E-1	3.850930929E-1	4.095941782E-1
