"Time (s)"	"Linear Acceleration x (m/s^2)"	"Linear Acceleration y (m/s^2)"	"Linear Acceleration z (m/s^2)"
2.313045900E-2	2.401039004E-2	-3.788666725E-1	-6.153635979E-1
3.120592100E-2	3.153386712E-1	-3.894572258E-1	-5.715575218E-1
3.934145900E-2	4.819806814E-1	-3.998713493E-1	-4.551792145E-1
4.744915200E-2	5.728950500E-1	-3.941435814E-1	-3.293581009E-1
5.555449800E-2	5.436612368E-1	-3.811430931E-1	-2.829103470E-1
6.368911300E-2	4.213775098E-1	-2.863683701E-1	-2.587556839E-1
7.177511300E-2	3.089660704E-1	-1.148438454E-1	-7.678604126E-2
7.989622800E-2	2.435716689E-1	8.047771454E-2	2.169523239E-1
8.802015100E-2	1.739931703E-1	9.026908875E-2	7.139997482E-1
9.620553600E-2	2.374518514E-1	-3.038954735E-1	1.147481918E0
1.043272280E-1	-5.511562526E-2	-5.833239555E-1	1.445492744E0
1.124316510E-1	-3.038312197E-1	-4.885544777E-1	1.200314522E0
1.205531130E-1	1.526243985E-1	-6.001162529E-1	6.004772186E-1
1.286704970E-1	6.117828488E-1	-9.256134033E-1	6.811485291E-1
1.367578050E-1	6.090378761E-1	-1.143857479E0	1.073060989E0
1.448454200E-1	5.583822727E-1	-1.057553291E0	1.153084755E0
1.529319590E-1	4.492944181E-1	-1.018146038E0	8.801937103E-1
1.610655360E-1	1.823027134E-1	-1.365352869E0	4.872140884E-1
1.691713820E-1	-5.415554047E-1	-1.827139139E0	-8.839035034E-2
1.773545740E-1	-1.027922750E0	-7.896022797E-1	-8.727264404E-2
1.854902280E-1	-1.182304859E0	3.338737488E-1	5.220918655E-1
1.935794200E-1	-1.361223698E0	9.852752686E-1	5.792493820E-1
2.016997660E-1	-1.124319911E0	1.190161228E0	-5.575942993E-2
2.098206890E-1	-9.160016775E-1	1.172993183E0	-8.080091476E-1
2.179571890E-1	-9.487870336E-1	1.028331757E0	-1.723251343E0
2.260780350E-1	-1.041671753E0	9.437222481E-1	-2.680244446E0
2.341818430E-1	-1.213950634E0	1.203832150E0	-3.233753681E0
2.423028050E-1	-1.247923374E0	1.513790846E0	-3.514050007E0
2.504196120E-1	-5.133343935E-1	-6.588697433E-2	-3.069133282E0
2.586069580E-1	-2.728628516E-1	-4.398012161E-1	-3.128383160E0
2.748173430E-1	1.202690005E0	-3.704280853E0	-3.936643600E0
2.829528810E-1	5.032391548E-1	-6.527236462E0	3.946126938E0
2.910582280E-1	2.229551792E0	-6.086904526E0	1.244592667E0
2.991878810E-1	1.317782402E0	-3.753715754E0	-2.839525700E0
3.073223430E-1	-5.418598652E-1	-1.910838366E0	-2.734852791E0
3.154100740E-1	-1.002410769E0	-5.834383965E-1	-2.319807529E0
3.235320740E-1	-1.988288879E0	1.903359413E0	5.426937103E0
3.316532660E-1	1.593500853E0	1.763484001E0	3.120444298E0
3.398639580E-1	1.126461625E0	2.091789246E0	2.847732544E0
3.479849200E-1	1.711871028E0	1.484560490E0	3.889204025E0
3.560873430E-1	2.623624563E0	-6.783270836E-2	2.881383896E0
3.642066500E-1	3.421942711E0	-1.948316813E0	2.809483528E0
3.723198040E-1	4.171564102E0	-3.713011742E0	2.407401085E0
3.804255350E-1	4.317327499E0	-4.740049362E0	1.499881744E0
3.885451120E-1	3.945786953E0	-5.182083130E0	3.353891373E-1
3.966328810E-1	2.816437244E0	-4.843770027E0	-6.193523407E-1
4.047689960E-1	2.303607464E0	-3.012961864E0	-2.649658203E0
4.128749190E-1	1.269368887E0	-1.601674438E0	-3.098879337E0
4.210851500E-1	1.627337933E-1	-1.025553942E0	-1.873483181E0
4.292198420E-1	-4.980456829E-2	-8.385696411E-1	-1.347078323E0
4.373071120E-1	1.122108698E-1	-1.542420506E0	-1.917375565E0
4.454270730E-1	2.231375724E-1	-2.381940842E0	-2.131886005E0
4.535475730E-1	9.127404690E-1	-3.024688005E0	-2.194385052E0
4.616886500E-1	1.632832289E0	-3.181723356E0	-2.181138992E-1
4.698070730E-1	1.957027674E0	-2.947467089E0	5.152969360E-1
4.779093810E-1	2.961361647E0	-2.321782112E0	2.957534790E-1
4.860284580E-1	4.289340496E0	-2.160586357E0	-3.271293640E-2
4.941438420E-1	4.725127697E0	-2.337854862E0	-7.942447662E-1
5.023369190E-1	3.730316639E0	-2.616015911E0	-1.008945465E0
5.104569190E-1	2.142708540E0	-2.735077620E0	-9.702777863E-1
5.185417650E-1	4.138600349E0	-3.547965765E0	-2.133962154E0
5.266739960E-1	3.839857340E0	-3.898586750E0	-1.968860626E0
5.347791500E-1	2.835041523E0	-3.410522223E0	-1.497952938E0
5.510180730E-1	-1.379961491E1	2.937656641E0	-3.529834747E-1
5.591059570E-1	-7.249549389E0	1.626719475E0	-2.939517021E0
5.672264190E-1	-2.521157265E0	5.770978928E-1	-3.777327061E0
5.753478800E-1	-8.175439835E-1	-8.381628990E-2	-3.511642456E0
5.835580340E-1	1.074844360E0	-7.803783417E-1	-2.268522739E0
5.916776880E-1	1.096283436E0	-4.157052040E-1	1.673889160E-2
5.997803420E-1	3.024642467E-1	3.207037449E-1	1.588523865E0
6.079006880E-1	5.910418034E-1	2.336268425E-1	2.133234978E0
6.160165720E-1	7.053596973E-1	-3.626862764E-1	2.432951927E0
6.241214950E-1	1.115246296E0	-1.179076195E0	1.786721230E0
6.322434950E-1	3.146286011E-1	-1.311699629E0	1.639674187E0
6.403303420E-1	-6.755516529E-1	-9.666275382E-1	1.821431160E0
6.484663030E-1	-1.309997320E0	-1.287462473E0	1.874231339E0
6.565714570E-1	-2.432529211E0	-1.722915292E0	1.823400497E0
6.647542260E-1	-2.208712578E0	-2.583738565E0	5.650653839E-1
6.728895340E-1	-1.844553471E0	-2.955386162E0	-1.704607010E-1
6.809782640E-1	-1.066419840E0	-2.996747494E0	-5.411815643E-2
6.890982260E-1	-3.233933449E-1	-2.164130449E0	3.349886894E0
6.972202260E-1	4.147968292E-1	-9.735554457E-1	5.554661751E0
7.053475340E-1	1.271646023E0	-9.713022709E-1	5.347806931E0
7.134676490E-1	6.975650787E-1	-1.116236925E0	4.800232887E0
7.215715720E-1	2.883315086E-1	-1.434205055E0	4.342228889E0
7.296924950E-1	3.621239662E-1	-1.245079875E0	3.865559578E0
7.378089180E-1	6.802563667E-1	-1.205439568E0	2.993309021E0
7.459966490E-1	1.069056034E0	-1.152041674E0	2.220479012E0
7.541174180E-1	9.275898933E-1	-1.691239595E0	2.667014122E0
7.622060330E-1	1.275294304E0	-2.443694592E0	3.342085838E0
7.784503030E-1	-1.598052979E-1	-1.423569322E0	3.190419197E0
7.865798410E-1	3.484244347E-1	-1.610216141E0	3.635413170E0
7.947139560E-1	1.169885635E0	-1.901190162E0	3.840811253E0
8.028028020E-1	2.447034836E0	-1.228980303E0	2.958436966E0
8.109215330E-1	3.078282833E0	-2.847415805E-1	1.422139645E0
8.190404180E-1	2.645531178E0	3.098244667E-1	3.958597183E-1
8.272506870E-1	2.172208309E0	4.120785892E-1	2.641887665E-1
8.353691100E-1	1.990362644E0	1.624490619E-1	-1.355843544E-1
8.434717640E-1	1.418325424E0	-2.345620692E-1	-4.773359299E-1
8.515901870E-1	1.163042545E0	-6.332987547E-1	-7.514891624E-1
8.597076870E-1	1.174728870E0	-8.319232464E-1	-9.507536888E-1
8.677922640E-1	1.129047394E0	-8.338168859E-1	-6.239128113E-1
8.759092640E-1	1.155973434E0	-9.058062434E-1	-6.830477715E-1
8.839976870E-1	1.177771091E0	-8.387744427E-1	-1.223477840E0
8.921333020E-1	9.477286339E-1	-8.115563393E-1	-1.262937069E0
9.002400710E-1	1.454345703E0	-8.540018201E-1	-7.997932434E-1
9.084239940E-1	2.089466572E0	-6.847217083E-1	-1.332297325E-1
9.165153790E-1	2.160363197E0	-8.457670212E-1	4.165697098E-2
9.245418790E-1	2.096410751E0	-1.037906051E0	1.000791550E0
9.326288790E-1	1.973063469E0	-1.354227781E0	1.136508465E0
9.407529940E-1	1.450433731E0	-1.624772429E0	1.104972839E0
9.488574940E-1	1.057436943E0	-1.075216651E0	1.064134121E0
9.569780330E-1	1.078345299E0	7.456278801E-2	2.143148661E0
9.650813400E-1	1.083267212E0	6.720917225E-1	1.269781113E0
9.732023400E-1	1.141007423E0	7.792726159E-1	1.679701567E0
9.813177250E-1	3.435277939E-1	1.460685134E-1	2.082305193E0
9.894099560E-1	-6.152286530E-1	-5.117492080E-1	2.601190567E0
9.975279940E-1	-1.436583519E0	-7.773799896E-1	2.277374506E0
1.005616379E0	-2.023022652E0	-6.420823932E-1	1.688521147E0
1.013752302E0	-1.785166264E0	-7.212923765E-1	9.287106991E-2
1.030003340E0	-1.392926216E0	2.922569752E0	-1.281978011E0
1.038093725E0	-1.120785713E0	1.986498356E0	-5.588432789E0
1.046182148E0	-3.710410595E0	1.207792282E0	-5.071475506E0
1.054301994E0	-5.843348980E0	-6.652557850E-2	-3.132990360E0
1.062422648E0	-5.376694679E0	-1.835949421E0	-1.393547654E0
1.070632725E0	-3.253720760E0	-2.524668694E0	-1.743879676E0
1.078752917E0	-2.402227879E0	-1.091439843E0	-2.004359484E0
1.086856724E0	-1.398606300E0	-6.187091470E-1	-2.638835907E0
1.094976263E0	-8.487949371E-1	-1.133930683E-2	-2.607911348E0
1.103092917E0	-3.046293259E-1	-2.584273219E-1	-2.312839508E0
1.111198801E0	1.180560112E0	-8.407526016E-1	-2.327215672E0
1.119319763E0	2.755781174E0	-1.235166073E0	-2.386187315E0
1.127406070E0	3.869610786E0	-1.101125121E0	-2.869143009E0
1.135540801E0	4.068646431E0	-8.308678865E-1	-2.569776535E0
1.143646224E0	3.191722870E0	-7.328595519E-1	-1.832178593E0
1.151857493E0	1.891069412E0	-3.425686955E-1	-1.110750794E0
1.159994916E0	9.804658890E-1	7.685768604E-2	-3.231135011E-1
1.168084070E0	3.156147003E-1	2.751252651E-1	-2.095852494E-1
1.176206455E0	-5.754642487E-1	2.604079247E-1	-4.112892747E-1
1.184327647E0	-2.433614731E-1	-7.240974903E-2	-4.692457318E-1
1.192433263E0	3.132019043E-1	-3.230098486E-1	-3.171067238E-1
1.200555070E0	1.257948875E0	-6.600808501E-1	-9.685905576E-1
1.208659916E0	1.621758461E0	-9.134061337E-1	-1.165379405E0
1.216749686E0	7.958641052E-1	-8.559077978E-1	-1.204216361E0
1.224869570E0	8.878669739E-1	-5.841596127E-1	-8.844457865E-1
1.233066647E0	1.899022102E0	-6.520628929E-2	-3.579940796E-1
1.241190032E0	2.396852493E0	-4.296621084E-1	-3.830397129E-1
1.249279339E0	1.964778900E0	-7.227388620E-1	-5.855200291E-1
1.257415185E0	-2.398919106E0	-4.537193775E-1	4.077305794E0
1.265524108E0	-2.990098476E0	-6.514406204E-2	5.579755783E0
1.273689608E0	-1.313461304E0	-1.009983659E0	5.438633919E0
1.281826531E0	1.422450066E0	-1.833916903E0	2.645325899E0
1.289916493E0	1.299132347E0	-2.924713135E0	-9.822571278E-1
1.298037493E0	1.490237236E0	-2.902673244E0	-2.215473890E0
1.306164301E0	2.401770592E0	-2.751031876E0	-1.774090290E0
1.314382301E0	2.882462502E0	-2.167006016E0	-1.731218338E0
1.322502608E0	3.144823074E0	-1.856765151E0	-2.365133286E0
1.330606608E0	3.585872650E0	-2.170622349E0	-2.811826468E0
1.338729262E0	3.696746826E0	-3.007289410E0	-2.751487255E0
1.346847147E0	2.639945030E0	-3.632371664E0	-2.371352673E0
1.354931377E0	9.969997406E-1	-3.906860828E0	-2.928315163E0
1.363021570E0	4.324502945E-1	-3.935079098E0	-6.121613026E0
1.371111800E0	-9.178147316E-1	-3.215153217E0	-5.371439457E0
1.379250454E0	-3.250079632E0	-1.788828611E0	-1.821566105E0
1.387359146E0	-4.774764061E0	-2.499141693E-1	-4.379806519E-1
1.395571762E0	-4.921223164E0	1.201881409E0	-5.117745399E-1
1.403664223E0	-4.126663208E0	1.679916382E0	-9.019627571E-1
1.411752954E0	-2.553268433E0	1.777583122E0	-6.797928810E-1
1.419874877E0	-6.133170128E-1	1.399001598E0	-1.641259193E-1
1.427998339E0	1.272029877E-1	5.271115303E-1	2.049989700E-1
1.436132685E0	1.348987579E0	-1.555663109E0	1.119149685E0
1.444255992E0	3.600611687E0	-3.292468071E0	2.245745659E-1
1.452360992E0	4.576472282E0	-4.012221813E0	-6.024668217E-1
1.460482492E0	4.511809349E0	-4.328764439E0	4.324841499E-1
1.468600761E0	4.440824032E0	-4.616418362E0	9.383015633E-1
1.476792608E0	3.639190674E0	-4.987966061E0	7.602386475E-1
1.484915031E0	1.689111233E0	-5.619643688E0	9.362740517E-1
1.493005608E0	-7.481765747E-2	-6.744716644E0	1.574588776E0
1.501141723E0	-7.543640137E-1	-7.196547508E0	5.690727234E-1
1.509249107E0	-2.771730423E-1	-7.165655136E0	-3.722176552E-1
1.517381184E0	-4.498815536E-2	-6.294488907E0	-3.498387337E-1
1.525517838E0	-9.781394005E-1	-5.610752106E0	-6.834678650E-1
1.541763646E0	-3.781928539E0	-4.220137596E0	-1.550975800E0
1.549845223E0	-6.537500381E0	-1.261424065E0	-1.808822632E0
1.566176569E0	-1.215704155E1	5.834619999E0	5.117129326E0
1.574278992E0	-1.223359871E1	9.244110107E0	6.413393497E0
1.582399261E0	-6.445157051E0	5.125037193E0	9.777368546E0
1.590514684E0	-1.634938002E0	1.328645706E0	5.423273563E0
1.598623646E0	1.162470341E0	-7.543349266E-1	2.601941586E0
1.606745299E0	3.109936714E0	-2.650593996E0	1.445952415E0
1.614834953E0	3.961044312E0	-3.216232538E0	7.127714157E-2
1.622971645E0	5.345011234E0	-3.248429537E0	-1.786694527E0
1.631080876E0	3.978493690E0	-2.261308193E0	-6.397387505E0
1.639295453E0	1.909497738E0	-6.624660492E-1	-8.381436348E0
1.647431492E0	8.079237938E-1	6.410608292E-1	-8.596231461E0
1.655521338E0	2.056369781E-1	1.695557594E0	-6.666155815E0
1.663642222E0	-6.499190331E-1	2.304765701E0	-3.610121965E0
1.671763030E0	-4.319963455E-1	2.598443985E0	-1.266729116E0
1.679867838E0	3.205285072E-1	1.376741886E0	1.938271523E-1
1.687989876E0	2.334415436E0	-6.925573349E-1	2.377264500E0
1.696094068E0	1.981636047E0	-1.597051144E0	1.907935619E0
1.704215068E0	-3.658828735E-1	-1.859392643E0	2.312427044E0
1.712332030E0	-2.088333130E0	-2.458384991E0	2.212261200E0
1.720525222E0	-3.660458088E0	-2.871796608E0	1.946929932E0
1.728645260E0	-4.785686493E0	-2.984297752E0	1.540696144E0
1.736734491E0	-5.625118732E0	-2.282184601E0	1.483560801E0
1.744872068E0	-6.335710526E0	-9.493050575E-1	1.639637947E0
1.752979530E0	-6.644912243E0	5.338497162E-1	8.256671429E-1
1.761131337E0	-6.644548416E0	1.921175957E0	2.172284126E-1
1.769268876E0	-6.632077217E0	3.397401810E0	-5.569481850E-1
1.777356953E0	-6.591406822E0	4.989064217E0	-1.572175741E0
1.785479068E0	-6.501616478E0	6.536860466E0	-2.610230923E0
1.793602606E0	-6.212183952E0	7.607863426E0	-3.495529175E0
1.801814068E0	-5.627698898E0	8.550420761E0	-3.661181927E0
1.809934760E0	-2.162815571E0	8.686839104E0	-3.799191952E0
1.818038068E0	3.901600838E-2	7.983968735E0	-2.717990398E0
1.826158375E0	3.790024757E0	6.129888535E0	-1.987008691E0
1.834274568E0	6.653757572E0	4.304639816E0	-1.667512417E0
1.842400606E0	7.191508770E0	2.467787743E0	-1.618210196E0
1.850520298E0	4.539565563E0	5.328502655E-1	-2.027458191E0
1.858640106E0	3.403244734E0	-6.185698509E-1	-2.254885912E0
1.866772760E0	2.918177843E0	-1.368009567E0	-1.930848241E0
1.874879414E0	1.354211569E0	-1.748631001E0	-1.778890610E0
1.883090414E0	-2.361941338E-1	-1.509435654E0	-1.110517979E-1
1.891225337E0	-9.997098446E-1	-8.374490738E-1	1.201963186E0
1.899346644E0	-6.749784946E-1	-3.246755600E-1	2.022531509E0
1.907466106E0	-1.933493614E-1	-5.219745636E-2	1.988471270E0
1.915587721E0	3.389678001E-1	-5.162687302E-1	1.244688034E0
1.923805106E0	1.969356537E-1	-1.008936882E0	1.664476395E-1
1.931926875E0	5.252671242E-1	-8.693070412E-1	3.412842751E-2
1.940031144E0	6.111822128E-1	-5.207014084E-1	8.868510723E-1
1.948151375E0	1.092008591E0	-5.801486969E-2	1.243183851E0
1.956267529E0	1.227080345E0	1.731519699E-1	1.139521599E0
1.964457952E0	1.228405952E0	2.774896622E-1	3.590302467E-1
1.972546106E0	1.000804424E0	3.081464767E-1	-4.909207821E-1
1.980633144E0	5.270142555E-1	3.313941956E-1	-1.245697498E0
1.988766298E0	1.524696350E-1	2.748317719E-1	-2.107575417E0
1.996872990E0	-2.452654839E-1	3.176078796E-1	-2.706805229E0
2.005068913E0	-8.346486092E-1	5.309476852E-1	-2.970068216E0
2.013203067E0	-1.046319246E0	7.348604202E-1	-2.955310345E0
2.021291182E0	-8.205356598E-1	8.799982071E-1	-2.782565832E0
2.029413529E0	-3.542108536E-1	9.998302460E-1	-2.100693941E0
2.037536298E0	3.458032608E-1	1.061546326E0	-9.845654964E-1
2.045720221E0	7.182011604E-1	9.568758011E-1	-2.001109123E-1
2.053841259E0	7.587938309E-1	6.967601776E-1	2.583997250E-1
2.061945298E0	4.740471840E-1	2.891111374E-1	2.797865868E-1
2.070066336E0	-2.076148987E-2	-1.549224854E-1	8.275961876E-2
2.078182413E0	-7.176513672E-1	-5.191345215E-1	-1.944403648E-1
2.086286874E0	-1.797107697E0	-6.220636368E-1	-4.771788120E-1
2.094408221E0	-1.421861172E0	-6.155619621E-1	-1.068831682E0
2.102495451E0	-9.433951378E-1	-5.921530724E-1	-9.307231903E-1
2.110630605E0	-3.658204079E-1	-6.743216515E-1	-7.925877571E-1
2.118736874E0	2.522411346E-1	-6.693706512E-1	-6.326794624E-1
2.126922105E0	9.665293694E-1	-5.305056572E-1	-3.845884800E-1
2.135057605E0	1.445821762E0	-2.724099159E-1	1.363205910E-1
2.143146836E0	2.083781719E0	1.072120667E-2	6.310596466E-1
2.151268490E0	1.783250809E0	3.534345627E-1	2.497713566E-1
2.159390067E0	4.367275238E-1	4.783525467E-1	-1.829981804E-2
2.167494874E0	-1.253514290E0	2.752389908E-1	-5.300981998E-1
2.175616259E0	-2.282476902E0	7.784843445E-3	-9.151711464E-1
2.183754066E0	-2.780565739E0	-2.334213257E-1	-1.263275146E0
2.191873682E0	-2.525761843E0	-5.763030052E-1	-1.138807893E0
2.199991836E0	-1.881139040E0	-8.890686035E-1	-1.861910820E-1
2.208177720E0	-1.129050255E0	-1.129761696E0	-8.721899986E-2
2.216296682E0	-6.010062695E-1	-1.317944050E0	-2.022838593E-1
2.224385797E0	-3.268289566E-1	-1.371191978E0	-5.330545902E-1
2.232521143E0	1.813840866E-2	-1.113838196E0	-1.091560006E0
2.240627797E0	-7.636070251E-2	-6.954541206E-1	-1.391362906E0
2.248732335E0	-7.439107895E-1	-3.966989517E-1	-1.567662001E0
2.256868182E0	-1.641204596E0	-6.942844391E-2	-1.663055062E0
2.264956605E0	-2.694847345E0	7.041597366E-1	-1.607216716E0
2.273076835E0	-2.222565889E0	5.938720703E-1	1.018990278E0
2.281198605E0	2.706460953E-1	4.791707993E-1	1.797877312E0
2.289410143E0	1.653922081E0	2.201442719E-1	2.264997721E0
2.297529681E0	2.891064167E0	3.413009644E-2	2.236150980E0
2.305632566E0	3.855261803E0	-1.011562347E-2	2.119601488E0
2.313751181E0	4.980733871E0	-1.309070587E-1	1.916437626E0
2.321866181E0	5.673129559E0	-6.323947906E-1	1.596480370E0
2.329948412E0	6.782756805E0	-1.318415165E0	1.098611832E0
2.338067374E0	6.129852772E0	-1.465232849E0	5.481185913E-1
2.346154758E0	4.524392128E0	-1.164753437E0	8.107876778E-2
2.354291527E0	3.250400543E0	-8.661246300E-1	-3.101620674E-1
2.362397950E0	2.015131950E0	-2.363262177E-1	-6.879225969E-1
2.370608489E0	-2.192864418E-1	5.607986450E-1	-2.352904081E-1
2.378741758E0	-2.404001951E0	9.661140442E-1	3.402628899E-1
2.386831450E0	-1.928731441E0	4.354972839E-1	-2.939984798E-1
2.394951219E0	-2.093297958E0	4.533796310E-1	-1.563653946E-1
2.403071566E0	-2.315798044E0	2.827053070E-1	-5.600953102E-2
2.411186412E0	-2.204100847E0	1.600399017E-1	-3.102210760E-1
2.419306681E0	-2.468402863E0	3.885841370E-2	-2.995914221E-1
2.427409719E0	-3.278648853E0	4.217052460E-2	-9.072375298E-2
2.435530258E0	-3.453970432E0	-1.170396805E-1	4.304046631E-1
2.443652681E0	-2.137501001E0	-3.530435562E-1	7.278466225E-1
2.451842258E0	-9.691429138E-1	-2.732992172E-1	1.083707333E0
2.459961604E0	1.060522079E0	-1.424160004E-1	7.979557514E-1
2.468050181E0	-9.389245510E-1	4.782285690E0	6.119017601E-1
2.476184758E0	-5.134491920E-1	2.370474815E0	4.064352512E-1
2.484291411E0	7.893133163E-2	9.778594971E-2	9.120249748E-2
2.492528681E0	1.383125305E0	-1.298113346E0	4.788784981E-1
2.500661758E0	1.980497360E0	2.166537285E0	1.779921055E-1
2.508748950E0	4.555130005E-1	-6.318397522E-1	7.240700722E-2
2.516868527E0	-2.104657173E0	-2.595529556E-1	6.710538864E-1
2.524989681E0	-2.552788734E0	-4.725661278E-1	3.723475933E-1
2.533201719E0	-2.292004347E0	-1.272396564E0	-2.066249847E-1
2.541324180E0	-9.527060986E-1	-9.595937729E-1	-7.430601120E-2
2.549428873E0	4.771428108E-1	1.746463776E-2	-2.551722527E-2
2.557551527E0	1.047152042E0	8.406629562E-1	1.719379425E-2
2.565668142E0	1.024561405E0	9.491434097E-1	-2.006936073E-2
2.573792603E0	1.020943165E0	8.290576935E-1	-4.793763161E-2
2.581913796E0	1.328359604E0	8.385524750E-1	-6.415748596E-2
2.590002680E0	2.057353020E0	7.769279480E-1	-8.200716972E-2
2.598137757E0	2.890807629E0	8.610706329E-1	4.253983498E-2
2.606243411E0	1.869467258E0	8.180465698E-1	5.810046196E-2
2.614433642E0	-4.510641098E-2	3.068189621E-1	4.684467316E-1
2.622567796E0	-2.287524939E0	-2.187194824E-1	-4.939484596E-2
2.630654180E0	-2.717810869E0	-8.979854584E-1	6.325056553E-1
2.646892065E0	-3.658771515E-2	-1.233459473E0	1.571822166E-2
2.655004988E0	2.878031731E-1	-1.006895542E0	-1.691997051E-1
2.663123103E0	-2.463626862E-2	-6.762466431E-1	-2.004134655E-1
2.671223065E0	1.166200638E-2	-4.401254654E-1	-1.122260094E-1
2.679342565E0	4.245390892E-1	-4.097757339E-1	4.405212402E-2
2.687458295E0	9.361891747E-1	-3.128986359E-1	2.004456520E-2
2.695646641E0	2.293291569E0	2.334079742E-1	2.346210480E-1
2.703765564E0	1.660240650E0	2.329730988E-2	-2.827467918E-1
2.711850911E0	3.049472809E0	-3.525953293E-1	4.704430103E-1
2.728089911E0	-2.103321791E0	-4.797372818E-1	2.508580685E-1
2.736331487E0	5.486698151E-1	-1.545267105E-1	1.427859306E0
2.744465026E0	4.776044846E0	1.142868996E0	2.400552273E0
2.752550987E0	3.958870888E0	7.695503235E-1	1.602344990E0
2.760670218E0	1.653128147E0	-2.013607025E-1	-2.775502205E-1
2.768789141E0	-7.750332355E-1	-1.204211235E0	-1.468863726E0
2.776998449E0	-3.689336777E0	-8.088951111E-1	-2.525775433E0
2.785117833E0	-6.011377335E0	-1.362743378E-1	-3.316842556E0
2.793219487E0	-6.647543430E0	1.946840286E-1	-3.208350897E0
2.801338103E0	-4.165273666E0	-2.422647476E-1	-1.188135743E0
2.809451603E0	-1.539320469E0	-6.045427322E-1	1.157307148E0
2.817578949E0	2.792739868E-1	-7.003536224E-1	1.817902327E0
2.825698179E0	1.954048157E0	-2.235403061E-1	1.506454229E0
2.833783410E0	2.655542850E0	9.339714050E-2	1.114887953E0
2.841918641E0	2.425372601E0	9.833488464E-1	2.945034504E-1
2.850024987E0	8.043131828E-1	7.092580795E-1	-5.934330225E-1
2.858208948E0	-3.115592003E-1	5.004730225E-1	-1.427846193E0
2.866343910E0	-7.788867950E-1	2.842998505E-1	-1.794458270E0
2.874432948E0	-7.845606804E-1	3.272342682E-1	-1.393353462E0
2.882553756E0	5.158758163E-2	2.469835281E-1	-8.958375454E-1
2.890674948E0	1.351237297E0	-5.432033539E-2	-3.725378513E-1
2.898778025E0	2.847577572E0	-6.503691673E-1	-7.582998276E-2
2.906897064E0	2.788226604E0	-9.761343002E-1	2.578909397E-1
2.914999025E0	3.105572701E0	-9.319610596E-1	7.879014015E-1
2.923118717E0	2.689495087E0	-1.126146317E-1	2.578346729E-1
2.931237064E0	3.383410931E0	2.009277344E-1	1.525850296E-1
2.947545679E0	6.797571182E-1	1.860427856E-2	-3.087092638E-1
2.955635102E0	2.367076874E-1	7.040090561E-1	-2.254110575E-1
2.963770717E0	1.643151283E0	7.880926132E-1	-7.428717613E-2
2.971876833E0	2.991725922E0	1.980791092E-1	4.470832348E-1
2.980009140E0	3.702713966E0	-4.198789597E-1	7.345268726E-1
2.988144371E0	4.240061760E0	-8.321542740E-1	7.916362286E-1
2.996232563E0	3.851552248E0	-1.071782112E0	3.808829784E-1
3.004354409E0	1.862718105E0	-7.739324570E-1	-4.096758366E-1
3.012475679E0	4.184727669E-1	-1.719989777E0	-1.523793817E0
3.020688563E0	-3.415421486E0	-7.972612381E-1	-1.446472406E0
3.028811679E0	-5.186797142E0	1.139809608E0	-1.706127882E0
3.036915409E0	-7.103898048E0	1.613768578E0	-2.574307680E0
3.045037140E0	-5.418614388E0	1.128839493E0	-2.450682402E0
3.053153217E0	-2.145605564E0	8.824119568E-1	-1.022399426E0
3.061259371E0	-1.085903406E0	-6.331720352E-1	-8.829820156E-1
3.069380640E0	-5.236282349E-1	-1.195510864E0	-3.067951202E-1
3.077470063E0	-7.279186249E-1	-6.199274063E-1	3.721146584E-1
3.085607255E0	-2.889941216E0	-4.402332306E-1	1.307826519E0
3.093711832E0	-3.974941730E0	-8.213539124E-1	1.584984779E0
3.101893563E0	-3.505452156E0	-6.972494125E-1	1.426906347E0
3.110026409E0	7.291078568E-3	-1.213413715E0	1.362771273E0
3.118114101E0	1.145262718E0	-1.056691170E0	1.963383198E0
3.126234332E0	7.659366131E-1	-2.332515717E-1	2.250185966E0
3.134358063E0	-3.821923733E-1	2.966585159E-1	1.829857588E0
3.142473794E0	1.844376802E0	2.915706635E-1	1.394506216E0
3.150596140E0	2.326050282E0	8.699417114E-2	1.053187609E0
3.158699524E0	2.395035744E0	-7.259750366E-2	4.566805363E-1
3.166820793E0	1.849154711E0	-4.800243378E-1	-4.042007923E-1
3.174938409E0	3.197371960E-1	-8.396358490E-1	-1.168696284E0
3.183129140E0	-1.053447723E0	-6.168050766E-1	-1.348166108E0
3.191249716E0	-5.840332508E-1	-2.869701385E-2	-8.621894121E-1
3.199339024E0	-7.534766197E-2	5.038986206E-1	-5.354881287E-1
3.207476101E0	-4.309678078E-2	4.531784058E-1	-2.267963886E-1
3.215581409E0	3.554828167E-1	5.413932800E-1	-1.084654331E-1
3.223701909E0	5.090973377E-1	1.271151543E0	-5.936354399E-1
3.231836293E0	3.100301027E0	7.230911255E-1	2.360310555E-1
3.239921755E0	2.995175838E0	-2.481555939E-2	-2.015113831E-1
3.248040909E0	6.330103874E0	-7.554893494E-1	-3.190019131E-1
3.256160255E0	5.620134354E0	-9.888787270E-1	-1.386757374E0
3.264371101E0	6.547777653E-1	-7.535209656E-1	-2.674723148E0
3.272489947E0	-1.300975680E0	-1.205928802E0	-2.815264225E0
3.280593562E0	-7.800844193E0	3.950338364E-1	-2.106479645E0
3.288714370E0	-9.739336014E0	1.462674141E0	-5.908908844E-1
3.296830716E0	-6.775121689E0	1.062049866E0	9.977812767E-1
3.304946178E0	-4.401922703E0	2.095851898E-1	1.852670193E0
3.313065716E0	-1.956113815E0	1.048479080E-1	1.688937902E0
3.321187370E0	5.580623150E-1	-1.213760376E-1	1.700270176E0
3.329320908E0	1.380478859E0	-4.569158554E-1	1.671348810E0
3.337426985E0	8.710741997E-1	-7.784814835E-1	1.427397490E0
3.345643062E0	-1.862525940E-2	-6.030216217E-1	1.018610954E0
3.353776870E0	-6.497340202E-1	-3.486213684E-1	4.413440228E-1
3.361864447E0	-2.209212780E0	-7.197084427E-1	-3.975896835E-1
3.369984562E0	1.783111095E-1	-3.779630661E-1	6.531555653E-1
3.378105908E0	1.199894905E0	3.170166016E-1	3.433191776E-1
3.386213793E0	1.243197441E0	9.388828278E-1	-8.142231703E-1
3.394334100E0	4.796591759E0	-1.283740997E-1	1.693693638E0
3.402436869E0	1.090633631E0	4.880762100E-1	-2.672646046E-1
3.410556677E0	1.121492386E-1	4.568033218E-1	4.607236385E-1
3.418671292E0	1.135412216E0	3.528280258E-1	-4.352213144E-1
3.426859292E0	3.119084835E0	-1.461982727E-1	-1.759886265E0
3.434979177E0	4.000045776E0	-9.635744095E-1	-2.401403904E0
3.443068600E0	1.258008718E0	-2.086227894E0	-2.106164694E0
3.451203215E0	-3.558552742E0	-2.283288956E0	-1.603760123E0
3.459308831E0	-5.094390869E0	-1.131802082E0	-1.138549685E0
3.467434908E0	-2.304810047E0	-3.499727249E-1	-3.643627167E-1
3.475571677E0	-3.081417084E-2	7.263479233E-1	1.885807514E-1
3.483659408E0	2.031991482E-1	5.308990479E-1	6.954052448E-1
3.491780869E0	-1.616022587E0	2.742280960E-1	-1.131772995E-1
3.499902908E0	-9.661633968E-1	1.902751923E-1	5.225210190E-1
3.508088023E0	9.919214249E-2	5.087051392E-1	2.462856770E-1
3.516207061E0	9.035561085E-1	6.789693832E-1	1.313176155E-1
3.524308023E0	1.743862867E0	3.454761505E-1	9.030437469E-1
3.532427254E0	2.176280022E0	3.377990723E-1	1.262056112E0
3.540544523E0	1.689888239E0	2.671451569E-1	7.691996098E-1
3.548660561E0	1.128388643E0	3.003215790E-2	1.526460648E-1
3.556779100E0	8.675589561E-1	-1.993064880E-1	-1.200594902E-1
3.564865753E0	7.420833111E-1	-1.386032104E-1	-4.142141342E-2
3.573001177E0	1.060925961E0	4.516515732E-1	1.008644104E-1
3.581105523E0	3.081312180E-1	9.553346634E-1	2.449517250E-1
3.589288215E0	-6.372928619E-2	3.833713531E-1	3.311879635E-1
3.597420407E0	7.813806534E-1	2.570581436E-1	3.522236347E-1
3.605506369E0	5.621089935E-1	2.517232895E-1	1.901717186E-1
3.613627292E0	-4.144551754E-1	3.731613159E-1	1.118130684E-1
3.621748330E0	-6.692290306E-1	2.792177200E-1	-1.285305023E-1
3.629853138E0	7.506561279E-1	7.583808899E-1	-9.365556240E-1
3.637973522E0	-1.409093261E0	3.419408798E-1	-1.910033107E0
3.646074484E0	-1.530092001E0	-3.550291061E-1	-2.150488138E0
3.654195407E0	-2.472070694E0	-9.272241592E-1	-2.147903681E0
3.662311984E0	-2.257308483E0	-7.365493774E-1	-1.836977243E0
3.670499599E0	-1.200583458E0	-2.795066833E-1	-1.306292295E0
3.678618945E0	-1.343648314E0	-2.472038269E-1	-5.597856045E-1
3.686706330E0	-1.260007143E0	-1.452771664E0	-3.654451370E-1
3.694838368E0	-1.977336407E-1	3.288612366E-1	6.029391289E-1
3.702944138E0	-8.770680428E-2	4.168729782E-1	1.193866253E0
3.711081330E0	-1.462030411E-2	-1.094379425E-1	1.609978199E0
3.719217830E0	3.872394562E-2	-2.619333267E-1	1.230379343E0
3.727305253E0	-2.899563313E-1	-3.724288940E-2	6.174316406E-1
3.735426330E0	-5.828378201E-1	-1.156511307E-1	7.025623322E-1
3.751734791E0	4.386177063E-1	3.843164444E-1	8.344640732E-1
3.759857176E0	1.621143818E-1	5.929231644E-1	3.954496384E-1
3.767962868E0	-1.825809479E-3	6.820468903E-1	1.531648636E-2
3.776084945E0	1.369841099E-1	8.163871765E-1	-1.885236263E0
3.784203406E0	6.814773083E-1	6.856470108E-1	-2.276077032E0
3.792326522E0	1.347515821E0	4.389667511E-1	-4.791598320E-1
3.800447483E0	1.363793612E0	3.609495163E-1	8.374295235E-1
3.808536714E0	1.033383846E0	2.073345184E-1	9.024295807E-1
3.816673291E0	8.811597824E-1	2.069387436E-1	4.722721577E-1
3.824782176E0	6.599361897E-1	2.885923386E-1	-2.863917351E-1
3.833000483E0	5.351619720E-1	1.411952972E-1	-6.410988569E-1
3.841136175E0	5.860323906E-1	-5.288410187E-2	-9.890317917E-1
3.849223829E0	2.590243816E-1	-4.182529449E-1	-1.063984513E0
3.857342522E0	4.301238060E-2	-5.603046417E-1	-9.662706852E-1
3.865464060E0	-8.264923096E-2	-5.794944763E-1	-6.853408813E-1
3.873577137E0	7.062220573E-2	-4.093570709E-1	-4.262850285E-1
3.881698021E0	-2.096176147E-2	-2.426948547E-1	-2.792792320E-1
3.889801445E0	-1.193983555E-1	-2.229185104E-1	-7.826972008E-2
3.897923868E0	-2.209305763E-2	-2.181806564E-1	-4.540419579E-2
3.906039675E0	-1.922171116E-1	-3.462142944E-1	1.481509209E-2
3.914239098E0	-6.648337841E-1	-4.344482422E-1	9.830713272E-2
3.922360829E0	-1.116456985E0	-3.477802277E-1	1.186921597E-1
3.930452367E0	-1.244597912E0	-1.027717590E-1	1.019902229E-1
3.938591021E0	-8.810248375E-1	-7.572364807E-2	1.393930912E-1
3.946699098E0	8.654940128E-1	-3.069038391E-1	2.650809288E-1
3.954819637E0	1.453532696E0	8.430385590E-2	1.549124718E-2
3.962954329E0	-2.819435596E-1	3.400974274E-1	4.000902176E-2
3.971043290E0	-6.436316967E-1	1.098737717E-1	2.979362011E-1
3.979165637E0	-5.705471039E-1	-3.593587875E-1	4.414446354E-1
3.987289136E0	1.813676357E-1	-4.739179611E-1	2.409813404E-1
3.995481944E0	-7.512068748E-1	-1.154077530E0	1.943619251E-1
4.003605098E0	-9.087251425E-1	-7.258882523E-1	1.557931900E-1
4.011709483E0	-1.022162914E0	-3.562364578E-1	1.239869595E-1
4.019831021E0	-1.246653795E0	-1.908302307E-1	1.338248253E-1
4.027948406E0	-1.799607754E0	-1.108837128E-1	1.474025249E-1
4.036053944E0	-2.145331621E0	-1.273012161E-1	3.151512146E-1
4.044143752E0	-1.714549780E0	-1.736164093E-2	4.673008919E-1
4.052232713E0	-1.058370471E0	1.541547775E-1	5.353057384E-1
4.060370752E0	-4.006664753E-1	2.363243103E-1	3.651244640E-1
4.068479059E0	3.441121578E-1	2.875032425E-1	1.400375366E-2
4.076664790E0	9.122350216E-1	2.684106827E-1	-3.370125294E-1
4.084802059E0	1.125513554E0	1.623430252E-1	-5.794830322E-1
4.092890944E0	5.838713646E-1	-9.134006500E-2	-5.837223530E-1
4.101011905E0	8.856008053E-1	2.144813538E-3	-5.438601971E-1
4.109135790E0	1.542548656E0	1.071672440E-1	-4.440042973E-1
4.117239328E0	2.687443495E0	2.688798904E-1	-5.165746212E-1
4.125359828E0	4.492171288E0	3.853654861E-1	-8.448634148E-1
4.133496405E0	4.331749439E0	-4.436588287E-2	-9.015405178E-1
4.141618213E0	1.120405197E0	-5.998458862E-1	2.750992775E-2
4.149735444E0	1.379335880E0	-6.419343948E-1	3.314092159E-1
4.157924790E0	1.647377729E0	-2.588663101E-1	6.888740063E-1
4.166045020E0	1.355219126E0	3.846759796E-1	6.771111488E-1
4.174134059E0	9.830000401E-1	1.140954018E0	6.066117287E-1
4.182268867E0	-6.848001480E-2	1.463772774E0	6.013665199E-1
4.190374405E0	-6.852920055E-1	1.420080185E0	3.804779053E-1
4.198475559E0	-9.109258652E-1	9.105806351E-1	-5.240559578E-2
4.206611751E0	-1.715491295E0	2.644767761E-1	-1.811096668E-1
4.214700520E0	-2.821005344E0	-3.377885818E-1	-6.617426872E-2
4.222823905E0	-3.471127272E0	-7.935132980E-1	5.157399178E-2
4.230944597E0	-2.965597391E0	-9.103584290E-1	3.317303658E-1
4.239129059E0	-1.877564549E0	-8.596715927E-1	5.217678547E-1
4.247250635E0	-9.697535038E-1	-5.933609009E-1	4.116349220E-1
4.255355059E0	2.241094112E-1	-6.029949188E-1	6.091237068E-2
4.263474866E0	7.432084084E-1	-9.615535736E-1	-4.947025776E-1
4.271592751E0	8.299708366E-1	-7.896404266E-1	-9.422656298E-1
4.279713520E0	9.480786324E-1	-2.355222702E-1	-1.121890664E0
4.287833635E0	1.243561745E0	2.123794556E-1	-8.163598776E-1
4.295922828E0	1.049743176E0	6.194381714E-1	-1.444087029E-1
4.304059366E0	6.163034439E-1	8.412561417E-1	5.599346161E-1
4.312167520E0	1.397197247E-1	7.942895889E-1	1.037960768E0
4.320352366E0	-5.328679085E-2	3.328866959E-1	1.022959709E0
4.328488251E0	4.280776978E-1	-3.011217117E-1	6.636900902E-1
4.336577327E0	3.214251995E-1	-4.621906281E-1	3.953492641E-1
4.344697866E0	1.204056740E-1	3.069105148E-1	1.751966476E-1
4.352820558E0	6.902146339E-2	2.707099915E-1	-1.627633572E-1
4.360930943E0	3.241324425E-1	2.278327942E-3	-3.951983452E-1
4.369051212E0	4.053902626E-1	-7.497816086E-1	-6.879982948E-1
4.377155020E0	7.995429039E-1	-5.752172470E-1	-6.532214880E-1
4.385277250E0	1.321525812E0	-3.083915710E-1	-6.021233797E-1
4.393394750E0	1.171977758E0	3.374004364E-2	-7.198190689E-1
4.401584943E0	7.626993656E-1	2.357797623E-1	-8.756778240E-1
4.409705443E0	1.255624294E-1	2.535953522E-1	-1.134634733E0
4.417827635E0	5.749704838E-1	4.732990265E-2	-1.359074593E0
4.425962712E0	-3.676383495E-1	-9.262561798E-2	-1.337924957E0
4.434067442E0	-1.391662359E0	-2.731800079E-2	-1.267166495E0
4.442172366E0	-1.719878793E0	2.196111679E-1	-1.105210781E0
4.450307365E0	-1.199401617E0	9.056758881E-2	-8.700797558E-1
4.458395404E0	1.879916191E-1	-9.199905396E-2	-5.344127417E-1
4.466514250E0	9.540500641E-1	-4.015855789E-1	-2.379822731E-1
4.474634865E0	7.351427078E-1	-4.314889908E-1	2.228093147E-1
4.482818019E0	3.092722893E-1	-2.176771164E-1	8.694050312E-1
4.490937711E0	7.509739399E-1	-3.470315933E-1	1.343059540E0
4.499040904E0	-2.471590042E-2	-1.739673615E-1	1.627112627E0
4.507159673E0	-1.162352085E0	-8.564853668E-2	1.710137129E0
4.515276288E0	-1.592477798E0	-3.910446167E-2	1.616729259E0
4.523407134E0	-1.587102413E0	-1.156826019E-1	1.498654127E0
4.531525788E0	-6.289992332E-1	-6.773567200E-2	1.094584703E0
4.539612750E0	-1.155455112E-1	4.264259338E-2	8.981168270E-1
4.547747442E0	-4.095578194E-2	2.985477448E-2	6.537704468E-1
4.555854096E0	-2.897565365E-1	-1.813650131E-1	3.835315704E-1
4.564038480E0	-2.563745975E-1	-1.773443222E-1	1.823587418E-1
4.572174711E0	2.696156502E-2	-1.965522766E-3	2.188651562E-1
4.580263942E0	3.377754688E-1	1.437635422E-1	2.363500595E-1
4.588384288E0	5.227899551E-2	1.459779739E-1	-8.063793182E-2
4.596505173E0	-5.737929344E-1	6.704044342E-2	-6.170523167E-1
4.604627096E0	-9.757765532E-1	4.269409180E-2	-1.214651108E0
4.612749288E0	-1.124387741E0	1.565608978E-1	-1.810905814E0
4.620853865E0	-1.039411545E0	4.176073074E-1	-2.080800772E0
4.628942519E0	-1.237142682E0	4.508953094E-1	-1.698975444E0
4.637060211E0	-1.387936234E0	2.359838486E-1	-1.079976082E0
4.645250788E0	-5.846812725E-1	-1.008644104E-1	-6.013259888E-1
4.653371672E0	-1.790421009E-1	-1.623716354E-1	3.093507290E-1
4.661457249E0	1.626336575E-1	-4.125652313E-1	8.850626945E-1
4.669593711E0	1.701216698E-1	-3.514690399E-1	1.272772789E0
4.677700557E0	1.754851341E-1	-2.191791534E-1	1.487308264E0
4.685803249E0	1.426911354E-1	-3.056306839E-1	1.513011932E0
4.693940211E0	2.089385986E-1	-5.832366943E-1	1.396498442E0
4.702031788E0	3.083806038E-1	-6.770105362E-1	1.168333769E0
4.710153480E0	1.443474293E-1	-4.957227707E-1	8.810698986E-1
4.718274249E0	6.894478798E-1	7.648468018E-4	4.883148670E-1
4.726462364E0	2.103133202E-1	-2.522706985E-1	2.464246750E-2
4.734584749E0	3.627557755E-1	-2.494611740E-1	-4.102954865E-1
4.742688980E0	-6.300663948E-2	1.572160721E-1	-7.114491463E-1
4.750811326E0	-4.065883160E-1	5.974178314E-1	-8.259391785E-1
4.758934095E0	-3.530387878E-1	8.365945816E-1	-8.371376991E-1
4.767068595E0	3.172724247E-1	7.869148254E-1	-9.431132078E-1
4.775191518E0	6.537284851E-1	8.123311996E-1	-9.521273375E-1
4.783280864E0	6.743457317E-1	8.796825409E-1	-9.429088831E-1
4.791416864E0	3.980016708E-1	5.161428452E-1	-8.494571447E-1
4.799523595E0	-2.358286381E-1	8.209877014E-1	-7.246327400E-1
4.807714941E0	-8.216648102E-1	1.245583534E0	-4.199252129E-1
4.815820018E0	-7.122807503E-1	8.966360092E-1	-1.896641254E-1
4.823911018E0	-3.733572960E-1	2.986984253E-1	4.066443443E-2
4.832031941E0	1.570439339E-2	1.329641342E-1	2.713718414E-1
4.840155210E0	4.639968872E-1	1.621425629E0	1.100940704E-1
4.848279710E0	-3.140423298E-1	2.644929886E0	6.480431557E-2
4.856399325E0	-1.105577588E0	2.618173599E0	-1.175053120E-1
4.864500479E0	-1.981723785E0	1.491542816E0	-2.368021011E-1
4.872619710E0	-1.796091080E0	-5.727005005E-2	-2.338628769E-1
4.880735672E0	-3.542771339E-1	-4.579763412E-1	-8.169150352E-2
4.897048171E0	-5.429606438E-1	-3.864431381E-1	4.998447895E-1
4.905136402E0	-8.461773396E-1	-4.313964844E-1	7.591149807E-1
4.913271825E0	-8.792804480E-1	-5.816659927E-1	9.580912590E-1
4.921375671E0	-1.265341520E0	-8.612022400E-1	1.069231987E0
4.929479748E0	-1.504899621E0	-1.113449097E0	9.915535450E-1
4.937615710E0	-1.309257984E0	-1.307963371E0	6.911046505E-1
4.945703594E0	-1.209385753E0	-1.565377712E0	3.302044868E-1
4.953824094E0	-1.072277069E0	-1.556223392E0	3.055858612E-2
4.961938556E0	-1.090388179E0	-1.333437920E0	-2.029647827E-1
4.970124363E0	-1.369069815E0	-1.176252842E0	-3.467984200E-1
4.978243517E0	-1.064388633E0	-1.112845421E0	-4.759750366E-1
4.986333094E0	-1.554484367E-1	-8.192043304E-1	-5.997867584E-1
4.994452940E0	4.083254337E-1	-2.656526566E-1	-6.914548874E-1
5.002568402E0	7.530236244E-1	5.435438156E-1	-6.431686878E-1
5.010678940E0	5.936321020E-1	1.310855865E0	-5.422163010E-1
5.018799479E0	2.298188210E-1	1.742456436E0	-5.974862576E-1
5.026889094E0	-5.227057934E-1	1.803427696E0	-5.137655735E-1
5.035026056E0	-1.183149576E0	1.745646477E0	-5.151176453E-1
5.043134132E0	-1.510902524E0	1.519747734E0	-5.010547638E-1
5.051319632E0	-1.217028499E0	1.312683105E0	-5.856523514E-1
5.059456940E0	-3.261603355E0	1.066691399E0	-3.328633308E-2
5.067546248E0	-1.936640620E0	1.028874397E0	-7.599544525E-2
5.083791017E0	-2.718400955E0	8.366966248E-1	8.638243675E-1
5.091908517E0	-2.100684881E0	7.584915161E-1	1.237846375E0
5.100029709E0	-2.231148958E0	6.309823990E-1	1.435121775E0
5.108132401E0	-1.934399843E0	2.178401947E-1	1.914362431E0
5.113424150E0	-4.922026396E-1	-3.119468689E-1	2.411709309E0
5.116254824E0	-1.575648785E-2	-4.053211212E-1	2.399738312E0
5.124372901E0	9.081451893E-1	-6.841096878E-1	2.029044390E0
5.132561594E0	1.362931967E0	-7.966556549E-1	1.354757547E0
5.140682632E0	3.247590065E0	-6.628789902E-1	-3.114671707E0
5.148770747E0	5.356853485E0	-7.232513428E-1	-5.635861397E0
5.156910478E0	5.005824566E0	-1.007299423E0	-1.395718813E0
5.165018632E0	3.552125931E0	-5.433912277E-1	2.371648312E0
5.173120940E0	2.459545135E0	-8.723583221E-1	3.472092390E0
5.181257940E0	2.230263233E0	-8.101968765E-1	2.945007563E0
5.189346670E0	1.815608621E0	-6.440515518E-1	2.522770405E0
5.197467555E0	1.426038265E0	-6.181163788E-1	1.649703979E0
5.205590555E0	-1.983212233E-1	-2.070587635E0	-2.542781830E-2
5.213802593E0	1.542911053E0	-2.705313683E0	-3.552363157E0
5.221924939E0	1.685408354E0	-2.652128220E0	-8.908467293E-1
5.230029247E0	2.566005707E0	-2.586705685E0	-4.969153404E-1
5.238151516E0	2.647512913E0	-2.183193207E0	-8.860212564E-1
5.246270055E0	2.682644844E0	-1.687419415E0	-9.935567379E-1
5.254388901E0	2.641675949E0	-1.042127609E0	-1.309598088E0
5.262477055E0	2.629926920E0	-4.057607651E-1	-1.566015244E0
5.270565170E0	2.489628792E0	3.424491882E-1	-1.945857882E0
5.278700708E0	2.013712883E0	1.031413078E0	-1.425568104E0
5.286807016E0	5.545120239E-1	1.282073975E0	-1.139299273E0
5.294991285E0	-8.001754284E-1	1.261942863E0	-7.488148212E-1
5.303127631E0	-1.934613466E0	9.738149643E-1	-3.794915676E-1
5.311217208E0	-2.490478992E0	4.013166428E-1	-1.434803009E-3
5.319339516E0	-2.312479258E0	-3.885269165E-1	2.017786503E-1
5.327462247E0	-2.128135443E0	-1.103791237E0	1.597437859E-1
5.335704670E0	-2.309378147E0	-1.414089203E0	-6.825506687E-2
5.343826131E0	-2.541056156E0	-1.379745483E0	-2.876183987E-1
5.351929131E0	-2.590476513E0	-1.360840797E0	-3.819146156E-1
5.360048208E0	-2.341284275E0	-1.352200508E0	-3.774058819E-1
5.368164900E0	-1.900448084E0	-1.212214470E0	-3.397977352E-1
5.376362362E0	-1.237542391E0	-1.069418907E0	-3.351049423E-1
5.384481823E0	-5.381700397E-1	-9.956407547E-1	-3.160883188E-1
5.392571708E0	1.905953884E-1	-9.841003418E-1	-4.328612089E-1
5.400707323E0	6.827566624E-1	-1.013440132E0	-5.226212740E-1
5.408816708E0	9.174348116E-1	-9.996547699E-1	-6.296301484E-1
5.417056093E0	8.618360758E-1	-9.136343002E-1	-7.253466845E-1
5.425192823E0	7.391638756E-1	-7.159042358E-1	-8.017740846E-1
5.433282362E0	6.384539604E-1	-2.095699310E-1	-1.201252222E0
5.441403592E0	3.978250027E-1	4.431924820E-1	-1.541750669E0
5.449527746E0	-4.796242714E-2	1.060791969E0	-1.305992961E0
5.457714554E0	5.068854094E-1	1.676813126E0	-1.701611996E0
5.465838400E0	2.107871771E-1	2.689744949E0	-8.593001962E-1
5.473942977E0	3.858320713E-1	3.399055481E0	4.744965434E-1
5.482065592E0	1.655616760E-1	3.683315277E0	6.946579814E-1
5.490185285E0	-5.322161913E-1	3.532613754E0	5.527223945E-1
5.498300323E0	-5.106121302E-1	2.705172539E0	1.099784970E-1
5.506393361E0	8.697366714E-2	1.657958984E0	2.326810360E-2
5.514485977E0	-8.203326464E-1	1.306048393E0	-6.298791766E-1
5.522623823E0	-8.185135722E-1	6.888294220E-1	-9.047730565E-1
5.530733361E0	2.875208855E-2	-1.285581589E-1	-3.826838136E-1
5.538947784E0	9.506253004E-1	-7.780494690E-1	2.022164464E-1
5.547085746E0	1.286658764E0	-1.042047501E0	1.319042146E-1
5.555174823E0	1.654779911E0	-1.241180420E0	3.182023764E-1
5.563295092E0	1.941531420E0	-1.358608246E0	2.910566628E-1
5.571417592E0	2.258722782E0	-1.362228394E0	1.153083444E-1
5.579524746E0	2.296861649E0	-1.106187820E0	2.585214376E-1
5.587646477E0	2.674836159E0	-1.873455048E-1	2.363218367E-1
5.595751438E0	2.750254393E0	1.362848282E0	-6.386333704E-2
5.603874438E0	3.018539429E0	2.564811707E0	-8.132563829E-1
5.611994900E0	3.604865074E0	3.130881310E0	-1.558227420E0
5.620187823E0	3.857953072E0	3.125104904E0	-1.747088313E0
5.628310092E0	3.561162233E0	2.516134262E0	-1.096976995E0
5.636399822E0	3.283382416E0	1.294379234E0	-3.477939963E-1
5.644536669E0	2.706662416E0	-2.503108978E-1	-1.084989607E-1
5.652646553E0	2.180696249E0	-1.234147072E0	-4.085630178E-1
5.660784553E0	1.836987495E0	-1.793484211E0	-6.023595333E-1
5.668921130E0	1.442222238E0	-1.902137280E0	-2.311056554E-1
5.677010476E0	1.223720074E0	-1.878350258E0	3.779377639E-1
5.685131861E0	1.092638254E0	-1.676151752E0	5.911862254E-1
5.693253322E0	1.294934034E0	-1.257808685E0	3.690068722E-1
5.701471207E0	1.455381393E0	-9.994897842E-1	2.874060869E-1
5.709593784E0	1.359026313E0	-9.951286316E-1	3.603841364E-1
5.717698399E0	1.032691479E0	-8.011293411E-1	1.671184301E-1
5.725821553E0	6.942145824E-1	-5.341453552E-1	3.368055820E-2
5.742072976E0	-3.466517925E-1	-1.653547287E-1	1.855683327E-1
5.750192630E0	-8.548364639E-1	2.407073975E-3	3.635577559E-1
5.758281322E0	-1.186017752E0	1.961221695E-1	3.337537348E-1
5.766416014E0	-1.022713780E0	3.660516739E-1	3.180996478E-1
5.774522091E0	-1.042950273E0	3.388299942E-1	2.309279144E-1
5.782707745E0	-7.829835415E-1	2.618989944E-1	8.695578575E-2
5.790843399E0	-7.769761086E-1	1.747760773E-1	1.948264241E-2
5.798932860E0	-8.995040655E-1	1.142625809E-1	-1.342975050E-1
5.807055360E0	-1.103345513E0	4.463100433E-2	-3.028644621E-1
5.815179668E0	-1.122879148E0	-1.219644547E-1	-2.751310170E-1
5.823299399E0	-7.624388933E-1	-2.620258331E-1	-2.831062376E-1
5.831388976E0	-3.654100895E-1	-2.483873367E-1	-2.819094956E-1
5.839496206E0	-1.726090908E-1	-2.249460220E-1	-2.456242144E-1
5.847619129E0	-1.875259876E-1	-1.363735199E-1	-2.098599374E-1
5.855737937E0	6.833934784E-2	-1.519842148E-1	-1.244315654E-1
5.863938283E0	4.076840878E-1	-1.914062500E-1	-1.148678958E-1
5.872058975E0	6.313614845E-1	-3.323259354E-1	-1.552069932E-1
5.880147398E0	6.995198727E-1	-3.942098618E-1	-3.093254566E-1
5.888283937E0	6.787745953E-1	-4.248685837E-1	-3.630656302E-1
5.896392591E0	8.269619942E-1	-3.732891083E-1	-4.485011101E-1
5.904518668E0	8.855578899E-1	-3.351917267E-1	-4.233092070E-1
5.912657206E0	7.245662212E-1	-2.876071930E-1	-2.775722742E-1
5.920749168E0	6.075658798E-1	-2.545719147E-1	-1.851228178E-1
5.928872514E0	5.949325562E-1	-2.619628906E-1	-7.546381652E-2
5.936997706E0	6.278092861E-1	-2.544088364E-1	-7.087217271E-2
5.945184437E0	8.088417053E-1	-2.599554062E-1	-8.323620260E-2
5.953309360E0	8.630459309E-1	-2.738733292E-1	-9.062245488E-2
5.961416706E0	6.320657730E-1	-2.966270447E-1	6.359815598E-3
5.969539552E0	4.535591602E-1	-2.922534943E-1	6.802065670E-2
5.977658052E0	5.734753609E-1	-3.658428192E-1	1.101319641E-1
5.985796321E0	3.565599918E-1	-3.197736740E-1	3.454539180E-2
5.993918975E0	3.061683178E-1	-2.499599457E-1	-1.309186220E-3
6.002009052E0	2.750871181E-1	-5.857849121E-2	2.445596457E-2
6.010147283E0	2.544236183E-1	1.983623505E-1	-3.958721459E-2
6.018257629E0	2.076053619E-2	3.783588409E-1	8.636493981E-2
6.026451859E0	-2.043867111E-1	5.654697418E-1	2.751962245E-1
6.034590590E0	-3.390853405E-1	5.933647156E-1	4.530017078E-1
6.042682398E0	-4.540369511E-1	6.036777496E-1	4.957531691E-1
6.050804090E0	-5.125086308E-1	5.554685593E-1	4.291679263E-1
6.075177167E0	-8.257372379E-1	2.356920242E-1	1.680022478E-2
6.083285705E0	-8.998476267E-1	4.140186310E-2	2.451427281E-2
6.091408705E0	-1.027924776E0	-1.376743317E-1	1.022849083E-1
6.107732821E0	-1.017587662E0	-5.709905624E-1	4.269980192E-1
6.115857628E0	-1.025577784E0	-6.580018997E-1	3.389480114E-1
6.123950705E0	-9.752490520E-1	-6.936111450E-1	2.260429561E-1
6.132091321E0	-9.754052162E-1	-6.806211472E-1	1.451761723E-1
6.140203359E0	-8.799808025E-1	-6.932735443E-1	2.873533964E-2
6.148327128E0	-7.405196428E-1	-7.079133987E-1	-1.685130596E-2
6.156465436E0	-5.324552059E-1	-7.510080338E-1	-7.900214195E-2
6.164557244E0	-2.367978096E-1	-8.272771835E-1	-2.347994894E-1
6.172680782E0	3.012180328E-3	-8.721094131E-1	-4.155202210E-1
6.180803820E0	1.266767979E-1	-9.236698151E-1	-7.147552967E-1
6.188990128E0	2.360329628E-1	-9.966144562E-1	-8.486089706E-1
6.197080320E0	5.359048843E-1	-9.446229935E-1	-9.074735641E-1
6.205187897E0	6.233396530E-1	-8.878536224E-1	-9.797571898E-1
6.213311897E0	6.803429127E-1	-7.761707306E-1	-1.012998462E0
6.221432282E0	6.684043407E-1	-5.682964325E-1	-8.688634038E-1
6.229562474E0	8.250679970E-1	-1.969118118E-1	-4.151975513E-1
6.237687359E0	6.950402260E-1	1.249675751E-1	1.660686135E-1
6.245779628E0	8.451726437E-1	6.885366440E-1	7.662246823E-1
6.253920089E0	1.078602552E0	1.248560905E0	1.120086432E0
6.262032666E0	1.256806135E0	1.769526482E0	1.145675063E0
6.270249320E0	1.361945391E0	2.248665810E0	8.237352371E-1
6.278388397E0	1.591801643E0	2.545646667E0	4.649549723E-1
6.286481089E0	1.909972668E0	2.722150803E0	9.086537361E-2
6.294605358E0	2.314581871E0	2.743853569E0	-1.311770678E-1
6.302729243E0	2.125018835E0	2.136447906E0	-1.090338826E-1
6.310873781E0	1.374456644E0	1.124116898E0	-6.011074781E-2
6.318997858E0	4.239325523E-1	2.014465332E-1	-1.814419329E-1
6.327105243E0	-2.580707073E-1	-5.995588303E-1	-2.409078777E-1
6.335230281E0	-6.810494661E-1	-1.243000984E0	-2.257781625E-1
6.343351089E0	-9.481335878E-1	-1.794034004E0	-2.503735423E-1
6.351544204E0	-1.447099686E0	-2.528542995E0	-3.961345553E-2
6.359669320E0	-1.843007445E0	-2.917947769E0	3.952172399E-2
6.367760243E0	-2.211695671E0	-3.158692360E0	1.015184522E-1
6.375898820E0	-2.524281502E0	-3.267596245E0	1.439337730E-1
6.384008973E0	-2.708571911E0	-3.232169151E0	1.297265887E-1
6.392146473E0	-2.762355089E0	-3.130847454E0	1.966022849E-1
6.400251627E0	-2.741110563E0	-3.235950947E0	3.510843813E-1
6.408341627E0	-2.664843082E0	-3.209719181E0	3.602810204E-1
6.416465089E0	-2.513005972E0	-3.056636333E0	3.249377012E-1
6.424590050E0	-2.430994987E0	-2.956298828E0	2.951979041E-1
6.432805127E0	-2.441015005E0	-2.848498344E0	2.056360841E-1
6.440928127E0	-2.394411564E0	-2.706791878E0	1.047887206E-1
6.449035089E0	-2.365740299E0	-2.679160595E0	3.859889507E-2
6.457158704E0	-2.302255392E0	-2.691022873E0	4.706364870E-2
6.465279627E0	-2.203551292E0	-2.785215855E0	2.262430191E-1
6.473383819E0	-2.115347862E0	-2.854541779E0	4.721130133E-1
6.481506627E0	-1.905500412E0	-2.828387260E0	8.510953188E-1
6.489595319E0	-1.640081406E0	-2.660723209E0	1.237099528E0
6.497734781E0	-1.311279655E0	-2.237624168E0	1.912266970E0
6.505843704E0	-9.830080271E-1	-1.370801449E0	3.058329582E0
6.514055896E0	-6.334049702E-1	-6.402683258E-2	4.653162479E0
6.522192819E0	-7.058470249E-1	7.494764328E-1	5.733013153E0
6.530282550E0	-9.083101749E-1	6.444339752E-1	5.429038048E0
6.538405781E0	-1.214097023E0	5.369758606E-2	3.969935656E0
6.546527781E0	-1.216163397E0	-6.217851639E-1	2.047020912E0
6.554659165E0	-8.956198692E-1	-8.126888275E-1	5.186822414E-1
6.562781819E0	-5.583653450E-1	-6.503295898E-1	-9.903234243E-1
6.570886204E0	-1.619203091E-1	-2.210617065E-3	-2.058700562E0
6.579008742E0	1.375920773E-1	1.034816742E0	-2.274231911E0
6.587127280E0	6.472465992E-1	2.756481171E0	-1.579597950E0
6.595318280E0	1.234207630E0	4.960425377E0	-7.540067434E-1
6.603407011E0	1.733945370E0	7.386193275E0	-4.498847723E-1
6.611495588E0	2.306884289E0	9.843799591E0	-8.997222781E-1
6.619632857E0	2.289156437E0	1.210866928E1	-1.790967107E0
6.627740857E0	1.836100817E0	1.456577682E1	-1.113291502E0
6.635870049E0	2.533437490E0	1.703319931E1	1.933943391E0
6.644006896E0	4.529776096E0	1.923297119E1	4.707338810E0
6.652096165E0	6.908028603E0	2.042755508E1	4.284132004E0
6.660217819E0	8.994401932E0	2.060746384E1	2.989285469E0
6.668339049E0	1.166525459E1	1.973186302E1	1.498080850E0
6.676550203E0	1.613309479E1	1.650327682E1	-3.565222025E-2
6.684672280E0	1.828174973E1	1.265831947E1	-1.583737850E0
6.692775588E0	1.227949810E1	8.727888107E0	-2.203914404E0
6.700898703E0	4.951084137E0	6.990592957E0	-2.212028027E0
6.709015818E0	8.028490543E-1	5.625908852E0	-2.212082863E0
6.717128626E0	-1.561055183E0	3.933100700E0	-2.460382223E0
6.725251011E0	-2.550257206E0	2.235675812E0	-2.251306534E0
6.733340126E0	-3.084159851E0	6.417016983E-1	-1.645419121E0
6.741478934E0	-3.494430780E0	-9.069747925E-1	-7.037760615E-1
6.749588972E0	-3.711458206E0	-2.425312042E0	1.682660282E-1
6.757802549E0	-3.914142370E0	-3.502181530E0	4.491965771E-1
6.765939318E0	-4.030876160E0	-4.526307106E0	4.297104776E-1
6.774030164E0	-4.175329685E0	-5.359025478E0	2.424564362E-1
6.782152164E0	-4.279141426E0	-6.056234360E0	-1.308220923E-1
6.790273472E0	-4.035583496E0	-6.844107151E0	-3.423447609E-1
6.798515895E0	-3.803729534E0	-7.389348984E0	-6.963089705E-1
6.806639664E0	-3.577061892E0	-7.938388348E0	-9.744563699E-1
6.814746395E0	-3.338541269E0	-8.468500137E0	-1.080888033E0
6.822869933E0	-3.038357735E0	-8.906574249E0	-1.288099766E0
6.830988626E0	-2.856235743E0	-9.320337296E0	-1.341339827E0
6.839182510E0	-2.761589050E0	-9.722262383E0	-1.301726103E0
6.847306626E0	-2.570665121E0	-1.001788139E1	-1.422275782E0
6.855399395E0	-2.385138035E0	-1.023636341E1	-1.491829634E0
6.863505895E0	-2.337445974E0	-1.054279327E1	-1.498298645E0
6.871617895E0	-2.283091307E0	-1.084108734E1	-1.439649343E0
6.879853972E0	-2.279595852E0	-1.106370926E1	-1.221091628E0
6.887994279E0	-2.054636240E0	-1.121734810E1	-1.109418035E0
6.896082933E0	-1.947234035E0	-1.138514519E1	-1.106782198E0
6.904204548E0	-1.650421023E0	-1.155031776E1	-1.104286432E0
6.912328818E0	-1.445979357E0	-1.164313221E1	-1.159795880E0
6.920541895E0	-1.207602382E0	-1.182870674E1	-1.194213271E0
6.928662856E0	-1.041129947E0	-1.192037487E1	-1.256204724E0
6.936764625E0	-7.589508295E-1	-1.205006313E1	-1.173818827E0
6.944886164E0	-7.267318964E-1	-1.215576839E1	-1.162171602E0
6.953003702E0	-6.376987696E-1	-1.219222260E1	-1.184540629E0
6.961128317E0	-5.814715028E-1	-1.212631893E1	-1.212964773E0
6.969248125E0	-7.559758425E-1	-1.213545704E1	-1.335154057E0
6.977336971E0	-7.762880325E-1	-1.213372040E1	-1.402780056E0
6.985440125E0	-8.196800351E-1	-1.214298248E1	-1.124019265E0
6.993549202E0	-1.053401589E0	-1.191937256E1	-8.688434958E-1
7.001761510E0	-1.423124313E0	-1.156098366E1	-7.814840674E-1
7.009899125E0	-1.418971896E0	-1.085109806E1	-7.695324421E-1
7.017989356E0	-1.291170835E0	-9.842375755E0	-7.325586677E-1
7.026110817E0	-1.345424771E0	-8.473048210E0	-8.678078651E-3
7.034234163E0	-1.358974576E0	-7.545248985E0	1.336291671E0
7.042474740E0	-1.500192761E0	-7.782615662E0	6.692812443E-1
7.050596471E0	-1.458819270E0	-7.671850204E0	7.457184792E-2
7.058733163E0	-1.185570955E0	-6.707459450E0	7.629123926E-1
7.066853625E0	-6.171797514E-1	-5.158985615E0	1.699598074E0
7.074970086E0	3.849446774E-1	-3.331280708E0	2.399698973E0
7.083159394E0	1.774206161E-1	3.298012733E0	4.010002136E0
7.091277855E0	1.621203184E0	1.621921158E1	9.688570976E0
7.099366548E0	4.191405296E0	2.948621750E1	1.044503307E1
7.107467548E0	8.789807320E0	4.243562317E1	5.085356236E0
7.115573278E0	1.097888756E1	5.151353836E1	-6.621739268E-1
7.123706817E0	9.515821457E0	6.215909576E1	-4.881092072E0
7.131844278E0	8.494958878E0	6.772978973E1	-3.849478722E0
7.139933740E0	5.339550018E0	5.807174301E1	1.246591806E0
7.148055355E0	8.886127472E0	3.341168213E1	3.568923950E0
7.156180701E0	8.374670029E0	1.991337395E1	3.300855398E0
7.164393086E0	5.958995342E0	1.094543552E1	2.136825562E0
7.172514778E0	3.828359127E0	6.216944695E0	1.592343092E0
7.180618432E0	2.505099058E0	3.430452347E0	7.166291475E-1
7.188739778E0	1.270551205E0	1.316906929E0	-9.379285574E-2
7.196857124E0	5.654971600E-1	-2.071123123E-1	-5.796288848E-1
7.204977855E0	-3.192942142E-1	-1.626514435E0	-1.153581381E0
7.213099086E0	-9.695007801E-1	-2.873785496E0	-1.609596133E0
7.221188893E0	-1.180348635E0	-4.160499573E0	-1.801859856E0
7.229323586E0	-1.178336978E0	-5.214572430E0	-1.888803840E0
7.237430470E0	-1.123172045E0	-6.437715530E0	-1.682013273E0
7.245641316E0	-1.108600855E0	-7.428705215E0	-1.587339759E0
7.253777201E0	-1.141073108E0	-8.078104019E0	-1.583793879E0
7.261866086E0	-9.604203105E-1	-8.877311707E0	-1.592936993E0
7.269987047E0	-1.003439665E0	-9.414801598E0	-1.507939577E0
7.278111239E0	-1.026749611E0	-9.839154243E0	-1.455114126E0
7.286258355E0	-1.013644814E0	-1.004998589E1	-1.462800980E0
7.294381393E0	-1.055005670E0	-1.006889057E1	-1.527060986E0
7.302485624E0	-9.968708754E-1	-1.025735092E1	-1.532681227E0
7.310606162E0	-9.845389128E-1	-1.041900826E1	-1.517305493E0
7.318723624E0	-9.182219505E-1	-1.053235626E1	-1.477445841E0
7.326915970E0	-9.145199060E-1	-1.065963745E1	-1.399596214E0
7.335037278E0	-8.507257104E-1	-1.064760971E1	-1.251018763E0
7.343136701E0	-8.410592079E-1	-1.067110729E1	-1.062757254E0
7.351243316E0	-8.923922181E-1	-1.078994179E1	-1.050973415E0
7.359356162E0	-7.186106443E-1	-1.098007488E1	-8.709601164E-1
7.367493085E0	-4.794041216E-1	-1.132284164E1	-5.864214897E-1
7.375629393E0	-2.291097641E-1	-1.168425655E1	-4.746298790E-1
7.383720700E0	-6.622540951E-2	-1.205459404E1	-1.154360175E-1
7.391843085E0	9.345918894E-2	-1.232844067E1	8.615601063E-2
7.399968623E0	6.972205639E-2	-1.236692142E1	-7.816463709E-2
7.408182393E0	-5.871754885E-2	-1.222272873E1	-2.319696546E-1
7.416304585E0	-9.145283699E-2	-1.206623268E1	-2.131811976E-1
7.424410123E0	-1.919376850E-1	-1.210384464E1	-9.942305088E-2
7.432532277E0	-3.167068064E-1	-1.227865982E1	-1.870012283E-2
7.440648546E0	-4.061503708E-1	-1.247375202E1	1.238849163E-1
7.448776546E0	-6.299769878E-1	-1.275146484E1	9.916222095E-2
7.456899508E0	-8.457424045E-1	-1.313562393E1	1.345361471E-1
7.464988700E0	-1.268711209E0	-1.414998436E1	7.585933208E-1
7.481233815E0	-1.765021443E0	-1.589875889E1	1.233386278E0
7.489447585E0	-3.101925373E0	-1.232608509E1	-3.893172741E-1
7.497552700E0	-2.240447760E0	-1.080354214E1	4.233620644E0
7.505643200E0	-1.699928284E0	-1.095091057E1	3.571920872E0
7.513764854E0	3.751822948E0	-8.476308823E0	3.820974112E0
7.521892315E0	1.176370239E1	-3.845970631E0	3.806170702E0
7.530136546E0	1.336520195E1	1.984786606E1	2.813028908E1
7.538258469E0	2.558345318E0	1.378600121E0	7.146629810E0
7.546362969E0	-5.468630791E-1	-1.880267620E0	3.962145805E0
7.554484969E0	-2.470267773E0	-3.184749603E0	-1.878156066E0
7.562604354E0	-1.649584532E0	1.142083168E0	-5.661512852E0
7.570795161E0	-2.029025078E0	1.219230652E1	-8.435343742E0
7.578919392E0	-2.765240669E0	2.913961411E1	-1.101119137E1
7.587010046E0	-2.957659960E0	4.813829803E1	-1.065914631E1
7.595146623E0	-1.199699044E0	6.113479614E1	-1.269687080E1
7.603255353E0	9.208997488E-1	6.867682648E1	-6.931986809E0
7.611382738E0	-3.271449327E0	6.865956116E1	6.805617809E0
7.619518007E0	-7.359329224E0	5.888587570E1	7.194839478E0
7.627608892E0	-1.375940561E0	3.739820480E1	5.585167885E0
7.635731199E0	8.826564550E-1	1.699232101E1	7.676421642E0
7.643845738E0	-9.177833796E-1	5.288585663E0	3.953649521E0
7.652057853E0	-2.868112564E0	2.176513672E-1	2.746701241E0
7.660180584E0	-3.362419128E0	-2.020600796E0	7.930120230E-1
7.668283661E0	-2.703784466E0	-2.985582829E0	-9.667324424E-1
7.676405084E0	-1.565013051E0	-3.856675625E0	-2.370590687E0
7.684521584E0	-7.831584215E-1	-4.931812286E0	-2.722141743E0
7.692634545E0	-2.044683695E-1	-5.999064445E0	-2.416893721E0
7.700757930E0	3.656523228E-1	-7.163676262E0	-2.416192055E0
7.708846507E0	9.545351863E-1	-8.313363075E0	-2.429866552E0
7.716982238E0	1.330371618E0	-9.213920593E0	-2.205434799E0
7.725088199E0	1.720198393E0	-9.980884552E0	-1.838028193E0
7.733296276E0	2.362921000E0	-1.065080166E1	-1.434958458E0
7.741430007E0	2.917307854E0	-1.121689129E1	-1.126560092E0
7.749519584E0	2.976917267E0	-1.134630871E1	-1.116419315E0
7.757640545E0	2.742168903E0	-1.126676178E1	-1.310277700E0
7.765763314E0	2.511957407E0	-1.107181549E1	-1.460769415E0
7.774008045E0	2.355599165E0	-1.082388592E1	-1.409400702E0
7.782128737E0	2.001965761E0	-1.050892162E1	-1.151952028E0
7.790232122E0	2.137342453E0	-1.052444458E1	-1.304257393E0
7.798351814E0	2.796561003E0	-1.079743862E1	-1.978717327E0
7.806467737E0	2.605435848E0	-1.071131802E1	-2.210425138E0
7.814658122E0	2.829555988E0	-1.095741081E1	-2.142780304E0
7.822779237E0	4.037765980E0	-1.204257011E1	-2.033677101E0
7.830866737E0	4.377864838E0	-1.286513042E1	-2.209402084E0
7.839001237E0	4.404298782E0	-1.359255886E1	-2.250688553E0
7.847106660E0	4.450860023E0	-1.414124680E1	-2.199718952E0
7.855259468E0	4.911355972E0	-1.508079338E1	-2.421451807E0
7.863395545E0	5.624615192E0	-1.769048309E1	2.727309704E0
7.871484968E0	7.694451809E0	-1.901636124E1	4.845516682E0
7.879606660E0	7.401421547E0	-1.878898621E1	4.145820141E0
7.887727660E0	6.466275215E0	-1.785453796E1	1.097025514E0
7.895939275E0	5.581507683E0	-1.689057732E1	-1.283248901E0
7.904061429E0	4.269655704E0	-1.606440353E1	-2.689280033E0
7.912164698E0	3.643222332E0	-1.540537262E1	-3.871733427E0
7.920252352E0	2.269133568E0	-1.489731693E1	-4.255203724E0
7.928368006E0	1.003637910E0	-1.418831062E1	-4.003061295E0
7.936488775E0	2.107094526E-1	-1.341445541E1	-3.864433289E0
7.944609775E0	-2.768990993E-1	-1.217069912E1	-3.884455681E0
7.952696660E0	-1.794492602E0	-9.467112541E0	-4.873014450E0
7.960798237E0	-2.883011818E0	-6.411793709E0	-5.382213116E0
7.968904660E0	-2.070988655E0	-9.330036163E0	-2.004080534E0
7.977115390E0	-2.331535101E0	-9.502949715E0	-1.541408777E0
7.985250698E0	-2.808164120E0	-9.273415565E0	9.173004627E-1
7.993339698E0	-1.241615772E0	-9.306020737E0	1.008649826E0
8.001459544E0	-1.764801621E0	-3.316858292E0	2.585406113E1
8.009579083E0	-3.363771915E0	6.506425858E0	4.083700180E1
8.017729775E0	-3.717053175E0	8.204974174E0	4.267266846E1
8.025817044E0	-3.603431702E0	8.276298523E0	2.567757416E1
8.033920890E0	-8.195472956E-1	7.326695442E0	3.493498325E0
8.042041544E0	1.485047460E0	9.287107468E0	-7.720868111E0
8.050158813E0	1.868688822E0	2.271116638E1	-1.450891304E1
8.058350275E0	3.070648670E0	4.456998825E1	-2.271899414E1
8.066470236E0	2.989877939E0	5.998188400E1	-2.043305016E1
8.074556621E0	8.605869412E-1	6.876074219E1	-4.378387451E0
8.082689813E0	-1.748763800E0	6.874842072E1	7.520729065E0
8.090783659E0	-6.470970154E0	6.484986115E1	9.409445763E0
8.098928928E0	-1.877985716E0	4.291854095E1	9.736835480E0
8.107064852E0	-1.293462038E0	2.217440033E1	4.676218510E0
8.115152659E0	-2.080608368E0	1.130581665E1	1.455905080E0
8.123273698E0	-2.304329872E0	4.971009254E0	-2.144946456E-1
8.131393890E0	-1.857400179E0	5.728807449E-1	-1.735416055E0
8.139602044E0	-9.713562727E-1	-1.858506203E0	-2.795156479E0
8.147720505E0	-2.384744287E-1	-3.888486385E0	-3.186019421E0
8.155823236E0	3.366152644E-1	-5.892965317E0	-2.891829729E0
8.163944159E0	6.949315071E-1	-7.519923210E0	-2.419796467E0
8.172060121E0	9.350830317E-1	-8.916497231E0	-1.869976759E0
8.180180005E0	1.180978298E0	-9.936639786E0	-1.564642668E0
8.188299236E0	1.396663070E0	-1.067704391E1	-1.326472282E0
8.196386505E0	1.612326622E0	-1.108032608E1	-1.324139237E0
8.204520620E0	1.684458375E0	-1.125159645E1	-1.256024003E0
8.212626313E0	1.714921236E0	-1.122485256E1	-9.899256229E-1
8.220835505E0	1.843770981E0	-1.115363312E1	-9.569919705E-1
8.228969890E0	2.087344646E0	-1.113428116E1	-8.916419744E-1
8.237059389E0	2.284666300E0	-1.109958649E1	-8.274924755E-1
8.245179851E0	2.245080948E0	-1.098962593E1	-6.760065556E-1
8.253301889E0	2.216496229E0	-1.086933899E1	-5.970746279E-1
8.261455197E0	2.262742043E0	-1.081735802E1	-6.620334387E-1
8.269577312E0	2.176860809E0	-1.077579498E1	-6.990197897E-1
8.277681812E0	2.153214216E0	-1.082329845E1	-7.480525970E-1
8.285775620E0	1.821803927E0	-1.049760532E1	-8.458322883E-1
8.293893620E0	1.856051922E0	-1.066281700E1	-8.022145033E-1
8.302080505E0	1.739818335E0	-1.071252918E1	-7.721455693E-1
8.310200697E0	1.559476852E0	-1.051954460E1	-7.596544027E-1
8.318288235E0	1.406393528E0	-1.051968479E1	-9.261514544E-1
8.326418581E0	1.271799803E0	-1.060301781E1	-1.080312014E0
8.334506543E0	1.278982997E0	-1.106424904E1	-1.044132829E0
8.342630197E0	2.756663799E0	-1.411311150E1	2.056280136E0
8.350732658E0	2.917191982E0	-1.451496792E1	3.246691704E0
8.358823620E0	2.883964539E0	-1.590596104E1	4.006970406E0
8.366944043E0	2.968516827E0	-1.652809906E1	3.605439186E0
8.375067889E0	2.283365965E0	-1.680318832E1	1.771135688E0
8.383218504E0	1.158292890E0	-1.701238632E1	3.202462196E-1
8.391338966E0	-3.305351734E-2	-1.680537033E1	-2.108721733E0
8.399457427E0	-5.227386951E-1	-1.672269630E1	-3.417541742E0
8.407577773E0	-6.169508696E-1	-1.627612686E1	-4.266038418E0
8.415694389E0	-1.425017357E0	-1.575173187E1	-5.764301300E0
8.423805350E0	-3.803397179E0	-1.187243843E1	-6.430685043E0
8.431892235E0	-5.511510372E0	-8.284553528E0	-4.351221085E0
8.439981158E0	-4.681202888E0	-1.312377548E1	4.818037510E0
8.448117196E0	-3.794973850E0	-1.110910225E1	1.076574230E1
8.456225812E0	9.965418816E0	2.470802116E1	1.401259804E1
8.464362889E0	6.468350887E0	7.623376846E0	-1.354557610E1
8.472482042E0	3.805706739E0	-2.957824707E0	-2.248420000E0
8.480587542E0	1.655493975E0	-3.399596691E0	1.335795045E0
8.488709465E0	8.541252613E-1	-2.830314159E0	5.204608440E0
8.496833273E0	5.387443304E-1	6.992759705E-1	6.753777504E0
8.504959735E0	4.401144981E-1	3.461256027E-1	8.337619781E0
8.513049427E0	-2.851531506E-1	3.834636688E0	1.712538910E1
8.521153850E0	5.562205315E-1	1.295948315E1	1.776583099E1
8.529275158E0	1.001804066E1	3.366572952E1	-1.740932584E0
8.537391311E0	1.247613335E1	5.135979843E1	-1.667850494E1
8.545505119E0	2.418146372E0	6.193756104E1	-2.117239571E1
8.553605658E0	-1.447211361E1	6.723622131E1	-1.486445045E1
8.561708619E0	-2.733795547E1	6.655769348E1	-1.938457727E0
8.569844119E0	-2.241840553E1	5.196479797E1	7.137626410E-1
8.577951542E0	-7.556877136E0	3.320825195E1	7.706430435E0
8.586076657E0	-1.753537536E0	1.489763165E1	1.426309967E1
8.594213388E0	-1.511405230E0	5.875952721E0	8.567292213E0
8.602304196E0	-2.339019537E0	2.216296196E0	3.166383028E0
8.610424619E0	-2.070789337E0	4.207057953E-1	3.477507830E-2
8.618547003E0	-1.051954031E0	-1.233750343E0	-1.898141623E0
8.626688196E0	1.944267750E-1	-3.029283524E0	-3.107987881E0
8.634807157E0	1.377848506E0	-4.770843983E0	-3.621936321E0
8.642924657E0	1.952569366E0	-6.163686752E0	-3.633718491E0
8.651046349E0	2.418519497E0	-7.587803364E0	-3.166363001E0
8.659163349E0	2.601080894E0	-8.637328148E0	-2.330889702E0
8.667269080E0	2.934190989E0	-9.589177132E0	-1.234110832E0
8.675390772E0	3.968382835E0	-1.057599735E1	-6.527084112E-1
8.683478926E0	5.679797173E0	-1.169468594E1	-4.870157838E-1
8.691581811E0	6.312699318E0	-1.236083221E1	-8.568699360E-1
8.699689195E0	6.421584129E0	-1.268298817E1	-1.396274090E0
8.707827426E0	6.344780922E0	-1.269822598E1	-2.381804943E0
8.715962426E0	4.945666313E0	-1.207745171E1	-3.018192768E0
8.724066772E0	3.369609833E0	-1.143333530E1	-1.994093657E0
8.732186657E0	3.492905855E0	-1.146835709E1	-1.832679033E0
8.740307964E0	3.468154430E0	-1.159960270E1	-2.009896278E0
8.748430388E0	3.679429531E0	-1.196971321E1	-2.368803263E0
8.756548580E0	4.793645859E0	-1.304352856E1	-2.282366753E0
8.764649118E0	4.894205093E0	-1.366655827E1	-2.186630726E0
8.772734734E0	5.124607086E0	-1.470773506E1	-2.146507978E0
8.780852695E0	6.148924351E0	-1.593484020E1	-2.695212364E0
8.788967387E0	7.704037189E0	-1.699326515E1	-2.941136360E0
8.797068810E0	9.700567245E0	-1.751809502E1	-2.265686750E0
8.805171541E0	1.100463390E1	-1.844277763E1	-2.165576220E-1
8.813303580E0	9.636486053E0	-1.842988205E1	1.646865010E0
8.821409733E0	6.433600903E0	-1.741988564E1	3.405712128E0
8.829534118E0	3.922923565E0	-1.648943710E1	3.130385399E0
8.837671926E0	2.218177080E0	-1.546524620E1	1.391373277E0
8.845759349E0	1.205341697E0	-1.486419487E1	-7.866688967E-1
8.853879195E0	-8.840167522E-2	-1.435325527E1	-2.476989746E0
8.862003387E0	-1.396753669E0	-1.401499176E1	-3.134210587E0
8.870228656E0	-2.473904371E0	-1.322138309E1	-3.905631065E0
8.878350272E0	-2.719355583E0	-1.229049683E1	-4.372939110E0
8.886454195E0	-2.953064442E0	-1.157458496E1	-4.658155918E0
8.894556349E0	-3.696230888E0	-9.753604889E0	-5.673354149E0
8.902674695E0	-3.711642027E0	-9.506288528E0	-3.714412689E0
8.910781656E0	-3.220105648E0	-9.850758553E0	-2.093974113E0
8.918901387E0	-2.453486919E0	-9.549041748E0	-1.642862439E0
8.926989271E0	-1.761851788E0	-9.459670067E0	-1.321392655E0
8.935126118E0	-1.305812836E0	-9.522417068E0	-1.362486601E0
8.943234348E0	-9.273319840E-1	-9.570388794E0	-5.276050568E-1
8.951371464E0	-2.418547153E0	2.884935379E0	2.988214874E1
8.959507733E0	-4.824168205E0	7.951766968E0	4.643115997E1
8.967611387E0	-4.321109295E0	8.405771255E0	2.893444443E1
8.975733694E0	1.334656835E0	9.657357216E0	1.052882910E0
8.983857540E0	1.862903357E0	2.349260330E1	-1.259576130E1
8.991985194E0	5.928554535E0	4.615164185E1	-2.420259285E1
9.000109540E0	7.219909191E0	6.883898926E1	-2.185382843E1
9.008215079E0	7.113516331E0	6.881939697E1	-9.475159645E0
9.016338733E0	9.905471802E0	6.879185486E1	4.780887604E0
9.024446540E0	7.299547195E0	6.666114044E1	1.046924782E1
9.032573694E0	5.529510021E0	4.154466629E1	9.974051476E0
9.040681310E0	2.566201925E0	2.046910095E1	1.345759630E0
9.048788271E0	7.803338766E-1	1.113189793E1	-1.026662827E0
9.056924386E0	-2.814237773E-2	5.356089592E0	-7.723630667E-1
9.065032886E0	-2.980102897E-1	1.569100380E0	-7.772308588E-1
9.073156771E0	-1.033566520E-2	-1.451847076E0	-9.231913090E-1
9.081294309E0	5.343332291E-1	-4.536030293E0	-8.152446747E-1
9.089418155E0	1.018310905E0	-6.848387241E0	-4.808160365E-1
9.097507309E0	1.681272030E0	-8.925638199E0	-2.515881062E-1
9.105630617E0	2.176027775E0	-1.064355087E1	1.800765395E-1
9.113776040E0	2.478673697E0	-1.186105537E1	3.427097797E-1
9.121895771E0	2.471501350E0	-1.239365292E1	1.385700703E-2
9.130014617E0	2.202430010E0	-1.251889801E1	-4.268796444E-1
9.138136232E0	1.821967959E0	-1.244939804E1	-7.056772113E-1
9.146253732E0	1.147315621E0	-1.226712227E1	-8.898297548E-1
9.154359001E0	8.069830537E-1	-1.192672634E1	-1.028368354E0
9.162480271E0	6.080553532E-1	-1.172547054E1	-1.320220113E0
9.170571655E0	5.621607304E-1	-1.165420151E1	-1.632226944E0
9.178708655E0	4.666676521E-1	-1.129622936E1	-1.477300406E0
9.186816117E0	5.430701971E-1	-1.118812752E1	-1.490115404E0
9.194953347E0	2.998968363E-1	-1.084625435E1	-1.216481090E0
9.203090540E0	2.348579466E-1	-1.077857113E1	-1.092113495E0
9.211194617E0	2.470125258E-1	-1.055169201E1	-9.764258265E-1
9.219283424E0	2.550643384E-1	-1.061301708E1	-1.059313774E0
9.227449770E0	3.138482273E-1	-1.045700455E1	-8.490948677E-1
9.235573732E0	3.612129092E-1	-1.054073524E1	-8.150467873E-1
9.243695501E0	8.233873844E-1	-1.098840141E1	-7.671046257E-1
9.251800309E0	8.817152977E-1	-1.170869827E1	-9.277743101E-1
9.259921732E0	8.140826225E-1	-1.202070045E1	-2.582842708E-1
9.268038155E0	6.111947894E-1	-1.211110878E1	-3.389395475E-1
9.276166962E0	-4.626751244E-1	-1.347165203E1	-8.193102479E-1
9.284268962E0	4.398050904E-1	-1.461672115E1	2.731806755E0
9.292372039E0	9.857932925E-1	-1.679143906E1	4.807787418E0
9.300507885E0	1.260976195E0	-1.698004723E1	3.321098566E0
9.308619770E0	2.692158818E-1	-1.680435181E1	8.688919544E-1
9.316744424E0	-8.078124523E-1	-1.671488571E1	-1.837846994E0
9.324880308E0	-1.652173400E0	-1.614932632E1	-3.435998201E0
9.332968193E0	-2.330370188E0	-1.585866547E1	-3.956516027E0
9.341089885E0	-2.765261173E0	-1.550968552E1	-3.570124865E0
9.349208693E0	-3.886057615E0	-1.516660881E1	-2.673648119E0
9.357448731E0	-4.987781048E0	-1.382729912E1	-3.889477491E0
9.365571616E0	-7.193378925E0	-9.861261368E0	-2.231991053E0
9.373674385E0	-7.932271004E0	-1.181496048E1	6.956048489E0
9.381776039E0	-7.828759670E0	-1.121682358E1	7.333403111E0
9.389892808E0	-3.749582291E0	-6.723182678E0	7.285109997E0
9.398004077E0	1.085251236E1	6.093619347E0	-3.902749062E0
9.406126462E0	1.103073502E1	1.059329987E0	1.492222548E0
9.414216154E0	2.816744566E0	-2.666224480E0	6.608109951E0
9.422352231E0	-7.403349876E-1	9.339523315E-2	1.230408573E1
9.430459770E0	-4.049375057E-1	5.425885201E0	1.831585693E1
9.438595346E0	-3.093411684E0	9.192631721E0	7.834799767E0
9.446730154E0	6.289391518E-1	2.950731659E1	-6.826019287E0
9.454808731E0	9.116956711E0	5.622008133E1	-1.885746574E1
9.462892731E0	1.679684448E1	6.909978485E1	-1.704211235E1
9.471014346E0	2.287310600E1	6.907481384E1	-6.614659786E0
9.479125231E0	2.706147003E1	6.902084351E1	4.404363036E-1
9.487243039E0	1.585182095E1	6.235580444E1	5.473225594E0
9.495377808E0	8.796453476E0	3.811251068E1	6.697790146E0
9.503498462E0	4.682096481E0	1.466400528E1	5.139942169E0
9.511606577E0	1.396431923E-1	6.671655655E0	4.265345573E0
9.519688077E0	-2.425363302E0	2.774357796E0	3.758886099E0
9.527808731E0	-2.621942043E0	3.943662643E-1	2.493119717E0
9.535895385E0	-2.001969337E0	-1.876850605E0	6.511327028E-1
9.544030961E0	-1.332679272E0	-3.934353828E0	-7.669625282E-1
9.552137500E0	-7.425653338E-1	-6.483328819E0	-1.549979329E0
9.560264615E0	2.008117586E-1	-8.547813416E0	-1.749973774E0
9.568397038E0	6.467534900E-1	-1.042960930E1	-2.249915361E0
9.576513884E0	1.177709103E0	-1.190391445E1	-2.173990726E0
9.584612307E0	1.600194216E0	-1.278877544E1	-2.174226522E0
9.592716038E0	2.499199152E0	-1.409219742E1	-1.764547229E0
9.600837154E0	2.826710939E0	-1.515135384E1	-1.440932512E0
9.608959077E0	3.276673317E0	-1.560052204E1	-1.173316240E0
9.617062153E0	3.631401062E0	-1.565348339E1	-1.466475368E0
9.625177269E0	3.717547417E0	-1.549252892E1	-2.042410374E0
9.633293192E0	3.555662394E0	-1.504603481E1	-2.309880257E0
9.641491192E0	3.395299911E0	-1.460117531E1	-2.333910227E0
9.649692769E0	3.115868807E0	-1.428742981E1	-2.347980499E0
9.657893576E0	2.912032366E0	-1.403563118E1	-2.151699066E0
9.666108923E0	2.823862791E0	-1.391543388E1	-1.959454775E0
9.674216922E0	2.799529791E0	-1.380253601E1	-1.794347167E0
9.682338884E0	2.775021791E0	-1.382857704E1	-1.939861536E0
9.690472653E0	3.027008772E0	-1.395501423E1	-2.167957783E0
9.698559076E0	3.428888559E0	-1.424399567E1	-2.421184540E0
9.706678807E0	3.948456287E0	-1.476653290E1	-2.271762848E0
9.714800422E0	4.160175323E0	-1.526178551E1	-2.034794092E0
9.723036345E0	4.387795925E0	-1.584151649E1	-1.974887848E0
9.731235230E0	4.558327675E0	-1.675459290E1	-1.374709129E0
9.739353999E0	4.251077175E0	-1.688405609E1	-4.820759296E-1
9.747553230E0	3.184861422E0	-1.666551018E1	5.179563761E-1
9.755666576E0	1.865373373E0	-1.606792641E1	9.900907278E-1
9.763748230E0	8.973842859E-1	-1.526814365E1	4.367610216E-1
9.771836230E0	6.835647821E-1	-1.441046906E1	-2.875514030E-1
9.779923114E0	3.141992092E-1	-1.404539776E1	-1.309615850E0
9.788058307E0	-1.051131487E-1	-1.372962475E1	-2.067289352E0
9.796167537E0	-8.170262575E-1	-1.338586521E1	-2.632769585E0
9.804407153E0	-1.405135989E0	-1.285313606E1	-2.890337944E0
9.812623191E0	-1.884206533E0	-1.213001823E1	-3.081412077E0
9.820728114E0	-2.061541080E0	-1.145365620E1	-2.920452118E0
9.828929076E0	-2.498838425E0	-1.069355774E1	-2.622090816E0
9.837051268E0	-2.788671017E0	-9.888489723E0	-1.897885919E0
9.845171460E0	-3.081011057E0	-9.666607857E0	-1.311458349E0
9.853291153E0	-3.484416246E0	-9.095157623E0	-1.904328346E0
9.861394268E0	-3.159224510E0	-9.331557274E0	-1.461188555E0
9.869480652E0	-2.695066929E0	-9.350332260E0	-1.171269178E0
9.877593883E0	-2.001369238E0	-6.612209797E0	-1.959538937E0
9.885787499E0	-1.397177100E0	5.888109207E-1	9.689634323E0
9.893985537E0	-1.683143616E0	1.180543709E1	4.334244919E1
9.902089499E0	-2.166238785E0	1.084838200E1	4.256796265E1
9.910205768E0	3.645241261E0	8.879119873E0	7.169509888E0
9.918311152E0	9.771087646E0	2.404057312E1	-1.154723263E1
9.926430845E0	1.261331558E1	4.513877106E1	-1.889315796E1
9.934567960E0	1.631433105E1	6.759400940E1	-2.096368027E1
9.942655114E0	1.325512791E1	6.898347473E1	-1.384995270E1
9.950774844E0	6.331844330E0	6.892016602E1	2.618398190E0
9.958888383E0	2.655073166E0	6.885705566E1	1.202193165E1
9.967102152E0	8.772066116E0	4.053345108E1	1.216503239E1
9.975300844E0	6.918385983E0	1.864829254E1	3.981711626E0
9.983417575E0	4.295416832E0	9.372960091E0	2.218587875E0
9.991615114E0	2.817297220E0	4.355299950E0	1.652163506E0
9.999726575E0	1.533629298E0	1.256509781E0	2.223853469E-1
1.000780834E1	1.041805387E0	-1.045701027E0	-1.668873727E-1
1.001592758E1	6.405829191E-1	-3.665509701E0	-3.213126063E-1
1.002401408E1	3.116050959E-1	-5.676713467E0	-3.058308065E-1
1.003214738E1	1.035162210E-1	-7.342494965E0	-7.668471336E-2
1.004025369E1	-1.769126058E-1	-8.770944595E0	-2.106841803E-1
1.004848208E1	-2.072087526E-1	-9.720124245E0	-5.474433303E-1
1.005669611E1	-1.523619294E-1	-1.050371075E1	-7.728286982E-1
1.006479677E1	-3.458553553E-1	-1.123895836E1	-9.703010917E-1
1.007289696E1	-5.226774216E-1	-1.167658424E1	-1.274171233E0
1.008101469E1	-7.033905983E-1	-1.183326817E1	-1.558754921E0
1.008913434E1	-8.623200655E-1	-1.194117546E1	-1.868584156E0
1.009725469E1	-9.056082964E-1	-1.199555397E1	-2.108223677E0
1.010535650E1	-9.169130921E-1	-1.199166489E1	-2.215020180E0
1.011347658E1	-8.288120031E-1	-1.177869225E1	-2.382599354E0
1.012159108E1	-7.764791846E-1	-1.160570431E1	-2.294476748E0
1.012977765E1	-6.947535276E-1	-1.140096474E1	-2.045090437E0
1.013797588E1	-8.082140684E-1	-1.130113411E1	-1.780334592E0
1.014617527E1	-8.175895214E-1	-1.129228973E1	-1.437331438E0
1.015439181E1	-7.319634557E-1	-1.126909447E1	-1.155474305E0
1.016249934E1	-6.100234389E-1	-1.121757317E1	-9.758661985E-1
1.017062011E1	-4.567207396E-1	-1.124302673E1	-7.641559243E-1
1.017875477E1	-4.981099963E-1	-1.123295689E1	-6.902747750E-1
1.018684177E1	-5.982146263E-1	-1.108920956E1	-5.921320915E-1
1.019496011E1	-6.864290237E-1	-1.095538425E1	-4.489057362E-1
1.020308227E1	-7.982287407E-1	-1.096071339E1	-4.448527694E-1
1.021129254E1	-8.604799509E-1	-1.088233280E1	-3.484468162E-1
1.021949188E1	-9.473219514E-1	-1.090212250E1	-1.001044512E-1
1.022761123E1	-1.002508402E0	-1.160145569E1	-2.755118608E-1
1.023581261E1	-1.383980870E0	-1.140975666E1	-8.567175269E-2
1.024392627E1	-1.629170418E0	-1.160340595E1	8.937180042E-2
1.025200907E1	-1.851394415E0	-1.204113197E1	-7.290273905E-3
1.026012834E1	-2.155709505E0	-1.285657883E1	-5.697471499E-1
1.026821411E1	-2.632135391E0	-1.346026802E1	-8.848056793E-1
1.027634769E1	-3.203324318E0	-1.384891891E1	-1.071991205E0
1.028445515E1	-3.887084961E0	-1.458136177E1	-1.660559893E0
1.029266550E1	-5.228230000E0	-1.373400116E1	-1.454366684E0
1.030088077E1	-5.574782372E0	-1.089664841E1	1.207253337E-1
1.030898396E1	-5.418904305E0	-9.784121513E0	4.686642647E0
1.031708457E1	-5.083523750E0	-9.703651428E0	4.545344830E0
1.032520650E1	3.673653126E0	9.624026299E0	4.832330704E1
1.033332500E1	2.188353157E1	2.281983376E1	-6.333103657E0
1.034144630E1	2.343057060E1	2.687170029E0	-2.525930882E0
1.034954819E1	4.219725609E0	-6.570444107E-1	-1.834957123E0
1.035763584E1	-2.989219189E0	5.394420624E-1	-1.301725149E0
1.036575150E1	-3.299018860E0	3.018674850E0	5.349776745E-1
1.037396884E1	-3.269606829E0	4.330162048E0	1.316967726E0
1.038217054E1	-4.232256889E0	7.064867973E0	-1.221166730E0
1.039027361E1	-5.103163242E0	1.836388397E1	-6.778707027E0
1.039842704E1	1.748264790E0	3.524724197E1	-8.663516998E0
1.040653346E1	7.195966721E0	5.238263702E1	-5.245585442E0
1.041464407E1	7.121963978E0	6.557097626E1	2.954457760E0
1.042284942E1	8.769427299E0	6.895181274E1	6.466479301E-1
1.043106657E1	5.494601727E0	5.800722504E1	3.953974724E0
1.043928400E1	3.692690611E0	4.130317307E1	5.819213867E0
1.044750296E1	3.679200649E0	2.451969147E1	7.322956562E0
1.045563680E1	1.528233886E0	9.572267532E0	2.945138693E0
1.046375754E1	-1.870773315E0	3.335881233E0	3.055025101E0
1.047185842E1	-2.932386637E0	1.569061279E-1	3.408519506E0
1.047997738E1	-2.778268337E0	-1.595719337E0	1.838931322E0
1.048809042E1	-2.291504622E0	-3.437100410E0	-8.540366292E-1
1.049630630E1	-1.464348912E0	-5.170175076E0	-2.566180229E0
1.050452000E1	-5.384297371E-1	-6.837373734E0	-3.463565111E0
1.051273719E1	2.632986307E-1	-8.373060226E0	-3.610675812E0
1.052094392E1	8.475228548E-1	-9.783444405E0	-2.976615667E0
1.052914707E1	8.556966782E-1	-1.088654232E1	-2.001385450E0
1.053726127E1	8.947313428E-1	-1.131222725E1	-1.505249858E0
1.054539819E1	1.474062204E0	-1.174862576E1	-1.371569991E0
1.055348626E1	1.709683180E0	-1.204094505E1	-1.129189014E0
1.056160619E1	1.608003974E0	-1.185237122E1	-1.079208970E0
1.056973057E1	1.799867392E0	-1.191353321E1	-1.389535189E0
1.057786400E1	2.454262257E0	-1.247837257E1	-1.580235004E0
1.058605427E1	3.135255098E0	-1.327398968E1	-1.986348629E0
1.059428346E1	3.290419579E0	-1.356269455E1	-2.124430656E0
1.060247438E1	3.505431652E0	-1.364579010E1	-2.204219818E0
1.061068350E1	3.668413877E0	-1.387239647E1	-2.301293373E0
1.061876927E1	3.934404135E0	-1.437830162E1	-2.269147873E0
1.062688892E1	3.945649624E0	-1.486187744E1	-2.169253826E0
1.063497576E1	4.357654572E0	-1.559836102E1	-2.301518679E0
1.064311100E1	4.708688736E0	-1.617845154E1	-2.721650839E0
1.065121850E1	5.272559166E0	-1.676232910E1	-2.822107315E0
1.065943176E1	6.345601082E0	-1.714375305E1	-2.693395615E0
1.066766065E1	7.259956837E0	-1.753331375E1	-1.864480495E0
1.067587569E1	7.852378845E0	-1.760811806E1	-1.383156776E-1
1.068409061E1	6.801071167E0	-1.725862694E1	2.106634855E0
1.069231238E1	4.677730560E0	-1.655567932E1	3.383231163E0
1.070040700E1	2.690821648E0	-1.550533867E1	3.619091034E0
1.070852784E1	1.784008741E0	-1.435274887E1	2.717722416E0
1.071663180E1	9.147021770E-1	-1.361978340E1	1.343313098E0
1.072472100E1	8.819773197E-1	-1.325596714E1	1.628065109E-2
1.073283669E1	7.433428764E-1	-1.306407738E1	-9.232802987E-1
1.074103500E1	5.682551265E-1	-1.280170822E1	-1.549990892E0
1.074925265E1	4.272261858E-1	-1.229550648E1	-1.878606558E0
1.075747096E1	-1.193840504E-1	-1.131677341E1	-2.191480875E0
1.076570350E1	-1.767569184E0	-7.404950142E0	-4.031691551E0
1.077390950E1	-1.925171733E0	-6.617001057E0	-3.408663273E0
1.078202573E1	-6.873770952E-1	-9.628763199E0	-1.357361555E0
1.079016150E1	-1.285374641E0	-9.663955688E0	-1.596162081E0
1.079825107E1	-1.612479448E0	-9.411351204E0	-1.692267895E0
1.080637046E1	-1.032759428E0	-9.310228348E0	-1.415069103E0
1.081449453E1	1.933247745E-1	-9.208175659E0	-1.896967649E0
1.082272461E1	3.570113331E-2	-8.113541603E0	3.288358450E0
1.083094215E1	-3.569256067E0	6.142878532E0	4.586994553E1
1.083917580E1	-6.230416298E0	1.011865139E1	2.919965553E1
1.084739561E1	-2.125030756E0	1.136074162E1	-1.192398310E0
1.085561088E1	-4.832268953E-1	2.711967468E1	-1.382927418E1
1.086370988E1	6.663724899E0	5.149518967E1	-1.785277176E1
1.087179834E1	1.463459587E1	6.873219299E1	-1.282317543E1
1.087988823E1	1.653291512E1	6.871733856E1	-6.313937187E0
1.088802584E1	2.272553444E0	6.870602417E1	9.588854790E0
1.089612853E1	-1.013978004E0	6.104122925E1	1.625396538E1
1.090435007E1	1.447824717E0	3.175946045E1	6.147498131E0
1.091258015E1	8.539775014E-2	1.732517052E1	5.549273491E-1
1.092079515E1	-1.231856704E0	8.848375320E0	-8.622514009E-1
1.092901115E1	-1.665507913E0	3.055559158E0	-2.375223398E0
1.093723126E1	-1.503378391E0	-5.972347260E-1	-2.889164925E0
1.094536500E1	-1.405525088E0	-3.189978600E0	-3.130661964E0
1.095348734E1	-1.115238190E0	-5.594139576E0	-2.956982136E0
1.096159099E1	-7.410984039E-1	-7.759778023E0	-2.397784710E0
1.096971346E1	-4.464525878E-1	-9.567155838E0	-1.600055218E0
1.097782903E1	-2.652204037E-1	-1.088749218E1	-1.029059887E0
1.098603284E1	-1.605561376E-2	-1.192689991E1	-1.042605162E0
1.099425022E1	1.247042418E-1	-1.236702156E1	-1.115653992E0
1.100246915E1	2.532022893E-1	-1.241617393E1	-1.390371323E0
1.101067703E1	3.571609855E-1	-1.238360405E1	-1.629766941E0
1.101888265E1	3.682041168E-1	-1.203471470E1	-1.933840036E0
1.102699807E1	3.198752403E-1	-1.167651558E1	-2.009697437E0
1.103513499E1	2.738698721E-1	-1.119929028E1	-2.007090092E0
1.104322403E1	2.427174449E-1	-1.086707020E1	-1.736487865E0
1.105134753E1	3.847659230E-1	-1.058206940E1	-1.502018929E0
1.105947311E1	5.029662251E-1	-1.034441185E1	-1.189311266E0
1.106769699E1	5.337777734E-1	-1.038401985E1	-9.549853206E-1
1.107591411E1	6.052148342E-1	-1.023635578E1	-8.201010227E-1
1.108414599E1	6.075310111E-1	-1.026787853E1	-6.602313519E-1
1.109233807E1	6.920318604E-1	-1.015724087E1	-5.772893429E-1
1.110054892E1	7.146668434E-1	-1.012933159E1	-3.950891495E-1
1.110863699E1	6.902584434E-1	-1.017176914E1	-4.107029438E-1
1.111675807E1	6.598191261E-1	-1.026043987E1	-3.755513430E-1
1.112484803E1	6.177054644E-1	-1.035906029E1	-3.723452687E-1
1.113298576E1	7.106173038E-1	-1.134359360E1	-6.448451281E-1
1.114109626E1	7.852391601E-1	-1.313150501E1	1.480138302E0
1.114932880E1	7.440852523E-1	-1.608203697E1	7.386526108E0
1.115756342E1	1.593817592E0	-1.845309067E1	8.903276443E0
1.116578376E1	1.446146727E0	-1.831970215E1	6.857975006E0
1.117400269E1	3.641007543E-1	-1.780190277E1	2.844686985E0
1.118222488E1	-8.854857683E-1	-1.812594604E1	-8.834075928E-1
1.119034242E1	-1.695714235E0	-1.830954933E1	-3.787169933E0
1.119846569E1	-1.524413586E0	-1.844840240E1	-5.685779095E0
1.120656961E1	-1.738047957E0	-1.831016731E1	-5.283450127E0
1.121469330E1	-2.095902681E0	-1.713134575E1	-2.519923687E0
1.122280888E1	-2.719394922E0	-1.582431602E1	6.483063102E-2
1.123100919E1	-3.421090364E0	-1.452798653E1	2.194453001E0
1.123922942E1	-4.495414734E0	-1.324670410E1	2.389103413E0
1.124744857E1	-5.370432377E0	-9.230747223E0	-2.397241592E0
1.125565611E1	-5.085141659E0	-1.099787426E1	5.522764206E0
1.126386076E1	9.937597275E0	1.635633850E1	3.570551300E1
1.127197542E1	1.054816341E1	1.372421741E1	-1.534196568E1
1.128011103E1	-1.898455143E0	-1.923205376E0	-8.467552185E0
1.128819822E1	-4.870350361E-1	-1.704005241E0	-2.418765068E0
1.129631934E1	2.035295963E-1	-1.548919678E0	1.710280895E0
1.130444438E1	9.597864151E-1	1.252748489E0	3.438427687E0
1.131267176E1	-8.253198266E-1	8.421192169E-1	1.745858431E0
1.132089011E1	-3.436729908E0	3.033721924E0	-2.338739872E0
1.132912038E1	-1.936833620E0	1.993199348E1	-7.867675781E0
1.133730992E1	8.070491791E0	4.488603210E1	-4.591284275E0
1.134551961E1	1.171807003E1	6.873414612E1	3.047292709E0
1.135360780E1	6.556144238E0	6.868315125E1	-5.012242317E0
1.136172926E1	-6.218873024E0	6.865023041E1	-5.598697186E0
1.136981872E1	-1.272116852E1	6.864713287E1	1.637100101E0
1.137792345E1	-4.134823799E0	4.518840408E1	7.401578426E0
1.138603384E1	-3.147633076E-1	2.012155533E1	1.319460106E1
1.139426672E1	-1.833634973E0	4.736220360E0	1.061646271E1
1.140249845E1	-2.713450432E0	-1.656618118E-1	5.128785133E0
1.141071569E1	-2.882629633E0	-1.289948463E0	-1.715867519E-1
1.141890680E1	-2.026280403E0	-2.173974514E0	-3.203519821E0
1.142712772E1	-8.129222393E-1	-3.597979546E0	-4.141134739E0
1.143524561E1	2.834240198E-1	-5.269023895E0	-4.199342251E0
1.144337011E1	1.210662603E0	-7.041585445E0	-3.743831158E0
1.145147634E1	1.904705167E0	-8.710929871E0	-2.816452503E0
1.145959930E1	2.684875250E0	-1.023418427E1	-1.374470234E0
1.146771565E1	4.208979607E0	-1.165133858E1	2.486348003E-1
1.147590526E1	5.128299713E0	-1.265079308E1	1.155959606E0
1.148412495E1	5.595077515E0	-1.317131996E1	1.591079712E0
1.149234407E1	5.257270336E0	-1.284497261E1	9.310603142E-1
1.150055215E1	3.416494370E0	-1.182846928E1	5.276409388E-1
1.150875888E1	3.523240566E0	-1.168183613E1	-3.855323792E-1
1.151687599E1	3.392345428E0	-1.146656418E1	-8.784411550E-1
1.152501288E1	3.332042217E0	-1.133034039E1	-1.373238206E0
1.153310288E1	3.272471905E0	-1.135818577E1	-1.507869005E0
1.154122426E1	3.967633486E0	-1.198479652E1	-1.732502937E0
1.154935261E1	4.574324131E0	-1.262975883E1	-1.664525270E0
1.155757045E1	4.372602940E0	-1.281329060E1	-1.672662020E0
1.156578992E1	4.349266529E0	-1.307454681E1	-1.680938125E0
1.157402465E1	4.626844406E0	-1.381408024E1	-1.877539396E0
1.158224503E1	4.922865868E0	-1.464264679E1	-2.272266150E0
1.159045934E1	5.570274353E0	-1.572510338E1	-2.921884298E0
1.159855061E1	7.300118446E0	-1.612432480E1	-3.206941605E0
1.160667492E1	8.043792725E0	-1.622889137E1	-3.538585663E0
1.161476480E1	8.871596336E0	-1.640128708E1	-3.197365761E0
1.162290272E1	8.326128960E0	-1.609462357E1	-2.231420755E0
1.163101349E1	6.647453308E0	-1.553630161E1	-9.692884088E-1
1.163922592E1	4.892239094E0	-1.504678535E1	-1.930395365E-1
1.164746180E1	3.423667431E0	-1.446091461E1	2.374700308E-1
1.165568357E1	2.299838543E0	-1.386983871E1	3.761852980E-1
1.166390434E1	1.339483976E0	-1.344428253E1	2.695676088E-1
1.167212734E1	4.897243977E-1	-1.319644928E1	2.430677414E-2
1.168026365E1	-2.648282051E-1	-1.307646942E1	-2.943474054E-1
1.168838545E1	-7.973020077E-1	-1.279644203E1	-8.811771274E-1
1.169649149E1	-1.089866638E0	-1.229938030E1	-1.570564866E0
1.170461564E1	-1.447452784E0	-1.183316231E1	-2.109563112E0
1.171273349E1	-1.971565247E0	-1.076649570E1	-2.743477821E0
1.172092318E1	-2.726397276E0	-9.514498711E0	-2.146321535E0
1.172914142E1	-2.311196327E0	-9.432448387E0	-1.590556264E0
1.173735953E1	-2.381073952E0	-8.925635338E0	-1.522957802E0
1.174559330E1	-2.130469561E0	-8.518036842E0	-7.885891199E-1
1.175379972E1	-1.405337453E0	-8.465268135E0	1.310872078E0
1.176191718E1	-1.533074856E0	-5.019644737E0	2.699955940E0
1.177004030E1	-2.526748180E0	5.153183937E0	3.403581238E1
1.177809941E1	-4.013116360E0	9.429119110E0	3.972953796E1
1.178622341E1	-3.192133427E0	6.019611359E0	2.879793739E1
1.179434961E1	-7.392231226E-1	4.303467751E0	2.849911213E0
1.180256072E1	3.695963860E0	1.555187798E1	-1.682693863E1
1.181074545E1	7.130696297E0	3.529257965E1	-1.948379898E1
1.181897891E1	7.672594070E0	6.535324097E1	-2.203223610E1
1.182717268E1	6.175980568E0	6.881288147E1	-8.894741058E0
1.183528722E1	-2.372241974E0	6.877950287E1	1.839159727E0
1.184337930E1	-1.285335636E1	6.873839569E1	1.185416031E1
1.185157438E1	-3.416167736E0	5.122997284E1	1.402817726E1
1.185977088E1	-7.330651283E-1	2.396983719E1	4.883045673E0
1.186798026E1	-7.449654341E-1	1.067236900E1	6.725880504E-1
1.187620276E1	-3.908569515E-1	4.142244339E0	-4.212440848E-1
1.188433657E1	-1.662507653E-1	3.715448380E-1	-1.843952894E0
1.189247457E1	2.627093792E-1	-2.348117352E0	-2.808821678E0
1.190056522E1	7.491032481E-1	-4.790395260E0	-2.405519962E0
1.190868684E1	1.104968190E0	-6.886287689E0	-1.552093506E0
1.191681111E1	1.513480306E0	-8.801698685E0	-6.192502379E-1
1.192505714E1	1.863541126E0	-1.060687160E1	-4.615008831E-3
1.193325261E1	2.276840210E0	-1.175229931E1	1.821722984E-1
1.194146138E1	2.681778431E0	-1.257316113E1	1.817729473E-1
1.194965499E1	2.721332550E0	-1.277963257E1	-1.494945884E-1
1.195784895E1	2.337737560E0	-1.254232979E1	-3.346963525E-1
1.196593938E1	2.070055008E0	-1.224972725E1	-5.846409202E-1
1.197406188E1	1.858452797E0	-1.192883301E1	-8.225147724E-1
1.198215149E1	1.692850828E0	-1.168562222E1	-1.118376017E0
1.199028738E1	1.448458672E0	-1.127355576E1	-1.387062788E0
1.199839741E1	1.433011532E0	-1.112325859E1	-1.593742371E0
1.200663184E1	1.404479027E0	-1.095407391E1	-1.544971228E0
1.201484091E1	1.357495189E0	-1.077041721E1	-1.274828434E0
1.202303461E1	1.277093053E0	-1.069837761E1	-1.131458521E0
1.203122588E1	1.238254070E0	-1.056044769E1	-9.729825258E-1
1.203946445E1	1.194115520E0	-1.041818619E1	-6.623404026E-1
1.204758222E1	1.101692080E0	-1.046737862E1	-7.000226378E-1
1.205570491E1	1.055327535E0	-1.034136868E1	-4.166359305E-1
1.206380918E1	9.785026908E-1	-1.033910370E1	-1.511261761E-1
1.207189922E1	9.797167182E-1	-1.071409798E1	9.907507896E-2
1.208001611E1	1.346194029E0	-1.178804684E1	7.523466349E-1
1.208822426E1	1.186514616E0	-1.190875721E1	3.134639859E-1
1.209641834E1	1.172113538E0	-1.212542915E1	6.113398671E-1
1.210461245E1	4.042876363E-1	-1.333654594E1	1.953638196E-1
1.211281991E1	1.081720591E0	-1.335226727E1	1.607326388E0
1.212104160E1	1.422065616E0	-1.615541458E1	6.157608986E0
1.212915507E1	2.088408709E0	-1.747407532E1	7.579168797E0
1.213729230E1	2.711544037E0	-1.793055725E1	6.842672348E0
1.214538091E1	2.077611208E0	-1.851144409E1	4.471202850E0
1.215350145E1	6.778910756E-1	-1.885821342E1	1.121207595E0
1.216162868E1	-1.104001641E0	-1.887452698E1	-1.203755260E0
1.216986914E1	-3.519618988E0	-1.774964142E1	-1.660642147E0
1.217806295E1	-4.766513348E0	-1.565371895E1	-9.723095894E-1
1.218627191E1	-5.380593777E0	-1.301168442E1	-1.082072377E0
1.219446576E1	-5.927731514E0	-8.534131050E0	-2.230235815E0
1.220265984E1	7.051915646E0	1.633201218E1	6.188339996E1
1.221074941E1	1.449677753E1	3.008708191E1	-1.802519035E1
1.221887160E1	8.005758286E0	2.592494965E0	-1.897980118E1
1.222696034E1	-1.698074818E0	-7.229919434E-1	-9.522643089E0
1.223509518E1	-7.738276720E-1	-1.904115677E0	-2.383956909E0
1.224320518E1	2.441121340E-1	-2.983981133E0	4.411627293E0
1.225143145E1	-1.314172268E0	-3.270810604E0	6.175236702E0
1.225963822E1	-1.417299628E0	-1.243170738E0	7.296981812E0
1.226782922E1	5.682059526E-1	1.044370079E1	7.843405724E0
1.227602099E1	3.507205009E0	2.829227448E1	-1.025812268E0
1.228425822E1	5.618536949E0	5.259733582E1	-7.391799927E0
1.229237172E1	2.537496805E0	6.865303040E1	-1.260056496E1
1.230049276E1	-5.334418297E0	6.864536285E1	-1.168281460E1
1.230859449E1	-1.748812485E1	6.865345764E1	-3.893099070E0
1.231671472E1	-1.830176735E1	5.724398422E1	5.531827927E0
1.232482172E1	-8.027409554E0	3.547888947E1	6.668908119E0
1.233302407E1	-2.885926962E0	1.383083534E1	1.613631630E1
1.234121410E1	-2.107737780E0	-2.720594406E-1	9.783393860E0
1.234940557E1	-2.398988247E0	-3.116693497E0	4.421373367E0
1.235761407E1	-1.792315841E0	-4.065724850E0	1.571958065E-1
1.236583741E1	-1.032102346E0	-4.746181011E0	-2.989091873E0
1.237395264E1	1.159451008E-1	-5.980434895E0	-4.642948627E0
1.238208976E1	9.970452785E-1	-7.104922771E0	-5.006711006E0
1.239017864E1	1.749755859E0	-8.445974350E0	-4.736671925E0
1.239830018E1	2.179246187E0	-9.498800278E0	-3.588249922E0
1.240642449E1	2.464008570E0	-1.034862041E1	-1.547570467E0
1.241464718E1	2.810257435E0	-1.094403267E1	4.013034999E-1
1.242283795E1	3.611625671E0	-1.142890835E1	8.301914930E-1
1.243104453E1	4.780763626E0	-1.197409153E1	1.022397041E0
1.243923507E1	5.430311203E0	-1.236918831E1	6.261349916E-1
1.244742722E1	5.938885689E0	-1.254211235E1	-6.671629846E-2
1.245551330E1	6.228586197E0	-1.243901157E1	-1.109756470E0
1.246363376E1	5.262784481E0	-1.189091492E1	-1.831672072E0
1.247172241E1	3.875801325E0	-1.121203423E1	-1.134467006E0
1.247985868E1	3.825332880E0	-1.127007771E1	-1.245554328E0
1.248796710E1	3.748781443E0	-1.126678467E1	-1.340419173E0
1.249620787E1	3.842198372E0	-1.151535797E1	-1.819679499E0
1.250441337E1	4.187653542E0	-1.204902840E1	-2.067701340E0
1.251260218E1	5.545226574E0	-1.352438545E1	-2.273675203E0
1.252079110E1	6.721971512E0	-1.501018715E1	-2.989084244E0
1.252902872E1	8.910875320E0	-1.680460167E1	-2.783589363E0
1.253714153E1	1.157856750E1	-1.693746948E1	-2.855839729E0
1.254526218E1	1.354202747E1	-1.794647980E1	-9.928281307E-1
1.255336556E1	1.224540043E1	-1.799374390E1	8.093061447E-1
1.256145318E1	9.122104645E0	-1.706459236E1	2.019364119E0
1.256956864E1	6.266595840E0	-1.606963348E1	2.153333664E0
1.257777622E1	3.770584583E0	-1.513998699E1	5.031881332E-1
1.259416110E1	9.637491703E-1	-1.401726532E1	-2.702013969E0
1.260236718E1	2.104234695E-1	-1.365131474E1	-3.531074524E0
1.261058907E1	-4.382634163E-1	-1.343347359E1	-4.226509094E0
1.261870191E1	-1.021196842E0	-1.317809677E1	-4.734825611E0
1.262683772E1	-1.484609127E0	-1.281655693E1	-4.960974216E0
1.263492537E1	-1.823482513E0	-1.236912060E1	-4.960563183E0
1.264304530E1	-1.740419865E0	-1.201634502E1	-4.606132030E0
1.265116645E1	-1.542465925E0	-1.064535236E1	-4.146700859E0
1.265928233E1	-1.046345472E0	-1.083803654E1	-2.445303440E0
1.266747664E1	-9.916123152E-1	-1.028379917E1	-1.625173807E0
1.267568583E1	-4.236074686E-1	-9.647696495E0	-8.438272476E-1
1.268387953E1	-1.538674831E-1	-9.449567795E0	-5.579204559E-1
1.269207207E1	2.393975258E-1	-9.413531303E0	4.028682709E-1
1.270018422E1	-4.033510685E0	6.788632393E0	5.142222214E1
1.270830645E1	-7.745773315E0	1.072141838E1	5.149724579E1
1.271639487E1	-2.742751360E0	5.954648018E0	2.334231758E1
1.272453253E1	1.336989880E0	2.321260452E0	-9.398457527E0
1.273264145E1	8.918393135E0	1.673828888E1	-2.030475235E1
1.274086168E1	1.056889820E1	4.157185364E1	-2.188521004E1
1.274906983E1	1.072740269E1	6.789995575E1	-2.258916283E1
1.275726199E1	9.913848877E0	6.877954865E1	-8.464829445E0
1.276545410E1	3.868455648E0	6.874884033E1	1.298603249E1
1.277368422E1	-1.228322625E0	6.871082306E1	1.754502869E1
1.278179983E1	1.637717724E0	4.967672729E1	7.579214573E0
1.278992326E1	1.532518029E0	2.361981201E1	2.048259974E0
1.279802983E1	5.000921339E-2	1.237423420E1	-5.147558451E-1
1.280615445E1	-7.699675560E-1	6.356216431E0	-2.118266582E0
1.281427153E1	-7.622870803E-1	2.281317711E0	-2.676009178E0
1.282246833E1	-3.715213537E-1	-1.126558304E0	-2.520654678E0
1.283066083E1	8.493542671E-2	-4.135793209E0	-1.737017632E0
1.283885276E1	5.551066995E-1	-7.094210625E0	-1.164480925E0
1.284705887E1	9.849402905E-1	-9.158729553E0	-1.047017097E0
1.285528087E1	1.196010947E0	-1.065986252E1	-1.070487380E0
1.286339545E1	1.247841835E0	-1.161254501E1	-1.189041853E0
1.287149983E1	1.180069089E0	-1.197615433E1	-1.504945040E0
1.287958983E1	1.253159165E0	-1.209567642E1	-1.683487058E0
1.288771222E1	1.097548485E0	-1.188524437E1	-1.872100353E0
1.289583541E1	1.039224029E0	-1.163850784E1	-1.962036610E0
1.290405141E1	8.890084028E-1	-1.131009102E1	-2.109372854E0
1.291224341E1	8.134545684E-1	-1.104440308E1	-2.193007469E0
1.292044995E1	8.779754043E-1	-1.076018047E1	-2.021318674E0
1.292864095E1	9.157642126E-1	-1.073764801E1	-1.863680720E0
1.293683272E1	1.020519972E0	-1.048841190E1	-1.455813408E0
1.294492106E1	1.034959793E0	-1.053397083E1	-1.363327026E0
1.295304080E1	1.107253313E0	-1.031839275E1	-9.106438756E-1
1.296926545E1	1.103473902E0	-1.040160275E1	-8.686432838E-1
1.297737572E1	1.255556226E0	-1.101262665E1	-1.426339507E0
1.298559956E1	1.176044703E0	-1.081931114E1	-5.998165011E-1
1.299380783E1	2.071747184E-1	-1.267503548E1	-1.314272404E0
1.300200183E1	1.779043913E0	-1.341284847E1	7.512742281E-2
1.301019656E1	2.961391687E0	-1.693217659E1	6.110711575E0
1.301843256E1	3.406013727E0	-1.836360359E1	7.543768406E0
1.302654429E1	1.778979301E0	-1.777737808E1	5.319143772E0
1.303466495E1	3.808531165E-1	-1.751786423E1	2.651835918E0
1.304276822E1	-5.971986055E-2	-1.747615242E1	-3.730075359E-1
1.305088810E1	1.378333271E-1	-1.738758087E1	-2.804024696E0
1.305900310E1	2.603568733E-1	-1.718684578E1	-3.491203785E0
1.306719745E1	-1.702642143E-1	-1.664201546E1	-3.067733288E0
1.307538799E1	-1.137998581E0	-1.629220963E1	-2.086821079E0
1.308357818E1	-1.781245470E0	-1.632224655E1	-1.086638689E0
1.309178433E1	-2.630759954E0	-1.618626022E1	4.166811705E-2
1.310000503E1	-3.303516626E0	-1.557509327E1	1.496183157E0
1.310811852E1	-3.773673296E0	-1.493352222E1	2.622324467E0
1.311625464E1	-4.542922020E0	-1.424867249E1	3.109443188E0
1.312434414E1	-5.122939587E0	-1.350467491E1	3.324758291E0
1.313246645E1	-5.544147015E0	-9.068819046E0	1.788129568E0
1.314059122E1	1.879081607E0	1.180958939E1	2.029147339E1
1.314882852E1	6.702188492E0	5.917654037E0	-1.011888504E1
1.315702129E1	-5.418934822E-1	-3.996947289E0	-8.739214897E0
1.316522841E1	-2.232047796E0	-5.808765411E0	-8.668935776E0
1.317341860E1	-2.165558338E0	-6.195601463E0	-4.821258545E0
1.318161191E1	-8.610589504E-1	-6.525924206E0	2.507219315E-1
1.318969952E1	8.086347580E-1	-4.411367893E0	7.494753838E0
1.319778883E1	2.073168755E0	1.297369003E0	2.426060677E1
1.320587706E1	3.012596607E0	7.357448578E0	2.326400185E1
1.321401279E1	1.040221786E1	1.911195183E1	3.502480268E0
1.322212337E1	2.149412155E1	4.359025192E1	-1.195651245E1
1.323034352E1	2.205663681E1	6.533713531E1	-1.929805565E1
1.323854979E1	1.683752823E1	6.884593964E1	-1.696414185E1
1.324674160E1	3.989886761E0	6.875932312E1	-6.794451714E0
1.325493222E1	-7.497905254E0	6.870685577E1	3.754816294E0
1.326316695E1	4.695743322E-2	5.099483109E1	7.485461712E0
1.327128056E1	1.658292055E0	2.691489983E1	1.761617279E1
1.327940302E1	5.943565071E-2	4.314361572E0	1.112375069E1
1.328750772E1	-2.441659689E0	4.367685318E-1	5.425011158E0
1.329562826E1	-3.155282021E0	-4.778556824E-1	1.078573465E0
1.330374383E1	-2.278074026E0	-1.662894249E0	-1.578307271E0
1.331193445E1	-1.227447271E0	-3.201944828E0	-3.001165390E0
1.332012656E1	-5.758149624E-1	-4.735766411E0	-3.394892216E0
1.332831902E1	-3.622233868E-2	-6.192549706E0	-2.807629347E0
1.333652791E1	6.931825280E-1	-7.870962620E0	-1.672602057E0
1.334475122E1	1.259824634E0	-9.222941399E0	-1.016283274E0
1.335286737E1	1.560543180E0	-1.036299038E1	-3.200676143E-1
1.336100410E1	1.628720880E0	-1.109356689E1	8.043515682E-1
1.336909487E1	1.883748770E0	-1.166136360E1	8.635705709E-1
1.337721649E1	2.283521175E0	-1.192763042E1	1.651182324E-1
1.338533845E1	2.366752863E0	-1.204220963E1	-4.626877904E-1
1.339357583E1	3.864133835E0	-1.302741337E1	-1.121409893E0
1.340176864E1	4.722363949E0	-1.384677696E1	-2.075069189E0
1.340999110E1	4.991408348E0	-1.405300617E1	-2.392933369E0
1.341817368E1	5.238214493E0	-1.432716942E1	-2.582268476E0
1.342636575E1	5.548731327E0	-1.480017853E1	-2.606826544E0
1.343445279E1	5.859234810E0	-1.531626320E1	-2.293043613E0
1.344257168E1	6.165844440E0	-1.582048798E1	-2.045907021E0
1.345065872E1	6.343492508E0	-1.646417809E1	-2.098647118E0
1.345879345E1	7.167708874E0	-1.710134125E1	-2.439702034E0
1.346690256E1	8.190120697E0	-1.709487152E1	-3.178968430E0
1.347511352E1	8.981620789E0	-1.733126068E1	-3.535939217E0
1.348332187E1	8.798523903E0	-1.730961990E1	-3.193418741E0
1.349151433E1	7.763637543E0	-1.727522087E1	-2.266703129E0
1.349970760E1	5.935106277E0	-1.687173653E1	-1.416746378E0
1.350792106E1	4.364483833E0	-1.632499886E1	-6.040841341E-1
1.351606310E1	3.570403576E0	-1.558227921E1	1.643481255E-1
1.352418598E1	2.521679878E0	-1.507391167E1	6.951020956E-1
1.353228918E1	1.855827808E0	-1.432578754E1	8.352475166E-1
1.354037891E1	5.376557112E-1	-1.383110237E1	4.334219694E-1
1.354849364E1	-4.730105400E-2	-1.365876579E1	-5.658343434E-1
1.355668387E1	-2.696611881E-1	-1.323262310E1	-1.541573048E0
1.356487502E1	-6.746854782E-1	-1.280206585E1	-2.679337502E0
1.357306679E1	-8.597393036E-1	-1.243075085E1	-3.214699984E0
1.358127464E1	-1.257029772E0	-1.195766830E1	-3.580745220E0
1.358946825E1	-9.839996099E-1	-1.124433136E1	-3.704864502E0
1.359760837E1	-1.662651658E0	-9.746460915E0	-4.043997288E0
1.360574606E1	-2.289242268E0	-7.920352936E0	-2.073307276E0
1.361383448E1	-2.130236387E0	-8.477104187E0	-1.388344169E0
1.362195575E1	-2.546401024E0	-8.542401314E0	-2.426624298E-1
1.363007925E1	-1.699063182E0	-9.092237473E0	7.446904182E-1
1.363829075E1	-2.244578600E0	-3.910413265E0	5.602054596E0
1.364648322E1	-3.524911642E0	8.978351593E0	3.718816376E1
1.365468891E1	-4.191990852E0	1.907105637E1	6.400821686E1
1.366288010E1	-3.749524593E0	5.367701530E0	2.637996483E1
1.367107241E1	-2.133098602E0	3.491577148E0	-2.891933441E0
1.367916095E1	2.199641705E0	1.462707138E1	-2.122098541E1
1.368728287E1	3.817196846E0	3.688428497E1	-2.647155190E1
1.369537310E1	6.956334114E0	6.243259811E1	-2.607208252E1
1.370347779E1	8.386516571E0	6.882860565E1	-9.860904694E0
1.371158818E1	5.790940285E0	6.880484009E1	4.451725483E0
1.371981537E1	-6.255391598E0	6.875895691E1	1.510667992E1
1.373621494E1	-2.800150812E-1	1.999396896E1	3.046640158E0
1.374440629E1	-1.679300547E0	9.716880798E0	1.235747039E-1
1.375261518E1	-1.872314692E0	4.231266975E0	6.469972730E-1
1.376075672E1	-1.543986678E0	5.096940994E-1	-6.701219678E-1
1.376887798E1	-7.820227146E-1	-2.400236607E0	-1.722283363E0
1.377698102E1	-1.853359640E-1	-4.786311150E0	-1.920300841E0
1.378510075E1	3.363745213E-1	-7.048329353E0	-1.393710136E0
1.379321452E1	8.370563984E-1	-9.041208267E0	-8.113690615E-1
1.380140894E1	1.328576922E0	-1.068423748E1	-6.774579287E-1
1.380960033E1	1.696154594E0	-1.183075809E1	-7.269613743E-1
1.381779141E1	1.865260124E0	-1.250024319E1	-8.502900004E-1
1.382599594E1	1.782956958E0	-1.249639797E1	-1.130411386E0
1.383418929E1	1.717115879E0	-1.233199406E1	-1.075930595E0
1.384232791E1	1.675251484E0	-1.201268482E1	-1.156444192E0
1.385046198E1	1.567317724E0	-1.168054199E1	-1.134189844E0
1.385854948E1	1.256772399E0	-1.125804043E1	-9.885678291E-1
1.386666894E1	1.232651114E0	-1.094475365E1	-1.055420160E0
1.387479137E1	1.231973052E0	-1.074312973E1	-1.071013451E0
1.388301275E1	1.450069308E0	-1.057126522E1	-1.140268803E0
1.389120264E1	1.415041566E0	-1.044508553E1	-9.405111074E-1
1.389940764E1	1.385617375E0	-1.036416054E1	-8.724683523E-1
1.390759929E1	1.321967244E0	-1.028274441E1	-4.826115370E-1
1.391579033E1	1.250975609E0	-1.031023693E1	-4.762185812E-1
1.392388025E1	1.282128692E0	-1.028099632E1	-1.708463728E-1
1.393200121E1	1.986221433E0	-1.115899277E1	3.595083952E-2
1.394009037E1	2.307494640E0	-1.201590729E1	5.783512592E-1
1.394822410E1	2.204261303E0	-1.201064205E1	5.645416379E-1
1.395633191E1	1.897378564E0	-1.193855000E1	5.903285742E-1
1.396457129E1	1.500750065E0	-1.234635735E1	4.462557435E-1
1.397277687E1	6.211127043E-1	-1.352015114E1	6.440924406E-1
1.398096675E1	1.336156011E0	-1.510450649E1	5.801719189E0
1.398915714E1	1.176345944E0	-1.589677715E1	5.956755638E0
1.399736579E1	1.433323622E0	-1.607113647E1	3.459405661E0
1.400550687E1	1.487133980E0	-1.635414505E1	1.451020837E-1
1.401362752E1	1.181459665E0	-1.645667458E1	-2.630469561E0
1.402173156E1	2.687377334E-1	-1.644512367E1	-4.951745510E0
1.402985414E1	-8.118661642E-1	-1.653027153E1	-5.204265594E0
1.403796818E1	-2.096901655E0	-1.643699265E1	-4.485954285E0
1.404618098E1	-3.163275957E0	-1.615064430E1	-3.257680655E0
1.405437264E1	-4.370810986E0	-1.563144684E1	-1.864736557E0
1.406256360E1	-5.772634506E0	-1.396710205E1	-6.003917456E-1
1.407077094E1	-6.588339329E0	-8.657499313E0	1.553021193E0
1.407896568E1	2.161811638E1	1.945971298E1	3.821108627E1
1.408704910E1	8.149281502E0	8.226764679E0	-1.061182785E1
1.409518398E1	-5.303879738E0	-5.232973099E-1	-3.156402111E0
1.410327025E1	-6.966017723E0	-2.235249996E0	-8.407418251E0
1.411139071E1	-5.964820862E0	-4.539996624E0	-4.488903046E0
1.411951498E1	-2.852849483E0	-5.336160660E0	1.113716483E0
1.412773044E1	-8.765766621E-1	-4.549701691E0	1.082796860E1
1.413592106E1	1.348389149E0	1.122977257E0	2.985166168E1
1.414412664E1	3.590932608E0	8.889060020E0	3.983151627E1
1.415230202E1	9.722823143E0	9.989969254E0	9.961200714E0
1.416046721E1	1.614999008E1	1.816527748E1	-9.142620087E0
1.416855690E1	1.875185585E1	3.800559998E1	-2.368272781E1
1.417667864E1	1.746942139E1	5.874055862E1	-3.247245026E1
1.418476806E1	6.589951038E0	6.881398010E1	-2.503919411E1
1.419290614E1	-6.024915695E0	6.874469757E1	1.910493612E0
1.420101021E1	-1.152791119E1	6.627500916E1	1.217338943E1
1.420925390E1	-2.725356579E0	4.429289627E1	9.753565788E0
1.421746171E1	1.495843649E0	2.465247345E1	1.402138519E1
1.422565356E1	2.008412838E0	4.066212654E0	1.746452904E1
1.423384483E1	-2.151879370E-1	-2.067269802E0	6.564313889E0
1.424205564E1	-1.326217651E0	-2.847140789E0	2.057982922E0
1.425016225E1	-1.647925615E0	-2.907392979E0	-7.141522169E-1
1.425828337E1	-9.613257647E-1	-3.957011223E0	-2.208737135E0
1.426638387E1	-2.698719501E-1	-5.438389301E0	-2.787856579E0
1.427450440E1	5.342094898E-1	-7.063529968E0	-2.876844168E0
1.428261914E1	1.273251414E0	-8.597528458E0	-2.214748859E0
1.429080271E1	1.729061246E0	-9.848192215E0	-1.631474972E0
1.429899329E1	2.311562777E0	-1.099539757E1	-8.061786890E-1
1.430718498E1	2.770529270E0	-1.174603176E1	-1.259912699E-1
1.431539021E1	2.746162415E0	-1.202282524E1	2.509306669E-1
1.433172190E1	2.959204197E0	-1.207892323E1	-7.082947493E-1
1.433985740E1	3.051659822E0	-1.199737167E1	-1.375941038E0
1.434794614E1	3.013237000E0	-1.193398094E1	-1.682638764E0
1.435606725E1	3.894908428E0	-1.252967453E1	-1.572027802E0
1.436418941E1	4.310059071E0	-1.305352592E1	-1.959682584E0
1.437240756E1	4.296679020E0	-1.302346992E1	-1.901082754E0
1.438059879E1	4.195852280E0	-1.301598263E1	-1.775648952E0
1.438880590E1	4.304837227E0	-1.333477592E1	-1.864848852E0
1.439699621E1	4.271012783E0	-1.363978958E1	-1.780010581E0
1.440519125E1	4.291551590E0	-1.406760883E1	-1.700578928E0
1.441327844E1	4.506436825E0	-1.454184723E1	-1.636146307E0
1.442140056E1	4.781877518E0	-1.521808052E1	-1.738542557E0
1.442948875E1	4.865226746E0	-1.587358189E1	-1.612376213E0
1.443762567E1	5.492457390E0	-1.579477501E1	-1.196617365E0
1.444573387E1	5.495090961E0	-1.593411922E1	-2.388880849E-1
1.445394283E1	5.554765701E0	-1.593815422E1	8.109390140E-1
1.446214721E1	4.882635117E0	-1.563148308E1	1.631318808E0
1.447033710E1	3.594484806E0	-1.512288475E1	1.892202139E0
1.447852848E1	2.438793182E0	-1.462983227E1	1.380980968E0
1.448673679E1	1.408873320E0	-1.410587311E1	3.198997974E-1
1.449487656E1	1.510938287E0	-1.347440052E1	-4.571652412E-1
1.450296629E1	8.999319673E-1	-1.325765514E1	-1.205611110E0
1.451107064E1	6.506470442E-1	-1.294846725E1	-1.869620919E0
1.451919233E1	2.800629139E-1	-1.247027779E1	-2.436583042E0
1.452730610E1	-8.149671555E-2	-1.194008732E1	-2.960869789E0
1.453550210E1	-1.696665287E-1	-1.124103355E1	-3.399121284E0
1.454369402E1	-1.367154121E0	-8.242006302E0	-3.342848778E0
1.455188594E1	-8.693115711E-1	-9.341548920E0	-2.230467558E0
1.456009186E1	-1.257300854E0	-9.402949333E0	-2.280980587E0
1.456828683E1	-1.289197922E0	-9.301109314E0	-2.291470766E0
1.457642567E1	-6.218950748E-1	-9.183614731E0	-1.917583704E0
1.458456133E1	-5.952174067E-1	-9.053617477E0	-1.813135266E0
1.459265113E1	-1.756686091E0	-3.851815701E0	2.074407387E1
1.460077452E1	-9.241624832E0	1.223059368E1	7.080782318E1
1.460889867E1	-6.144737244E0	1.015251637E1	2.076361275E1
1.461714229E1	-1.158337116E0	1.539801788E1	-1.635995102E1
1.462533579E1	3.124805689E-1	4.085115814E1	-3.030534554E1
1.463354294E1	8.164871216E0	6.873899841E1	-3.414839554E1
1.464173540E1	1.145221996E1	6.873669434E1	-2.212456703E1
1.464992863E1	8.464557648E0	6.872256470E1	2.181802273E0
1.465801994E1	-2.387456417E0	6.869364929E1	1.711659431E1
1.466614137E1	-8.803440630E-2	4.804370117E1	1.301262665E1
1.467422990E1	-1.979499459E-1	2.102493668E1	2.567185402E0
1.468233440E1	-1.151850939E0	1.027139759E1	1.292091966E0
1.469044771E1	-1.517131448E0	4.420561790E0	5.297807455E-1
1.469869167E1	-1.051155210E0	4.506969452E-1	-1.014893532E0
1.470690052E1	-3.779639602E-1	-2.177466869E0	-1.846793175E0
1.471509371E1	2.924405932E-1	-4.651636124E0	-1.762453794E0
1.472328863E1	8.335605860E-1	-6.871627331E0	-8.455526829E-1
1.473150048E1	1.518101454E0	-8.923894882E0	2.461394370E-1
1.473964171E1	1.908190846E0	-1.041378403E1	6.261215210E-1
1.474776183E1	2.061130285E0	-1.144271755E1	6.253899932E-1
1.475586540E1	2.287175417E0	-1.189764309E1	4.478056133E-1
1.476398713E1	2.376285553E0	-1.211444283E1	3.397020698E-1
1.477210229E1	2.281421423E0	-1.197918510E1	1.594679356E-1
1.478029667E1	2.069664478E0	-1.167201519E1	-4.818315804E-2
1.478848898E1	1.806572556E0	-1.148848534E1	-3.619802296E-1
1.479668090E1	1.993290901E0	-1.124815464E1	-7.423613667E-1
1.480488933E1	1.747903585E0	-1.099477386E1	-6.658353209E-1
1.481308521E1	1.691996098E0	-1.069420624E1	-4.771072268E-1
1.482123006E1	1.658556581E0	-1.057093620E1	-5.987336636E-1
1.482936702E1	1.591381669E0	-1.044503307E1	-7.278224230E-1
1.483745648E1	1.508487701E0	-1.034422588E1	-5.658410192E-1
1.484557960E1	1.256296277E0	-1.049339008E1	-7.710495591E-1
1.485370540E1	1.187965512E0	-1.032199764E1	-6.546117663E-1
1.486193802E1	1.078709960E0	-1.038935184E1	-6.166791916E-1
1.487012856E1	9.708184004E-1	-1.049363995E1	-6.534163952E-1
1.487833586E1	9.914805889E-1	-1.056937027E1	-4.612411261E-1
1.488652694E1	7.497533560E-1	-1.097552013E1	-7.940040231E-1
1.489472040E1	1.296909451E0	-1.136649799E1	-4.268019795E-1
1.490280948E1	4.521429539E-1	-1.417672253E1	-4.692097604E-1
1.491093029E1	1.963214397E0	-1.478788757E1	3.140355945E-1
1.491901752E1	2.122128963E0	-1.648148346E1	4.205726624E0
1.492715363E1	2.920104504E0	-1.759159470E1	3.858437777E0
1.493526348E1	2.828900337E0	-1.781166458E1	2.741636276E0
1.494349390E1	1.330650091E0	-1.796295166E1	1.378369570E0
1.495170290E1	1.452343762E-1	-1.801446915E1	-5.686603785E-1
1.495989867E1	-7.595916986E-1	-1.793239403E1	-2.027016640E0
1.496809271E1	-1.614862680E0	-1.811173630E1	-2.809648514E0
1.497630144E1	-2.451692104E0	-1.807426834E1	-2.432255983E0
1.498444690E1	-3.233846664E0	-1.792788506E1	-1.914822578E0
1.499253459E1	-4.357612133E0	-1.726569748E1	-9.640022516E-1
1.500063763E1	-5.320215702E0	-1.443221092E1	4.274030030E-1
1.500875832E1	-5.600035191E0	-7.125077248E0	-3.585263252E0
1.501687379E1	-3.231506824E0	-1.261203671E1	8.581551552E0
1.502506813E1	1.169614983E1	-7.924804211E0	1.127326393E1
1.503325906E1	1.655138016E1	-7.544988632E0	8.799234390E0
1.504144990E1	6.684660912E-2	-7.791720390E0	-6.010151863E0
1.504965609E1	2.252629995E-1	-4.089577675E0	-1.710458517E0
1.505784906E1	2.507250786E0	-2.942436695E0	1.280307770E1
1.506595398E1	1.868013501E0	-6.296005249E-1	2.295733452E1
1.507405717E1	1.699024439E0	1.507642746E0	1.333995819E1
1.508214625E1	2.838450432E0	2.103549957E1	3.453267574E0
1.509026786E1	5.110844135E0	4.519589615E1	-7.811782837E0
1.509839044E1	3.071300030E0	6.868002319E1	-2.074905586E1
1.510660671E1	-1.568950295E0	6.865724945E1	-2.576262093E1
1.511479829E1	-1.344054508E1	6.864852905E1	-1.022609711E1
1.512300448E1	-1.282655334E1	6.865493011E1	5.064312935E0
1.513119552E1	-1.943929076E0	5.459469604E1	1.103538990E1
1.513939221E1	2.468790054E0	2.534320450E1	2.213832092E1
1.514748267E1	3.263555169E-1	4.986422539E0	9.121730804E0
1.515560606E1	-1.340746760E0	5.016183853E-1	3.570888996E0
1.516369702E1	-2.084369183E0	-1.066174507E0	-1.239773035E-1
1.517183217E1	-1.874132037E0	-1.798719406E0	-2.579135418E0
1.517994256E1	-1.020817161E0	-3.097824097E0	-3.309463739E0
1.518816456E1	-7.782125473E-2	-4.947699547E0	-2.835476637E0
1.519637225E1	7.345539331E-1	-6.745612144E0	-2.142788410E0
1.520456479E1	1.590923786E0	-8.298268318E0	-1.566955209E0
1.521275536E1	2.517151833E0	-9.628593445E0	-1.160833478E0
1.522096386E1	3.552149773E0	-1.059306717E1	-1.105930805E0
1.522910336E1	5.050715446E0	-1.184743881E1	-9.190121889E-1
1.523719029E1	5.862481117E0	-1.267819118E1	-6.898847222E-1
1.524529386E1	6.709227562E0	-1.305001450E1	-3.709091246E-1
1.525341740E1	6.939488411E0	-1.361025620E1	-5.876560807E-1
1.526153359E1	7.051673412E0	-1.371842766E1	-1.143881440E0
1.526974767E1	6.397495270E0	-1.311366367E1	-2.041860342E0
1.527793948E1	3.226188183E0	-1.116939449E1	-7.711465955E-1
1.528612975E1	3.713025808E0	-1.123719311E1	-6.145570278E-1
1.529433494E1	3.964900970E0	-1.132708645E1	-5.770787597E-1
1.530252936E1	4.752532005E0	-1.192523766E1	-1.100756049E0
1.531063613E1	5.945797920E0	-1.300419331E1	-1.055768967E0
1.531874013E1	6.003706932E0	-1.340326691E1	-1.396549225E0
1.532682879E1	6.425724983E0	-1.398100853E1	-1.120406866E0
1.533494932E1	7.083081245E0	-1.525627041E1	-1.294132113E0
1.534307836E1	8.461498260E0	-1.664670181E1	-1.689992070E0
1.535130321E1	9.531606674E0	-1.704171944E1	-1.410545349E0
1.535949775E1	1.046437550E1	-1.802300453E1	7.511351109E-1
1.536770644E1	8.998785973E0	-1.863642502E1	5.004865170E0
1.537589871E1	5.984493732E0	-1.784068298E1	4.846125126E0
1.538409178E1	4.447092533E0	-1.637841606E1	3.367753506E0
1.539218186E1	3.265985966E0	-1.535142994E1	7.451545000E-1
1.540026982E1	2.112072229E0	-1.448963165E1	-1.174700737E0
1.540835975E1	1.210364580E0	-1.386814880E1	-2.096371174E0
1.541649740E1	2.242543697E-1	-1.332074547E1	-2.384424925E0
1.542460779E1	-7.597749233E-1	-1.283496284E1	-2.280284643E0
1.543283867E1	-1.525279522E0	-1.245935059E1	-2.151082039E0
1.544104675E1	-2.205046415E0	-1.209794998E1	-2.067106009E0
1.544923994E1	-2.607021332E0	-1.166906738E1	-2.104747772E0
1.545743298E1	-2.765890121E0	-1.134001541E1	-2.154538393E0
1.546564267E1	-2.272952080E0	-1.041502094E1	-3.939400673E0
1.547378252E1	-2.460582495E0	-8.532635689E0	-3.743971825E0
1.548190302E1	-2.057986259E0	-9.783349037E0	-1.180203199E0
1.549000609E1	-1.928417563E0	-9.774180412E0	-1.172765136E0
1.549812594E1	-1.612109900E0	-9.834019661E0	-8.760082126E-1
1.550624052E1	-1.224256039E0	-9.701406479E0	-6.926964521E-1
1.551443102E1	-3.343313336E-1	-6.501195908E0	-2.869462967E-2
1.552262317E1	1.525772810E0	2.385412216E0	2.659220886E1
1.553081517E1	-2.138514996E0	5.895642281E0	3.883538437E1
1.553902328E1	-1.928762078E0	8.165744781E0	2.222302246E1
1.554721721E1	2.126518965E0	1.645672035E1	1.341569424E-2
1.555535698E1	5.728819370E0	4.139879608E1	-8.533293724E0
1.556346025E1	1.008697701E1	6.875221252E1	-1.636604691E1
1.557154828E1	7.993200779E0	6.872175598E1	-2.018731117E1
1.557966936E1	-7.752195001E-2	6.870220184E1	-8.916236877E0
1.558778544E1	-5.953221798E0	6.868424988E1	1.057324028E1
1.559602240E1	6.584140658E-1	5.319446564E1	1.348663425E1
1.560421336E1	2.287604332E0	2.592900085E1	9.774784088E0
1.561241790E1	2.981451750E-1	1.048048115E1	-1.735855222E0
1.562061078E1	-3.712033927E-1	3.960851669E0	-5.907700658E-1
1.562880163E1	-1.086027622E0	7.299652100E-1	-6.017012000E-1
1.563689071E1	-5.827692151E-1	-1.878926754E0	-9.251658320E-1
1.564501136E1	2.873350382E-1	-4.362984180E0	-8.488679528E-1
1.565310021E1	9.945881367E-1	-6.635606766E0	-3.056868911E-1
1.566123709E1	1.584482908E0	-8.677550316E0	3.182012141E-1
1.566934636E1	2.048816681E0	-1.032394695E1	5.450794697E-1
1.567759044E1	2.585096598E0	-1.176659203E1	3.795083463E-1
1.568579663E1	2.989494562E0	-1.248845959E1	5.279034376E-3
1.569398813E1	3.149513245E0	-1.288928127E1	-3.666788340E-1
1.570217917E1	3.173012733E0	-1.299538040E1	-6.725742817E-1
1.571038655E1	2.703466892E0	-1.259378815E1	-1.211784840E0
1.572664590E1	1.703975916E0	-1.169810104E1	-1.612768412E0
1.573474890E1	1.418916225E0	-1.139417267E1	-1.663388491E0
1.574283775E1	1.100881815E0	-1.094555569E1	-1.313050032E0
1.575095528E1	1.058264017E0	-1.076434135E1	-1.051854849E0
1.575916148E1	1.059519887E0	-1.055850792E1	-9.564545155E-1
1.576735425E1	1.080562234E0	-1.049307728E1	-8.835241795E-1
1.577554848E1	1.079999924E0	-1.048191357E1	-9.020433426E-1
1.578375513E1	1.094467521E0	-1.039770699E1	-7.001296282E-1
1.579194932E1	1.081257463E0	-1.055866623E1	-8.680089116E-1
1.580009044E1	1.100783110E0	-1.045192623E1	-6.120896339E-1
1.580819325E1	1.366841197E0	-1.076932335E1	-4.794103205E-1
1.581628217E1	1.953912973E0	-1.140029812E1	-1.782312989E-1
1.582437044E1	2.091811657E0	-1.181310940E1	-2.750216722E-1
1.583249190E1	2.016742706E0	-1.202912998E1	-2.230540812E-1
1.584071194E1	2.011057138E0	-1.262066841E1	-1.411992311E-1
1.584890259E1	1.546767116E0	-1.441603470E1	-8.832833171E-1
1.585710998E1	2.064105034E0	-1.550943470E1	-7.317129374E-1
1.586530190E1	2.494326353E0	-1.551002884E1	-8.545805216E-1
1.587349394E1	2.869902372E0	-1.584002399E1	-5.138642192E-1
1.588158201E1	2.769053221E0	-1.588678741E1	-4.207745790E-1
1.588966817E1	1.876979589E0	-1.566983032E1	4.888325930E-1
1.589775440E1	2.968640327E-1	-1.564490318E1	3.194074154E0
1.590588836E1	-8.858424425E-1	-1.559477997E1	3.251442671E0
1.591399551E1	-1.686827898E0	-1.576577568E1	2.469274282E0
1.592222990E1	-3.183094740E0	-1.597476959E1	1.925552487E0
1.593043386E1	-4.385549068E0	-1.547119617E1	1.635191679E0
1.593862344E1	-5.037658215E0	-1.393725109E1	1.223273516E0
1.594681421E1	1.401171780E1	1.920482254E1	2.007179976E0
1.595502128E1	1.639640999E1	1.788389015E1	-3.263365936E1
1.596316044E1	-8.180006027E0	-2.561694145E0	1.931797791E1
1.597128067E1	-1.739963341E1	-6.560196877E0	3.239057159E1
1.597938290E1	-1.748150253E1	-7.964168549E0	1.328117180E1
1.598750221E1	-1.068340302E1	-9.296360970E0	-1.630943298E0
1.599561390E1	-3.852275372E0	-9.409726143E0	-1.024816036E0
1.600381390E1	-2.124158382E0	-8.314501762E0	2.444212198E0
1.601200317E1	7.970979214E-1	-3.391768456E0	1.538879395E1
1.602019305E1	4.046634674E0	2.538353920E0	2.156627274E1
1.602839640E1	6.303563118E0	9.851216316E0	3.151162386E0
1.603659032E1	1.336550903E1	2.983871460E1	-1.583138275E1
1.604469713E1	2.103528214E1	5.656953430E1	-2.385976410E1
1.605279978E1	2.369432640E1	6.930352783E1	-2.302214432E1
1.606088794E1	2.511815643E1	6.928409576E1	-1.210255623E1
1.606900748E1	2.442684937E1	6.924118042E1	5.308253288E0
1.607712905E1	1.402446175E1	5.788398361E1	1.080819798E1
1.608535928E1	7.530738831E0	3.671115494E1	1.036429405E1
1.609355155E1	4.241119385E0	1.640711212E1	1.655285263E1
1.610175790E1	1.090126514E0	-1.834145546E0	1.818833351E0
1.610994882E1	9.251976013E-2	-2.476347446E0	1.693850636E0
1.611813963E1	-7.696683407E-1	-3.758944035E0	4.856921434E-1
1.612622678E1	-1.268339634E0	-5.156751156E0	-7.811020613E-1
1.613434663E1	-6.841614246E-1	-6.649828911E0	-1.548879385E0
1.614243440E1	-7.012206912E-1	-8.412807465E0	-1.606676340E0
1.615057063E1	-2.659330964E-1	-1.059799099E1	-1.163320899E0
1.615868098E1	1.562519073E-1	-1.223112679E1	-7.094727755E-1
1.616690855E1	4.891335964E-2	-1.326729202E1	-3.758805394E-1
1.617511490E1	6.350817084E-1	-1.502202225E1	-1.896084398E-1
1.618330567E1	1.677457094E0	-1.641199493E1	-4.356133938E-1
1.619149674E1	2.158742428E0	-1.712239075E1	-9.058288932E-1
1.619970390E1	2.748404026E0	-1.746274185E1	-1.217978120E0
1.620784205E1	3.238515377E0	-1.739567375E1	-1.890224695E0
1.621596197E1	3.301334381E0	-1.717794418E1	-2.181639433E0
1.622406428E1	3.247523069E0	-1.680270767E1	-2.106035233E0
1.623218497E1	3.185602427E0	-1.655298042E1	-2.083347321E0
1.624029944E1	3.282464027E0	-1.635704422E1	-1.901810408E0
1.624849220E1	3.283172607E0	-1.602371025E1	-1.760785818E0
1.625668132E1	3.334542990E0	-1.576381493E1	-1.452288628E0
1.626487228E1	3.577908993E0	-1.550797272E1	-1.376523972E0
1.627307882E1	3.526867628E0	-1.524420357E1	-1.303186178E0
1.628127263E1	3.246200562E0	-1.513585472E1	-1.043230772E0
1.628940940E1	2.692403316E0	-1.495296097E1	-1.189200878E0
1.629754170E1	2.282320738E0	-1.480127716E1	-1.239629030E0
1.630562740E1	2.058513403E0	-1.463771725E1	-1.234879375E0
1.631371301E1	1.851677418E0	-1.426430130E1	-1.150736332E0
1.632183594E1	1.640552521E0	-1.383172798E1	-9.893631935E-1
1.633004570E1	1.277792096E0	-1.337138367E1	-1.188040972E0
1.633823813E1	1.022136807E0	-1.286398125E1	-1.428131342E0
1.634644497E1	9.036325812E-1	-1.241212177E1	-1.606842995E0
1.635463817E1	1.213309765E-1	-1.211597252E1	-1.534444690E0
1.636283121E1	4.433610439E-1	-1.182535648E1	-1.506916761E0
1.637092344E1	-1.948035955E-1	-1.162809753E1	-1.729064465E0
1.637901255E1	-5.998231769E-1	-1.140224171E1	-2.110758305E0
1.638710201E1	-9.030820131E-1	-1.123265076E1	-2.529227495E0
1.639520717E1	-1.217968583E0	-1.085218811E1	-2.703133821E0
1.640331820E1	-1.871154904E0	-1.000420666E1	-2.171560049E0
1.641153040E1	-2.918770075E0	-8.449387550E0	-3.739051819E-1
1.641973832E1	-2.627258778E0	-8.726865768E0	-1.351571202E0
1.642793086E1	-2.544531107E0	-9.339438438E0	-2.255188704E0
1.643612197E1	-2.712608814E0	-9.209697723E0	-2.243725300E0
1.644433059E1	-1.455539346E0	-9.173727036E0	-2.380636930E0
1.645247009E1	-8.844173551E-1	-8.558792114E0	-1.588367462E0
1.646056247E1	-9.961719513E0	6.337967873E0	5.597505188E1
1.646863432E1	-6.235352516E0	1.358954430E1	2.975104141E1
1.647672140E1	3.642462015E0	2.781215286E1	-5.140198708E0
1.648483536E1	1.215896416E1	5.548427200E1	-2.615180969E1
1.649303682E1	3.024780655E1	6.931492615E1	-2.732954788E1
1.650122751E1	3.814242172E1	6.931949615E1	-1.069639444E0
1.650941790E1	3.471234512E1	6.927450562E1	1.359818745E1
1.651762420E1	1.203841209E1	6.066904449E1	9.115622520E0
1.652581940E1	7.304983139E0	3.105771255E1	3.994645357E0
1.653395717E1	4.951568127E0	1.471434498E1	2.194354296E0
1.654205678E1	3.786295176E0	5.950708389E0	9.006375074E-1
1.655014286E1	2.258335829E0	1.185444832E0	-1.643067300E-1
1.655826220E1	6.103930473E-1	-1.973847866E0	-1.150404692E0
1.656638436E1	-3.284449577E-1	-4.709480286E0	-1.572702169E0
1.657461966E1	-5.370156765E-1	-7.020601749E0	-1.513308048E0
1.658281144E1	-7.140866518E-1	-9.274683952E0	-1.097129822E0
1.659101736E1	-8.728648424E-1	-1.119872856E1	-6.356092691E-1
1.659920674E1	-9.278862476E-1	-1.258878326E1	-2.201873958E-1
1.660739682E1	-1.174058437E0	-1.364386368E1	-2.109030187E-1
1.661549674E1	-1.132846713E0	-1.412971878E1	-2.610086799E-1
1.662361351E1	-1.111072779E0	-1.415374565E1	-7.778446674E-1
1.663169693E1	-1.126784086E0	-1.408973503E1	-1.153016329E0
1.663982917E1	-1.130540848E0	-1.358617973E1	-1.448959351E0
1.664793655E1	-1.130818844E0	-1.313143539E1	-1.522015333E0
1.665615936E1	-9.897848368E-1	-1.274798393E1	-1.506144404E0
1.666436382E1	-1.083500862E0	-1.240763187E1	-1.394040346E0
1.667255478E1	-9.908996820E-1	-1.201282120E1	-1.165567994E0
1.668074540E1	-8.077536821E-1	-1.169355583E1	-9.826692343E-1
1.668895366E1	-5.902808905E-1	-1.144309330E1	-7.987881899E-1
1.669709270E1	-6.141948700E-1	-1.131194878E1	-5.287848115E-1
1.670521240E1	-5.655211210E-1	-1.111353493E1	-4.054742157E-1
1.671331301E1	-5.956307650E-1	-1.107770061E1	-2.495292574E-1
1.672143124E1	-5.378144979E-1	-1.098883343E1	-1.923450530E-1
1.672954428E1	-5.581742525E-1	-1.092344475E1	-1.561409235E-1
1.673762478E1	-5.779697299E-1	-1.086708260E1	-1.888795495E-1
1.674581651E1	-5.629194379E-1	-1.079802036E1	-1.587315351E-1
1.675400667E1	-6.472717524E-1	-1.080467224E1	-1.723442376E-1
1.676221343E1	-7.107394338E-1	-1.079860497E1	-1.997176856E-1
1.677040666E1	-3.128235638E-1	-1.150275421E1	1.279510260E-1
