"Time (s)"	"Acceleration x (m/s^2)"	"Acceleration y (m/s^2)"	"Acceleration z (m/s^2)"
9.185769000E-3	-4.070142806E-1	5.133168221E0	7.723694801E0
1.203777400E-2	-2.873041928E-1	5.121197224E0	7.783549786E0
1.317280800E-2	-1.771709323E-1	5.106832027E0	7.845798969E0
1.611250000E-2	-5.985504389E-2	5.087678432E0	7.900865555E0
1.736557700E-2	6.224924326E-2	5.061342239E0	7.951143742E0
2.026123600E-2	1.867477298E-1	5.037400246E0	7.996633530E0
2.154976900E-2	3.663128614E-1	5.006275654E0	8.068459511E0
2.435377400E-2	4.668693244E-1	4.987122059E0	8.109161377E0
2.566207700E-2	5.434837937E-1	4.967968464E0	8.152256966E0
2.837623600E-2	5.985504389E-1	4.951209068E0	8.197746277E0
3.016688500E-2	6.320692301E-1	4.927267075E0	8.262390137E0
3.239415900E-2	6.416460276E-1	4.912901878E0	8.346187592E0
3.360711600E-2	6.224924326E-1	4.908113480E0	8.437167168E0
3.645150500E-2	5.770025849E-1	4.912901878E0	8.552088737E0
3.829219300E-2	5.123591423E-1	4.932055473E0	8.688557625E0
4.049719700E-2	4.477157295E-1	4.963180065E0	8.827422142E0
4.171938500E-2	3.782838583E-1	4.996698856E0	8.963891029E0
4.434807700E-2	3.112462163E-1	5.032611847E0	9.090784073E0
4.651642300E-2	2.442085743E-1	5.073313236E0	9.198522568E0
4.833434600E-2	1.771709323E-1	5.111620426E0	9.291896820E0
4.979384600E-2	1.005564705E-1	5.149928093E0	9.380482674E0
5.265469700E-2	2.154781483E-2	5.185841084E0	9.469067574E0
5.448926900E-2	-4.548983276E-2	5.226542473E0	9.560047150E0
5.668708200E-2	-1.101332754E-1	5.267243862E0	9.646238327E0
5.789515400E-2	-1.699883193E-1	5.303156853E0	9.722852707E0
6.074546700E-2	-2.250549644E-1	5.346252441E0	9.792284966E0
6.260130800E-2	-2.729389966E-1	5.379771233E0	9.868899345E0
6.479246700E-2	-3.064578176E-1	5.403713226E0	9.943120003E0
6.614792300E-2	-3.232172430E-1	5.432443619E0	1.001494598E1
6.878615900E-2	-3.256114423E-1	5.456385612E0	1.008916569E1
7.058111600E-2	-3.088520169E-1	5.477933407E0	1.014662647E1
7.278327400E-2	-2.657563984E-1	5.497087002E0	1.018732834E1
7.400819200E-2	-2.035071403E-1	5.525817394E0	1.021845245E1
7.683853900E-2	-1.268926859E-1	5.556941986E0	1.023281765E1
7.867734600E-2	-4.548983276E-2	5.583278179E0	1.023760605E1
8.087027400E-2	7.182605099E-3	5.609614372E0	1.024718285E1
8.208907700E-2	2.873042040E-2	5.616796970E0	1.026394272E1
8.467950000E-2	3.830722719E-2	5.612008572E0	1.032140350E1
8.692142300E-2	4.309562966E-2	5.600037575E0	1.042435455E1
8.896346200E-2	6.464344263E-2	5.578489780E0	1.055842972E1
9.019853900E-2	9.576806426E-2	5.540182590E0	1.070208168E1
9.303915900E-2	1.316810995E-1	5.511452198E0	1.084812832E1
9.489584600E-2	1.532289088E-1	5.497087002E0	1.095347309E1
9.706912000E-2	1.628057212E-1	5.468356609E0	1.098938560E1
9.829715400E-2	1.604115069E-1	5.415684223E0	1.095826149E1
1.011251970E-1	1.460463107E-1	5.329493046E0	1.087207031E1
1.029761540E-1	1.388636976E-1	5.202600479E0	1.071165848E1
1.051558510E-1	3.160346150E-1	4.881777287E0	1.044111347E1
1.065064620E-1	6.584054828E-1	4.378994942E0	1.011550236E1
1.091596970E-1	6.296750307E-1	4.151545525E0	1.031182671E1
1.109857690E-1	1.221042871E-1	4.232948780E0	1.121204662E1
1.131698890E-1	-6.272808313E-1	4.556165695E0	1.213860226E1
1.143896540E-1	-1.103726983E0	4.738125324E0	1.226310158E1
1.172266970E-1	-1.077390790E0	4.716577530E0	1.136288166E1
1.190606160E-1	-8.667010069E-1	4.769249916E0	1.006043530E1
1.212575820E-1	-6.655880809E-1	4.750096321E0	8.916007042E0
1.224648080E-1	-5.674257874E-1	4.616020679E0	8.348581314E0
1.250953460E-1	-6.727706790E-1	4.525041103E0	8.571242332E0
1.273440430E-1	-8.403648138E-1	4.400542736E0	8.834604263E0
1.290661540E-1	-1.005564690E0	4.153939724E0	8.939949036E0
1.306875770E-1	-1.132457376E0	3.852270603E0	8.916007042E0
1.334146970E-1	-1.240196466E0	3.564966440E0	8.825027466E0
1.352838850E-1	-1.367089152E0	3.344699860E0	8.695740700E0
1.374603890E-1	-1.482010841E0	3.236960649E0	8.614337921E0
1.386703080E-1	-1.558625340E0	3.270479441E0	8.626308441E0
1.415164660E-1	-1.575384736E0	3.373430252E0	8.664615631E0
1.434162690E-1	-1.532289028E0	3.462015629E0	8.647856712E0
1.455474660E-1	-1.405396342E0	3.509899616E0	8.520963669E0
1.469063460E-1	-1.216254473E0	3.543418407E0	8.286332130E0
1.495406970E-1	-9.720458984E-1	3.596091032E0	7.967903137E0
1.513785390E-1	-6.991068721E-1	3.636792421E0	7.601590633E0
1.535365820E-1	-4.285621047E-1	3.634398222E0	7.206547260E0
1.547589620E-1	-1.747767180E-1	3.557783842E0	6.835445881E0
1.575931970E-1	5.746084079E-2	3.385401249E0	6.557718277E0
1.595441540E-1	2.178723514E-1	2.995146275E0	6.392518520E0
1.616382740E-1	2.681505978E-1	2.528276920E0	6.303933144E0
1.628499230E-1	2.250549644E-1	2.200271368E0	6.251260757E0
1.655076160E-1	1.532289088E-1	1.999158382E0	6.282385349E0
1.677236200E-1	8.619125932E-2	1.867477298E0	6.488286495E0
1.697350050E-1	3.351882473E-2	1.798045516E0	6.888118267E0
1.711066160E-1	-5.746084079E-2	1.774103403E0	7.441178799E0
1.737913510E-1	-2.274491638E-1	1.810016513E0	8.106766701E0
1.757090000E-1	-3.782838583E-1	1.929726601E0	8.796297073E0
1.778214280E-1	-4.788403511E-1	2.142810583E0	9.464279175E0
1.790444620E-1	-5.506663918E-1	2.430114746E0	1.004607010E1
1.818779280E-1	-5.578489900E-1	2.753331900E0	1.056561184E1
1.837383850E-1	-4.836287498E-1	3.071760893E0	1.103248119E1
1.859232350E-1	-3.351882398E-1	3.311181068E0	1.147062016E1
1.875310000E-1	-1.268926859E-1	3.442862034E0	1.179862595E1
1.899166970E-1	1.508347094E-1	3.409343243E0	1.191594219E1
1.917263080E-1	4.477157295E-1	3.265691042E0	1.191115379E1
1.939125810E-1	6.655880809E-1	3.150769472E0	1.186326981E1
1.951330770E-1	8.403648138E-1	3.035847664E0	1.171243477E1
1.979697350E-1	1.015141487E0	2.885013103E0	1.147540855E1
1.997890000E-1	1.180341482E0	2.719813108E0	1.121922874E1
2.020006200E-1	1.340752959E0	2.535459518E0	1.091277122E1
2.034274620E-1	1.472434044E0	2.327163935E0	1.055603504E1
2.058043460E-1	1.565807939E0	2.114080191E0	1.018732834E1
2.080686540E-1	1.654393315E0	1.927332401E0	9.861717224E0
2.098096920E-1	1.719036818E0	1.764526606E0	9.552865028E0
2.114150000E-1	1.759738207E0	1.613691926E0	9.253589630E0
2.141689660E-1	1.783680320E0	1.477222443E0	8.990227699E0
2.161668850E-1	1.800439715E0	1.371877551E0	8.774748802E0
2.181995040E-1	1.826775908E0	1.297657371E0	8.580819130E0
2.196008080E-1	1.826775908E0	1.247379065E0	8.422801971E0
2.222558120E-1	1.812410712E0	1.213860273E0	8.295908928E0
2.241058080E-1	1.807622313E0	1.225831270E0	8.252813339E0
2.262856580E-1	1.810016513E0	1.261744261E0	8.200140953E0
2.276621540E-1	1.805228114E0	1.312022567E0	8.166622162E0
2.302885810E-1	1.774103403E0	1.367089152E0	8.137891769E0
2.321244620E-1	1.697489023E0	1.419761658E0	8.078036308E0
2.342986580E-1	1.532289028E0	1.436521053E0	7.987056732E0
2.356123850E-1	1.323993564E0	1.426944256E0	7.876923561E0
2.383553120E-1	1.120486379E0	1.393425345E0	7.785943985E0
2.402245000E-1	9.121908545E-1	1.326387763E0	7.702147007E0
2.423854660E-1	6.943184733E-1	1.230619669E0	7.608773232E0
2.435891920E-1	5.075707436E-1	1.065419793E0	7.510610580E0
2.462274230E-1	4.261679053E-1	7.709329724E-1	7.390900612E0
2.484537310E-1	4.740519226E-1	3.854664862E-1	7.259219646E0
2.504294620E-1	6.224924326E-1	-9.576806426E-2	7.139509678E0
2.519552690E-1	8.595184088E-1	-6.895300746E-1	7.012616634E0
2.545380430E-1	1.194706678E0	-1.436521053E0	6.873753071E0
2.565310770E-1	1.604115129E0	-2.377442360E0	6.734889507E0
2.585828120E-1	1.922544003E0	-3.356670856E0	6.627150536E0
2.597951150E-1	2.078166962E0	-4.175487995E0	6.569689274E0
2.626387350E-1	2.051830769E0	-4.771644115E0	6.471527100E0
2.646049230E-1	1.855506301E0	-5.078101635E0	6.291962147E0
2.666681580E-1	1.450886250E0	-4.991910458E0	6.035782337E0
2.680710770E-1	8.379706144E-1	-4.481945515E0	5.779603004E0
2.706611970E-1	5.506663769E-2	-3.629609823E0	5.640739441E0
2.724980000E-1	-8.068459630E-1	-2.664746523E0	5.719748020E0
2.746566970E-1	-1.742978811E0	-1.965639591E0	6.299144745E0
2.760263850E-1	-2.403778553E0	-1.513135433E0	7.714118004E0
2.787129270E-1	-2.667140722E0	-8.499416113E-1	8.856152534E0
2.805774230E-1	-3.181894064E0	-8.858546615E-2	9.009381294E0
2.827367350E-1	-3.744531393E0	5.793967843E-1	8.925583839E0
2.839520380E-1	-3.900154591E0	1.120486379E0	9.026140213E0
2.865524230E-1	-3.584120035E0	1.539471745E0	9.117119789E0
2.887959230E-1	-3.086126089E0	1.714248419E0	9.112331390E0
2.905260380E-1	-2.604891539E0	1.747767210E0	9.239224434E0
2.921902310E-1	-2.262520552E0	1.798045516E0	9.555258751E0
2.948881960E-1	-2.303221941E0	2.013523579E0	9.844957352E0
2.967409620E-1	-2.664746523E0	2.240972757E0	1.005564690E1
2.989179270E-1	-3.117250681E0	2.329558372E0	1.028070164E1
3.001596920E-1	-3.581725836E0	2.214636564E0	1.048420906E1
3.029747350E-1	-3.967192173E0	1.975216389E0	1.063504410E1
3.048473460E-1	-4.134786129E0	1.920149803E0	1.081221485E1
3.070197730E-1	-4.127603531E0	1.958456993E0	1.102290440E1
3.084458850E-1	-3.952826977E0	1.987187386E0	1.120725822E1
3.110125040E-1	-3.655946016E0	1.982398987E0	1.131978607E1
3.128697690E-1	-3.268085241E0	1.922544003E0	1.136527538E1
3.150072350E-1	-2.822763920E0	1.798045516E0	1.136048698E1
3.162240380E-1	-2.351106167E0	1.613691926E0	1.130781460E1
3.190636580E-1	-1.867477298E0	1.398213744E0	1.121922874E1
3.209043460E-1	-1.412579060E0	1.170764685E0	1.113782597E1
3.230944270E-1	-1.027112484E0	9.481038451E-1	1.104924107E1
3.243518460E-1	-7.302315235E-1	7.541735172E-1	1.093431950E1
3.269293460E-1	-4.501099288E-1	5.913678408E-1	1.078348446E1
3.291787730E-1	-5.027823523E-2	3.519476354E-1	1.056321812E1
3.311406920E-1	5.650315881E-1	-1.915361360E-2	1.027351952E1
3.325165770E-1	1.027112484E0	-2.466027737E-1	1.012507915E1
3.352623500E-1	1.223437071E0	-1.173158810E-1	1.036449909E1
3.372517690E-1	1.290474772E0	6.703764945E-2	1.053688145E1
3.392923500E-1	1.465251446E0	1.891419291E-1	1.053209305E1
3.405399620E-1	1.666364431E0	2.801215947E-1	1.042674828E1
3.433484650E-1	1.838746905E0	3.758896589E-1	1.035731697E1
3.452118080E-1	1.991975784E0	4.668693244E-1	1.029746151E1
3.473788890E-1	2.106897593E0	5.626373887E-1	1.021605873E1
3.487395770E-1	2.157175779E0	6.871358752E-1	1.016817474E1
3.513827350E-1	2.140416384E0	8.283938169E-1	1.018972206E1
3.532120000E-1	2.087743998E0	9.672574997E-1	1.023281765E1
3.553939650E-1	2.059013367E0	1.063025594E0	1.024718285E1
3.565873850E-1	2.149993181E0	1.096544385E0	1.030703831E1
3.594406920E-1	2.252943754E0	1.127668977E0	1.026154804E1
3.612897310E-1	2.418143749E0	1.168370485E0	1.017775154E1
3.634832730E-1	2.647987127E0	1.180341482E0	1.011789608E1
3.647281150E-1	2.868253708E0	1.170764685E0	1.005804157E1
3.675402730E-1	3.040636063E0	1.158793569E0	9.988609314E0
3.695471920E-1	3.174711466E0	1.158793569E0	9.897629738E0
3.715841580E-1	3.287238836E0	1.177947283E0	9.773131371E0
3.728118080E-1	3.387795448E0	1.201889277E0	9.610325813E0
3.756406190E-1	3.483563423E0	1.218648672E0	9.437943459E0
3.775516540E-1	3.576937437E0	1.240196466E0	9.265560150E0
3.796858120E-1	3.691859007E0	1.249773264E0	9.090784073E0
3.810083850E-1	3.823540211E0	1.240196466E0	8.901641846E0
3.837427730E-1	3.957615376E0	1.218648672E0	8.671798706E0
3.855808850E-1	4.084507942E0	1.189918280E0	8.394071579E0
3.877742730E-1	4.189853191E0	1.161187768E0	8.101978302E0
3.891062310E-1	4.266467571E0	1.132457376E0	7.824251175E0
3.917682730E-1	4.290409565E0	1.098938584E0	7.572859764E0
3.935706540E-1	4.254496574E0	1.070208192E0	7.352593422E0
3.957639650E-1	4.173093796E0	1.048660398E0	7.177816868E0
3.970586540E-1	4.084507942E0	1.036689281E0	7.041347027E0
3.998205420E-1	4.048594952E0	1.055842996E0	6.931213856E0
4.016556150E-1	4.024652958E0	1.055842996E0	6.845022678E0
4.038658500E-1	3.981557369E0	9.888052940E-1	6.775590897E0
4.050877310E-1	3.943250179E0	8.810662031E-1	6.742072105E0
4.077225770E-1	3.933673382E0	7.852981687E-1	6.756437302E0
4.099150000E-1	3.931279182E0	7.541735172E-1	6.809109688E0
4.119633110E-1	3.969586372E0	7.852981687E-1	6.883329868E0
4.132764230E-1	4.070142746E0	8.403648138E-1	6.921637058E0
4.160208880E-1	4.201824188E0	9.313444495E-1	6.914454460E0
4.178657690E-1	4.307168961E0	1.067813993E0	6.885724068E0
4.200511960E-1	4.367023945E0	1.230619669E0	6.821080685E0
4.213451540E-1	4.412513733E0	1.386242747E0	6.720524311E0
4.241083110E-1	4.474762917E0	1.537077546E0	6.598419666E0
4.261370810E-1	4.529829502E0	1.699883223E0	6.507440090E0
4.281554650E-1	4.592078686E0	1.874659896E0	6.469132900E0
4.294963850E-1	4.675876141E0	2.049436569E0	6.469132900E0
4.321490040E-1	4.769249916E0	2.209848166E0	6.500257492E0
4.339660000E-1	4.853046894E0	2.312798738E0	6.572083473E0
4.361446960E-1	4.924872875E0	2.413355350E0	6.715735912E0
4.373650380E-1	5.051765442E0	2.501940727E0	6.971915245E0
4.402012730E-1	5.341464043E0	2.353500366E0	7.232883453E0
4.420408460E-1	5.702988625E0	2.082955360E0	7.460332394E0
4.442313500E-1	6.066906929E0	1.886630893E0	7.709329605E0
4.454521540E-1	6.160281181E0	1.872265697E0	7.752425194E0
4.480373460E-1	6.454767704E0	1.872265697E0	7.668628216E0
4.502542310E-1	6.682217121E0	1.874659896E0	7.472303391E0
4.520875000E-1	6.943184853E0	1.862688899E0	7.194576263E0
4.536476540E-1	7.206547260E0	1.881842494E0	6.833051682E0
4.563997730E-1	7.455543995E0	1.934514999E0	6.392518520E0
4.582689230E-1	7.735665798E0	1.982398987E0	5.937620163E0
4.604301190E-1	7.958326340E0	2.020706177E0	5.516240597E0
4.616760000E-1	8.130708694E0	2.082955360E0	5.125985622E0
4.644863110E-1	8.281543732E0	2.173935175E0	4.812345505E0
4.663319610E-1	8.403648376E0	2.317587137E0	4.599261284E0
4.685177730E-1	8.420407295E0	2.566584110E0	4.496310711E0
4.698777310E-1	8.317456245E0	2.908955097E0	4.508281708E0
4.725203880E-1	8.125920296E0	3.306392431E0	4.623203278E0
4.743387690E-1	7.874529362E0	3.718195200E0	4.814739704E0
4.765315800E-1	7.594407558E0	4.082113743E0	5.056553841E0
4.777658850E-1	7.323863029E0	4.383783340E0	5.303156853E0
4.805895420E-1	7.089231014E0	4.601655483E0	5.530605793E0
4.824223080E-1	6.907271862E0	4.721365929E0	5.736507416E0
4.846208500E-1	6.806715488E0	4.740519524E0	5.923254967E0
4.858541540E-1	6.828263283E0	4.642356873E0	6.078877926E0
4.884166540E-1	6.962338448E0	4.460397720E0	6.191405773E0
4.906318460E-1	7.173028469E0	4.213795185E0	6.282385349E0
4.926631150E-1	7.393294811E0	3.931279182E0	6.335057735E0
4.941647310E-1	7.582436562E0	3.632004023E0	6.382941723E0
4.967752730E-1	7.711723804E0	3.335123062E0	6.423643112E0
4.986829610E-1	7.781155586E0	3.052607059E0	6.466738701E0
5.008204260E-1	7.805097580E0	2.791639090E0	6.512228489E0
5.020522310E-1	7.814674377E0	2.568978310E0	6.579266071E0
5.048775420E-1	7.824251175E0	2.403778553E0	6.641515732E0
5.068131920E-1	7.833827972E0	2.288856745E0	6.677428722E0
5.089082730E-1	7.841010571E0	2.219424963E0	6.696582317E0
5.104485770E-1	7.855375767E0	2.200271368E0	6.679822922E0
5.129013490E-1	7.888894558E0	2.221819162E0	6.612784863E0
5.147135000E-1	7.927201748E0	2.264914751E0	6.500257492E0
5.168975030E-1	7.958326340E0	2.351106167E0	6.368576527E0
5.181860000E-1	7.982268333E0	2.470816135E0	6.208165169E0
5.209540030E-1	8.025363922E0	2.616862535E0	6.004657745E0
5.229828880E-1	8.133103371E0	2.777273893E0	5.762843609E0
5.249986570E-1	8.305485725E0	2.954444885E0	5.511452198E0
5.262086150E-1	8.506598473E0	3.143586874E0	5.276820660E0
5.288470380E-1	8.738836288E0	3.332728863E0	5.035006046E0
5.309790380E-1	8.983044624E0	3.531447411E0	4.766855717E0
5.327979230E-1	9.215282440E0	3.746925592E0	4.462791920E0
5.343435000E-1	9.421183586E0	3.969586372E0	4.161122322E0
5.371433110E-1	9.588777542E0	4.201824188E0	3.876212597E0
5.391193460E-1	9.713275909E0	4.429273129E0	3.622427225E0
5.411740800E-1	9.809044838E0	4.639962673E0	3.418920040E0
5.424107310E-1	9.880870819E0	4.838681698E0	3.248931646E0
5.452310030E-1	9.933543205E0	5.092466831E0	3.014299870E0
5.471412690E-1	9.952696800E0	5.214571476E0	2.880224705E0
5.492766190E-1	9.955090523E0	5.307945251E0	2.760514498E0
5.506409230E-1	9.916783333E0	5.370194435E0	2.640804529E0
5.532698110E-1	9.868899345E0	5.367800236E0	2.540247917E0
5.550772310E-1	9.811438560E0	5.312733650E0	2.449268341E0
5.572653880E-1	9.725247383E0	5.219359875E0	2.339135170E0
5.584955380E-1	9.610325813E0	5.104437828E0	2.224213362E0
5.613218880E-1	9.440337181E0	4.979939461E0	2.121262789E0
5.631536150E-1	9.215282440E0	4.848258495E0	2.020706177E0
5.653525800E-1	8.951920509E0	4.709394932E0	1.932120800E0
5.665760000E-1	8.683769226E0	4.563348293E0	1.833958507E0
5.691673080E-1	8.432378769E0	4.431667328E0	1.738190413E0
5.714380800E-1	8.221688271E0	4.304774761E0	1.656787634E0
5.733711540E-1	8.070854187E0	4.173093796E0	1.604115129E0
5.747404610E-1	7.948749542E0	4.036623955E0	1.563413739E0
5.775210030E-1	7.771578789E0	3.940855980E0	1.505952835E0
5.795471150E-1	7.517793179E0	3.904942989E0	1.422155857E0
5.815508880E-1	7.290344238E0	3.897760391E0	1.328781962E0
5.827863840E-1	7.149086475E0	3.864241600E0	1.273715258E0
5.856080410E-1	7.089231014E0	3.799597979E0	1.254561663E0
5.876366950E-1	7.065289021E0	3.718195200E0	1.266532660E0
5.896387340E-1	7.000645638E0	3.605667830E0	1.314416766E0
5.909983460E-1	6.907271862E0	3.488351822E0	1.376665950E0
5.936416570E-1	6.888118267E0	3.430891037E0	1.405396342E0
5.956354650E-1	6.907271862E0	3.411737442E0	1.424550056E0
5.976515030E-1	6.909666061E0	3.438073635E0	1.448492050E0
5.988840380E-1	6.902483463E0	3.476380825E0	1.470039845E0
6.017083110E-1	6.871358871E0	3.509899616E0	1.470039845E0
6.036384610E-1	6.880935669E0	3.545812607E0	1.412579060E0
6.057388110E-1	6.993463039E0	3.581725836E0	1.314416766E0
6.069718840E-1	7.170634270E0	3.615244627E0	1.218648672E0
6.095440380E-1	7.316680431E0	3.667917013E0	1.192312479E0
6.118247340E-1	7.407660007E0	3.742137194E0	1.173158884E0
6.138395800E-1	7.465120792E0	3.809175014E0	1.122880578E0
6.155222690E-1	7.522581577E0	3.857059002E0	1.084573388E0
6.178970030E-1	7.501033783E0	3.919308186E0	1.034295082E0
6.197693460E-1	7.340622425E0	4.022258759E0	9.935936928E-1
6.219429260E-1	7.201758862E0	4.127603531E0	9.816226959E-1
6.235626540E-1	7.199364662E0	4.197035789E0	9.313444495E-1
6.259999640E-1	7.283161640E0	4.218583584E0	8.858546019E-1
6.279185000E-1	7.376535416E0	4.237737179E0	8.571242094E-1
6.300311950E-1	7.465120792E0	4.256890774E0	8.283938169E-1
6.315295380E-1	7.558494568E0	4.276044369E0	8.068459630E-1
6.340238870E-1	7.687781811E0	4.371812344E0	8.116343617E-1
6.359399610E-1	8.015787125E0	4.723760128E0	9.935936928E-1
6.380198110E-1	8.403648376E0	5.118803024E0	1.244984865E0
6.394249230E-1	8.635885239E0	5.310339451E0	1.218648672E0
6.420768490E-1	8.664615631E0	5.269638062E0	8.523358107E-1
6.439357690E-1	8.473079681E0	5.142745018E0	3.256114423E-1
6.461228490E-1	8.142680168E0	5.082890034E0	-2.873042040E-2
6.475414230E-1	7.841010571E0	5.140350819E0	-6.464344263E-2
6.499762310E-1	7.718906403E0	5.245696068E0	7.661445439E-2
6.521953460E-1	7.817068577E0	5.288791656E0	2.035071403E-1
6.542203100E-1	8.161833763E0	5.195417881E0	2.873041928E-1
6.558949610E-1	8.346187592E0	5.087678432E0	4.477157295E-1
6.582770800E-1	8.420407295E0	5.001487255E0	7.254431248E-1
6.601581920E-1	8.415618896E0	4.946420670E0	1.055842996E0
6.623076570E-1	8.461109161E0	4.896142483E0	1.443703651E0
6.636248460E-1	8.544905663E0	4.812345505E0	1.886630893E0
6.663650800E-1	8.592789650E0	4.726154327E0	2.293645144E0
6.682627690E-1	8.621520042E0	4.637568474E0	2.607285738E0
6.704113870E-1	8.614337921E0	4.505887508E0	2.801215887E0
6.717850380E-1	8.544905663E0	4.321534157E0	2.894589901E0
6.744049640E-1	8.420407295E0	4.098873138E0	2.956839085E0
6.762195000E-1	8.259995461E0	3.866635799E0	2.990357876E0
6.784011570E-1	8.070854187E0	3.646369219E0	3.023876667E0
6.795995380E-1	7.884106159E0	3.447650433E0	3.071760893E0
6.824587720E-1	7.728483200E0	3.258508444E0	3.105279684E0
6.843343460E-1	7.615955830E0	3.076549292E0	3.086126089E0
6.865058100E-1	7.541735172E0	2.920926094E0	3.031059265E0
6.877481150E-1	7.510610580E0	2.786850691E0	2.937685490E0
6.903033070E-1	7.522581577E0	2.683900118E0	2.829946518E0
6.925923490E-1	7.568071365E0	2.616862535E0	2.722207308E0
6.943323460E-1	7.625532627E0	2.578555346E0	2.626439333E0
6.958988070E-1	7.678205013E0	2.566584110E0	2.552218914E0
6.986776560E-1	7.735665798E0	2.580949545E0	2.487575531E0
7.007069640E-1	7.797914982E0	2.612074137E0	2.444479942E0
7.027092330E-1	7.855375767E0	2.650381327E0	2.456450939E0
7.039233070E-1	7.903259754E0	2.683900118E0	2.521094322E0
7.067669260E-1	7.948749542E0	2.729389906E0	2.616862535E0
7.086129230E-1	7.984662533E0	2.782062292E0	2.715024710E0
7.107987720E-1	8.030152321E0	2.844311714E0	2.810792685E0
7.122260770E-1	8.082824707E0	2.901772499E0	2.887407303E0
7.148033870E-1	8.125920296E0	2.966415882E0	2.940079689E0
7.166748070E-1	8.113949776E0	3.038241863E0	2.978386879E0
7.188165790E-1	8.037335396E0	3.129221678E0	2.999934673E0
7.200238070E-1	7.939172745E0	3.193865061E0	2.992752075E0
7.228740030E-1	7.855375767E0	3.236960649E0	2.940079689E0
7.247625380E-1	7.800309181E0	3.258508444E0	2.841917515E0
7.269050410E-1	7.797914982E0	3.263296843E0	2.710236311E0
7.282001150E-1	7.876923561E0	3.277662039E0	2.595314741E0
7.307006920E-1	8.030152321E0	3.313575268E0	2.545036316E0
7.329452300E-1	8.233659744E0	3.375824451E0	2.545036316E0
7.349425380E-1	8.453926086E0	3.454833031E0	2.590526342E0
7.362619230E-1	8.686163902E0	3.519476414E0	2.655169725E0
7.390591950E-1	8.951920509E0	3.586514235E0	2.743755102E0
7.409429230E-1	9.244012833E0	3.663128614E0	2.861071110E0
7.431049260E-1	9.543288231E0	3.718195200E0	2.983175278E0
7.443941920E-1	9.825803757E0	3.758896589E0	3.088520288E0
7.471623490E-1	1.008677197E1	3.790021181E0	3.177105665E0
7.490524610E-1	1.032858658E1	3.799597979E0	3.229778051E0
7.511933100E-1	1.053448772E1	3.785232782E0	3.234566450E0
7.525765770E-1	1.068532181E1	3.737348795E0	3.203441858E0
7.551875790E-1	1.077151299E1	3.658340216E0	3.143586874E0
7.570302690E-1	1.079306126E1	3.564966440E0	3.062183857E0
7.591840020E-1	1.075714779E1	3.450044632E0	2.985569477E0
7.604225000E-1	1.067335129E1	3.313575268E0	2.904166698E0
7.632421560E-1	1.048181534E1	3.074155092E0	2.779668093E0
7.650993460E-1	1.035013390E1	2.906560898E0	2.712630510E0
7.672886950E-1	1.020887566E1	2.748543501E0	2.652775526E0
7.685354610E-1	1.005085850E1	2.600103140E0	2.588132143E0
7.710845380E-1	9.868899345E0	2.449268341E0	2.518700123E0
7.732861150E-1	9.684545517E0	2.315192938E0	2.458845139E0
7.753864640E-1	9.514557838E0	2.207453966E0	2.413355350E0
7.766069230E-1	9.354146004E0	2.121262789E0	2.389413357E0
7.794438870E-1	9.191340446E0	2.061407566E0	2.382230759E0
7.813133070E-1	9.057265282E0	2.025494576E0	2.372653961E0
7.834747330E-1	8.942343712E0	2.003946781E0	2.319981337E0
7.847686920E-1	8.825027466E0	1.996764183E0	2.224213362E0
7.875324640E-1	8.712499619E0	1.999158382E0	2.102109194E0
7.893921920E-1	8.633491516E0	2.008735180E0	1.975216389E0
7.915781180E-1	8.576030731E0	2.037465572E0	1.865083098E0
7.929175380E-1	8.564059258E0	2.068590164E0	1.771709204E0
7.955726180E-1	8.597578049E0	2.082955360E0	1.659181833E0
7.974500770E-1	8.681375504E0	2.097320795E0	1.553836942E0
7.995700410E-1	8.834604263E0	2.157175779E0	1.496376038E0
8.008061540E-1	9.038111687E0	2.221819162E0	1.498770237E0
8.036282330E-1	9.284713745E0	2.288856745E0	1.544260144E0
8.054617300E-1	9.538499832E0	2.353500366E0	1.635239720E0
8.076597330E-1	9.789890289E0	2.396595955E0	1.745373011E0
8.089176540E-1	1.002452278E1	2.432508945E0	1.872265697E0
8.115681150E-1	1.024000072E1	2.454056740E0	2.018311977E0
8.137478870E-1	1.041956615E1	2.463633537E0	2.152387381E0
8.157534230E-1	1.057279491E1	2.456450939E0	2.272097349E0
8.171358070E-1	1.070208168E1	2.442085743E0	2.384624958E0
8.198326560E-1	1.080024433E1	2.420537949E0	2.497152328E0
8.216674230E-1	1.085291672E1	2.398990154E0	2.624045134E0
8.238645790E-1	1.086967564E1	2.394201756E0	2.741360903E0
8.251259230E-1	1.088164711E1	2.367865562E0	2.822763920E0
8.279225020E-1	1.090319443E1	2.334346771E0	2.863465309E0
8.297716920E-1	1.092474270E1	2.300827742E0	2.865859509E0
8.319543870E-1	1.094150162E1	2.264914751E0	2.832340717E0
8.333484610E-1	1.095107841E1	2.226607561E0	2.782062292E0
8.359585410E-1	1.094629002E1	2.190694571E0	2.738966703E0
8.377760380E-1	1.093192482E1	2.154781580E0	2.726995707E0
8.399693100E-1	1.088404083E1	2.121262789E0	2.719813108E0
8.411913070E-1	1.079784966E1	2.092532396E0	2.710236311E0
8.440214610E-1	1.066856289E1	2.080561161E0	2.693476915E0
8.458648460E-1	1.051772785E1	2.082955360E0	2.655169725E0
8.480579640E-1	1.036210537E1	2.087743998E0	2.583343744E0
8.492715380E-1	1.021845245E1	2.087743998E0	2.492363930E0
8.519105000E-1	1.007480049E1	2.097320795E0	2.384624958E0
8.541446940E-1	9.931148529E0	2.118868589E0	2.252943754E0
8.560166530E-1	9.794678688E0	2.133233786E0	2.111685991E0
8.573729610E-1	9.670180321E0	2.138022184E0	1.960851192E0
8.602168480E-1	9.516951561E0	2.123656988E0	1.735796213E0
8.620538070E-1	9.409213066E0	2.116474390E0	1.623268723E0
8.642631560E-1	9.303867340E0	2.102109194E0	1.534683347E0
8.661291150E-1	9.200917244E0	2.075772762E0	1.458068848E0
8.683204630E-1	9.095572472E0	2.039859772E0	1.405396342E0
8.701718460E-1	9.004592896E0	2.013523579E0	1.376665950E0
8.723513100E-1	8.937555313E0	1.989581585E0	1.357512355E0
8.737699610E-1	8.894459724E0	1.956062794E0	1.347935557E0
8.763460020E-1	8.880094528E0	1.920149803E0	1.343147159E0
8.781269610E-1	8.868123055E0	1.881842494E0	1.357512355E0
8.803423480E-1	8.853757858E0	1.831564307E0	1.391031146E0
8.815680380E-1	8.844181061E0	1.786074519E0	1.419761658E0
8.844000400E-1	8.827422142E0	1.733402014E0	1.484405041E0
8.862457300E-1	8.801085472E0	1.692700624E0	1.620874524E0
8.884462330E-1	8.808267593E0	1.663970232E0	1.781286120E0
8.896384230E-1	8.863334656E0	1.642422318E0	1.941697598E0
8.922955380E-1	8.963891029E0	1.642422318E0	2.118868589E0
8.944960380E-1	9.105149269E0	1.651999116E0	2.308010340E0
8.964842690E-1	9.296685219E0	1.663970232E0	2.477998734E0
8.977559610E-1	9.538499832E0	1.673547029E0	2.604891539E0
9.006023860E-1	9.797073364E0	1.690306425E0	2.662352324E0
9.024435000E-1	1.002691650E1	1.714248419E0	2.655169725E0
9.046345400E-1	1.021605873E1	1.740584612E0	2.590526342E0
9.060378840E-1	1.036928749E1	1.769315004E0	2.475604534E0
9.086923090E-1	1.047223854E1	1.798045516E0	2.315192938E0
9.107183070E-1	1.049378586E1	1.829170108E0	2.123656988E0
9.127385400E-1	1.044590187E1	1.865083098E0	1.917755604E0
9.140758460E-1	1.035971069E1	1.898601890E0	1.723825216E0
9.167327710E-1	1.025436592E1	1.936909199E0	1.544260144E0
9.185250770E-1	1.014902115E1	1.975216389E0	1.381454349E0
9.207288860E-1	1.005564690E1	2.011129379E0	1.259350061E0
9.220077300E-1	9.969455719E0	2.042253971E0	1.173158884E0
9.247861170E-1	9.890447617E0	2.070984364E0	1.134851575E0
9.266180760E-1	9.832986832E0	2.094926596E0	1.137245774E0
9.288167320E-1	9.789890289E0	2.111685991E0	1.163581967E0
9.300258070E-1	9.744400978E0	2.106897593E0	1.192312479E0
9.326201530E-1	9.694122314E0	2.078166962E0	1.204283476E0
9.348457300E-1	9.665391922E0	2.047042370E0	1.201889277E0
9.366364230E-1	9.651026726E0	2.003946781E0	1.187524080E0
9.382687300E-1	9.655815125E0	1.932120800E0	1.173158884E0
9.409867710E-1	9.665391922E0	1.841141105E0	1.168370485E0
9.428373070E-1	9.662998199E0	1.723825216E0	1.156399369E0
9.450170400E-1	9.651026726E0	1.575384736E0	1.132457376E0
9.462462300E-1	9.646238327E0	1.400607944E0	1.098938584E0
9.490741940E-1	9.648633003E0	1.213860273E0	1.072602391E0
9.509423460E-1	9.667786598E0	1.019929886E0	1.041477680E0
9.531043480E-1	9.706093788E0	8.236053586E-1	1.007958889E0
9.544468070E-1	9.773131371E0	6.320692301E-1	9.864110947E-1
9.571073090E-1	9.859322548E0	4.596867263E-1	9.744400978E-1
9.589344230E-1	9.964667320E0	3.112462163E-1	9.552865028E-1
9.611184630E-1	1.009156036E1	1.795651317E-1	9.385270476E-1
9.623254230E-1	1.023521233E1	9.097966552E-2	9.313444495E-1
9.651703840E-1	1.038125896E1	5.267243832E-2	9.337386489E-1
9.669867300E-1	1.048899746E1	-9.576806799E-3	9.552865028E-1
9.692053090E-1	1.046745014E1	-6.224924326E-2	9.816226959E-1
9.704093840E-1	1.042435455E1	-8.858546615E-2	9.935936928E-1
9.729953840E-1	1.037168217E1	-1.029506698E-1	9.983820915E-1
9.752908480E-1	1.034295177E1	-9.576806426E-2	9.983820915E-1
9.772459230E-1	1.034055710E1	-5.506663769E-2	9.792284966E-1
9.785286530E-1	1.037407589E1	1.436521020E-2	9.744400978E-1
9.813591170E-1	1.044590187E1	1.197100878E-1	9.816226959E-1
9.833883860E-1	1.054406452E1	2.418143749E-1	9.648633003E-1
9.854053090E-1	1.069489861E1	3.782838583E-1	9.313444495E-1
9.866298070E-1	1.084094524E1	4.836287498E-1	8.283938169E-1
9.894623480E-1	1.094629002E1	5.602431893E-1	6.727706790E-1
9.914553840E-1	1.100375080E1	6.368576288E-1	5.698199868E-1
9.934922710E-1	1.100614548E1	7.230489254E-1	5.889736414E-1
9.950973840E-1	1.095826149E1	8.212111592E-1	6.847416759E-1
9.974856170E-1	1.088164711E1	9.241618514E-1	8.212111592E-1
9.994165000E-1	1.076672459E1	1.017535686E0	9.481038451E-1
1.001481501E0	1.064222622E1	1.132457376E0	1.031900883E0
1.002742538E0	1.056321812E1	1.304839969E0	1.098938584E0
1.005538309E0	1.052969933E1	1.527500629E0	1.165976286E0
1.007566886E0	1.053927612E1	1.798045516E0	1.235408068E0
1.009583732E0	1.055842972E1	2.116474390E0	1.247379065E0
1.010798346E0	1.053688145E1	2.442085743E0	1.158793569E0
1.013403423E0	1.049618053E1	2.772485495E0	1.000776291E0
1.015642576E0	1.045308495E1	3.138798475E0	8.690952063E-1
1.017373615E0	1.038125896E1	3.560178041E0	8.427590132E-1
1.019098500E0	1.028309631E1	4.058171749E0	9.050082564E-1
1.021737194E0	1.014183807E1	4.541800499E0	9.241618514E-1
1.023766001E0	9.964667320E0	4.989516258E0	8.978256583E-1
1.025768501E0	9.782708168E0	5.425261021E0	7.900865674E-1
1.026986807E0	9.627084732E0	5.858611584E0	5.674257874E-1
1.029825232E0	9.516951561E0	6.303933144E0	2.705447972E-1
1.031853809E0	9.461885452E0	6.758831501E0	-9.097966552E-2
1.033881501E0	9.485827446E0	7.244854450E0	-4.884171486E-1
1.035419615E0	9.648633003E0	7.812280178E0	-8.379706144E-1
1.037893078E0	9.911994934E0	8.382100105E0	-1.247379065E0
1.039735153E0	1.014902115E1	8.841787338E0	-1.769315004E0
1.041887694E0	1.028309631E1	9.169792175E0	-2.286462545E0
1.043103846E0	1.030464458E1	9.366117477E0	-2.700659513E0
1.045944001E0	1.025436592E1	9.366117477E0	-3.095702887E0
1.047792384E0	1.020169353E1	9.356540680E0	-3.110068083E0
1.049974694E0	1.020887566E1	9.380482674E0	-2.705447912E0
1.051468692E0	1.020408726E1	9.236829758E0	-2.312798738E0
1.053786807E0	1.015620327E1	8.841787338E0	-2.154781580E0
1.056059194E0	1.007001209E1	8.109161377E0	-2.353500366E0
1.058015538E0	9.962273598E0	7.244854450E0	-2.557007313E0
1.059626846E0	9.900024414E0	6.543353081E0	-2.267308950E0
1.062142040E0	9.830592155E0	5.875370979E0	-1.857900500E0
1.064165346E0	9.689333916E0	4.802768707E0	-1.381454349E0
1.066172578E0	9.598354340E0	4.094084740E0	-1.065419793E0
1.067687884E0	9.562441826E0	3.778050184E0	-8.978256583E-1
1.070228386E0	9.457097054E0	2.928108692E0	-6.057330370E-1
1.072051653E0	9.402029991E0	2.382230759E0	-6.631938815E-1
1.074258693E0	9.397241592E0	1.845929503E0	-7.852981687E-1
1.075636692E0	9.512163162E0	1.357512355E0	-8.978256583E-1
1.078262886E0	9.749189377E0	9.361328483E-1	-9.600749016E-1
1.080256847E0	1.006522369E1	6.775590777E-1	-6.512228847E-1
1.082273847E0	1.048181534E1	4.955997467E-1	-2.896983922E-1
1.083524423E0	1.095347309E1	3.567360640E-1	-1.244984865E-1
1.086330847E0	1.140118885E1	2.466027737E-1	-1.292868853E-1
1.088176615E0	1.179144382E1	8.379705995E-2	-4.070142806E-1
1.090376001E0	1.206438255E1	-5.506663769E-2	-6.416460276E-1
1.091608153E0	1.217451572E1	-1.580173075E-1	-5.674257874E-1
1.094196807E0	1.217690945E1	-3.064578176E-1	-3.974374831E-1
1.096415615E0	1.207156467E1	-5.075707436E-1	-2.202665508E-1
1.098157692E0	1.181777954E1	-7.038952708E-1	1.675941236E-2
1.099731653E0	1.142752457E1	-9.193734527E-1	3.615244627E-1
1.102533309E0	1.091995430E1	-1.194706678E0	7.398083210E-1
1.104562232E0	1.045069027E1	-1.364694953E0	1.177947283E0
1.106579001E0	1.013226128E1	-1.441309452E0	1.606509328E0
1.107831999E0	9.895236015E0	-1.549048543E0	1.953668594E0
1.110636347E0	9.682151794E0	-1.721431017E0	2.171540976E0
1.112532653E0	9.485827446E0	-1.915361404E0	2.269703150E0
1.114665732E0	9.289502144E0	-2.092532396E0	2.257732153E0
1.116216884E0	9.074024200E0	-2.238578558E0	2.229001760E0
1.118659463E0	8.848969460E0	-2.331952572E0	2.202665567E0
1.120469769E0	8.645462036E0	-2.415749550E0	2.130839586E0
1.122655770E0	8.456320763E0	-2.487575531E0	2.049436569E0
1.123973307E0	8.281543732E0	-2.511517525E0	1.963245392E0
1.126712309E0	8.159439087E0	-2.511517525E0	1.826775908E0
1.128606461E0	8.099584579E0	-2.506729126E0	1.642422318E0
1.130757001E0	8.087613106E0	-2.497152328E0	1.479616642E0
1.131970769E0	8.154650688E0	-2.463633537E0	1.331176162E0
1.134594269E0	8.281543732E0	-2.403778553E0	1.244984865E0
1.136817692E0	8.465897560E0	-2.377442360E0	1.163581967E0
1.138820653E0	8.686163902E0	-2.406172752E0	9.121908545E-1
1.140147692E0	8.868123055E0	-2.442085743E0	5.482721925E-1
1.142910039E0	8.942343712E0	-2.454056740E0	3.375824392E-1
1.144869615E0	8.923190117E0	-2.456450939E0	3.639186621E-1
1.146940616E0	8.848969460E0	-2.456450939E0	4.213795066E-1
1.148329384E0	8.777143478E0	-2.463633537E0	3.615244627E-1
1.150997962E0	8.765172005E0	-2.487575531E0	3.160346150E-1
1.152993038E0	8.853757858E0	-2.540247917E0	3.639186621E-1
1.155043309E0	9.062053680E0	-2.640804529E0	4.644751251E-1
1.156518922E0	9.361329079E0	-2.765302896E0	5.243301988E-1
1.159036539E0	9.708487511E0	-2.882618904E0	5.554547906E-1
1.160847384E0	1.007719517E1	-2.975992680E0	5.554547906E-1
1.163032847E0	1.046266174E1	-3.055001259E0	5.674257874E-1
1.164232769E0	1.086967564E1	-3.138798475E0	5.817909837E-1
1.167089539E0	1.128626728E1	-3.222595453E0	5.746083856E-1
1.168964922E0	1.168609810E1	-3.303998232E0	5.171475410E-1
1.171121193E0	1.207156467E1	-3.392583847E0	4.333505034E-1
1.172470461E0	1.244027233E1	-3.493140221E0	2.753331959E-1
1.174943192E0	1.298136139E1	-3.641580820E0	4.309562966E-2
1.177161653E0	1.333330917E1	-3.711012602E0	-4.309562966E-2
1.178980038E0	1.364216137E1	-3.773261786E0	-1.532289088E-1
1.180537461E0	1.387439919E1	-3.845088005E0	-3.040636182E-1
1.183289385E0	1.404678154E1	-3.921702385E0	-4.788403511E-1
1.185194192E0	1.418564510E1	-3.988739967E0	-6.416460276E-1
1.187319347E0	1.431493187E1	-4.034229755E0	-7.637503147E-1
1.188682653E0	1.443943024E1	-4.053383350E0	-8.834604025E-1
1.191376347E0	1.455435181E1	-4.050989151E0	-1.017535686E0
1.193238384E0	1.462138939E1	-4.029441357E0	-1.137245774E0
1.195407193E0	1.460702419E1	-4.024652958E0	-1.199495077E0
1.196791615E0	1.450167942E1	-4.046200752E0	-1.185129881E0
1.199411539E0	1.430774975E1	-4.091690540E0	-1.103726983E0
1.201403576E0	1.406114674E1	-4.175487995E0	-1.005564690E0
1.203422231E0	1.379060173E1	-4.278438568E0	-9.074024558E-1
1.204632615E0	1.350090313E1	-4.386177540E0	-8.236053586E-1
1.207479462E0	1.318247414E1	-4.496310711E0	-7.589619160E-1
1.209315999E0	1.284489250E1	-4.592078686E0	-7.230489254E-1
1.211510808E0	1.250730991E1	-4.661510944E0	-7.038952708E-1
1.212767192E0	1.220085144E1	-4.718971729E0	-6.751648784E-1
1.215420269E0	1.191354752E1	-4.781220913E0	-6.224924326E-1
1.217540499E0	1.165976238E1	-4.838681698E0	-5.530605912E-1
1.219566538E0	1.143949604E1	-4.800374508E0	-4.884171486E-1
1.220818615E0	1.128147888E1	-4.740519524E0	-4.477157295E-1
1.223666539E0	1.118331623E1	-4.711789131E0	-4.453215301E-1
1.225526807E0	1.111867237E1	-4.632780075E0	-4.596867263E-1
1.227712847E0	1.108036518E1	-4.426878929E0	-5.363011956E-1
1.228930346E0	1.105163479E1	-4.118026733E0	-6.368576288E-1
1.231769770E0	1.100375080E1	-3.775655985E0	-6.464344859E-1
1.233650461E0	1.093671322E1	-3.452438831E0	-5.746083856E-1
1.235800962E0	1.087446404E1	-3.169923067E0	-5.099649429E-1
1.237165269E0	1.084094524E1	-2.913743496E0	-4.165911078E-1
1.239795347E0	1.086249352E1	-2.676717520E0	-3.447650373E-1
1.241592115E0	1.093910789E1	-2.468421936E0	-3.160346150E-1
1.243792154E0	1.104205799E1	-2.293645144E0	-3.399766386E-1
1.245002230E0	1.114979744E1	-2.118868589E0	-3.830722570E-1
1.247849270E0	1.122880554E1	-1.877054095E0	-3.998316824E-1
1.249703692E0	1.127668953E1	-1.575384736E0	-4.118026793E-1
1.251896193E0	1.128147888E1	-1.211466074E0	-4.453215301E-1
1.253117345E0	1.124077702E1	-8.140285611E-1	-5.123591423E-1
1.255694076E0	1.119528675E1	-4.261679053E-1	-6.033388376E-1
1.257903692E0	1.112346077E1	-1.675941236E-2	-6.943184733E-1
1.259696999E0	1.102529907E1	4.237737060E-1	-7.613561153E-1
1.261226884E0	1.091755962E1	8.068459630E-1	-8.236053586E-1
1.264050885E0	1.082897472E1	1.122880578E0	-8.906430602E-1
1.266061153E0	1.076193619E1	1.400607944E0	-9.648633003E-1
1.268082924E0	1.070208168E1	1.651999116E0	-1.046266198E0
1.269333499E0	1.067335129E1	1.845929503E0	-1.125274777E0
1.272140423E0	1.065898609E1	1.989581585E0	-1.189918280E0
1.274039615E0	1.065180302E1	2.128445387E0	-1.247379065E0
1.276186539E0	1.064222622E1	2.181117773E0	-1.218648672E0
1.277592730E0	1.065419769E1	2.190694571E0	-1.139639974E0
1.280180231E0	1.060631371E1	2.245761156E0	-1.067813993E0
1.282034538E0	1.056800652E1	2.221819162E0	-1.005564690E0
1.284176577E0	1.060870743E1	1.984793186E0	-9.481038451E-1
1.285516769E0	1.061110210E1	1.611297727E0	-8.667010069E-1
1.288233885E0	1.051293945E1	1.206677675E0	-8.403648138E-1
1.290160615E0	1.038365269E1	6.847416759E-1	-8.427590132E-1
1.292265308E0	1.023760605E1	1.843535304E-1	-8.547300100E-1
1.293469692E0	1.017056847E1	-2.920926213E-1	-8.403648138E-1
1.296088499E0	1.009874249E1	-8.116343617E-1	-8.451532125E-1
1.298278499E0	9.983820915E0	-1.254561663E0	-7.398083210E-1
1.300365961E0	9.842563629E0	-1.553836942E0	-4.525041282E-1
1.301598615E0	9.703699112E0	-1.656787634E0	-2.873042040E-2
1.304437039E0	9.627084732E0	-1.654393315E0	4.501099288E-1
1.306287307E0	9.643844604E0	-1.623268723E0	1.036689281E0
1.308468270E0	9.653421402E0	-1.529894829E0	1.572990537E0
1.309684384E0	9.667786598E0	-1.383848548E0	1.924938202E0
1.312525500E0	9.792284966E0	-1.323993564E0	2.130839586E0
1.314378538E0	1.005085850E1	-1.493981838E0	2.154781580E0
1.316556693E0	1.033337498E1	-1.819593310E0	1.989581585E0
1.317899615E0	1.042914295E1	-1.984793186E0	1.738190413E0
1.320561154E0	1.033576870E1	-1.865083098E0	1.460463047E0
1.322371538E0	1.036928749E1	-1.774103403E0	1.221042871E0
1.324573077E0	1.056800652E1	-1.917755604E0	1.019929886E0
1.325946345E0	1.076672459E1	-2.229001760E0	8.164227605E-1
1.328630154E0	1.102051067E1	-2.439691544E0	6.895300746E-1
1.330485999E0	1.130542088E1	-2.559401512E0	5.602431893E-1
1.332648461E0	1.152808094E1	-2.719813108E0	3.208230138E-1
1.333850615E0	1.171243477E1	-2.851494312E0	8.858546615E-2
1.336476269E0	1.184890461E1	-2.743755102E0	3.112462163E-2
1.338747923E0	1.179144382E1	-2.530671120E0	7.422025502E-2
1.340435269E0	1.156878281E1	-2.387019157E0	4.548983276E-2
1.341974192E0	1.144428444E1	-2.262520552E0	-1.508347094E-1
1.344821500E0	1.133175659E1	-2.193088770E0	-3.878606856E-1
1.346687615E0	1.107078838E1	-2.248155355E0	-4.812345505E-1
1.348867731E0	1.085531044E1	-2.291250944E0	-5.267243981E-1
1.350142461E0	1.075954247E1	-2.300827742E0	-6.488286853E-1
1.352924962E0	1.052730465E1	-2.403778553E0	-6.488286853E-1
1.354799807E0	1.022802925E1	-2.492363930E0	-5.865794420E-1
1.356956423E0	1.021605873E1	-2.365471363E0	-6.655880809E-1
1.358297730E0	1.044111347E1	-2.061407566E0	-8.379706144E-1
1.360951500E0	1.062307262E1	-1.826775908E0	-8.379706144E-1
1.362750884E0	1.069011021E1	-1.695094824E0	-6.584054828E-1
1.364948269E0	1.072362900E1	-1.561019540E0	-4.692635238E-1
1.366182653E0	1.068292809E1	-1.386242747E0	-3.639186621E-1
1.369005346E0	1.050336266E1	-1.192312479E0	-3.447650373E-1
1.370927538E0	1.015380955E1	-1.108515382E0	-3.112462163E-1
1.373051808E0	9.557653427E0	-1.213860273E0	-2.513911724E-1
1.374283615E0	8.916007042E0	-1.285686255E0	-2.011129409E-1
1.376858422E0	8.437167168E0	-1.242590666E0	-1.843535304E-1
1.379116268E0	8.027758598E0	-1.173158884E0	-1.939303428E-1
1.381148923E0	7.510610580E0	-1.029506683E0	-2.609679997E-1
1.382368115E0	7.307103634E0	-9.600749016E-1	-3.998316824E-1
1.385206231E0	7.134721279E0	-8.379706144E-1	-5.770025849E-1
1.387039884E0	7.010222435E0	-7.757213712E-1	-7.565677166E-1
1.389236885E0	6.931213856E0	-6.895300746E-1	-9.744400978E-1
1.390506384E0	6.794744492E0	-5.554547906E-1	-1.189918280E0
1.393294500E0	6.564900875E0	-4.070142806E-1	-1.326387763E0
1.395323500E0	6.366182327E0	-2.274491638E-1	-1.403002143E0
1.397340231E0	6.102819920E0	-3.591302410E-2	-1.429338455E0
1.398723692E0	5.662287235E0	9.337386489E-2	-1.403002143E0
1.401333500E0	5.171475887E0	1.005564705E-1	-1.312022567E0
1.403327500E0	4.738125324E0	0.000000000E0	-1.079784989E0
1.405329577E0	4.458003521E0	-9.337386489E-2	-7.805097699E-1
1.406554922E0	4.340687752E0	-1.532289088E-1	-4.644751251E-1
1.409386731E0	4.398148537E0	-2.849099934E-1	-1.915361285E-1
1.411415884E0	4.386177540E0	-4.860229492E-1	-1.819593310E-1
1.413417500E0	4.106055737E0	-6.344634295E-1	-3.184288144E-1
1.414643230E0	3.720589399E0	-5.171475410E-1	-3.830722570E-1
1.417225961E0	3.845088005E0	-1.316810995E-1	-2.178723514E-1
1.419504500E0	4.091690540E0	3.591302633E-1	-2.753331959E-1
1.421296692E0	2.394201756E0	1.470039845E0	-1.685518026E0
1.422744115E0	-2.171540976E0	3.739742994E0	-2.949656487E0
1.425565461E0	-5.238513470E0	5.315127850E0	-1.127668977E0
1.427539499E0	-5.298368454E0	5.552153587E0	1.728613615E0
1.429597577E0	-3.617638826E0	5.204994678E0	3.483563423E0
1.430802884E0	-1.426944256E0	4.690241337E0	3.780444384E0
1.433655846E0	9.337386489E-2	4.534617901E0	3.246537447E0
1.435519384E0	3.208230138E-1	4.915296078E0	2.410961151E0
1.437686961E0	-4.261679053E-1	5.547365189E0	1.513135433E0
1.439072768E0	-1.474828243E0	6.105214119E0	6.991068721E-1
1.441691423E0	-2.197877169E0	6.394912720E0	1.412578970E-1
1.443686346E0	-1.814804912E0	6.220136166E0	-5.506663769E-2
1.445703231E0	-2.992752194E-1	5.652710438E0	2.873042040E-2
1.446904730E0	1.570596337E0	5.073313236E0	1.675941199E-1
1.449760923E0	3.790021181E0	4.374206543E0	3.447650373E-1
1.451614153E0	6.610390663E0	3.256114244E0	5.482721925E-1
1.453792269E0	9.006986618E0	2.200271368E0	6.703764796E-1
1.455006538E0	1.034774017E1	1.532289028E0	7.182605267E-1
1.457650692E0	1.108754826E1	1.098938584E0	6.967126727E-1
1.459787922E0	1.165257931E1	7.302315235E-1	7.422025204E-1
1.461876076E0	1.219127464E1	4.022258818E-1	9.361328483E-1
1.463140076E0	1.271321106E1	8.858546615E-2	1.319205165E0
1.465948154E0	1.321838760E1	-2.705447972E-1	2.097320795E0
1.467841845E0	1.371398735E1	-7.110779285E-1	3.062183857E0
1.469995461E0	1.430535507E1	-1.398213744E0	3.833117008E0
1.471395884E0	1.475785923E1	-2.042253971E0	4.316745758E0
1.474053577E0	1.487996387E1	-2.398990154E0	4.484339714E0
1.475904038E0	1.454238129E1	-2.451662540E0	4.395754337E0
1.478085038E0	1.365652657E1	-2.217030764E0	4.242525578E0
1.479554384E0	1.220085144E1	-1.666364431E0	4.146757126E0
1.482078884E0	1.046026707E1	-9.002198577E-1	4.084507942E0
1.483888884E0	8.657433510E0	-5.027823523E-2	3.955221176E0
1.486075423E0	6.904877663E0	8.283938169E-1	3.761290789E0
1.487406691E0	4.845864296E0	1.857900500E0	3.392583847E0
1.490133884E0	1.556231141E0	3.495534420E0	2.425326347E0
1.492137307E0	1.027112484E0	4.027047157E0	1.754949808E0
1.494158961E0	2.059013367E0	4.074931145E0	1.503558636E0
1.495435884E0	3.813963413E0	3.988739967E0	1.661576033E0
1.497968807E0	5.760449409E0	3.914519787E0	1.879448295E0
1.500168999E0	7.685387611E0	3.854664803E0	2.015917778E0
1.501942807E0	9.500192642E0	3.782838583E0	2.161964178E0
1.503578461E0	1.082179165E1	3.790021181E0	2.305616140E0
1.506316269E0	1.131739140E1	3.976768970E0	2.185906172E0
1.508171153E0	1.091516590E1	4.333505154E0	1.575384736E0
1.510347961E0	9.859322548E0	4.661510944E0	5.913678408E-1
1.511616384E0	8.621520042E0	4.814739704E0	-5.291185975E-1
1.514405923E0	7.553706169E0	4.903325081E0	-1.525106430E0
1.516268768E0	6.758831501E0	5.135562420E0	-2.322375536E0
1.518451999E0	6.066906929E0	5.489904404E0	-2.913743496E0
1.519898538E0	5.523423195E0	5.779603004E0	-2.820369720E0
1.522446115E0	4.979939461E0	5.956773758E0	-2.104503393E0
1.524236384E0	4.299986362E0	6.169857979E0	-1.510741234E0
1.526442307E0	3.627215624E0	6.512228489E0	-1.426944256E0
1.527718691E0	3.035847664E0	6.943184853E0	-1.757344007E0
1.530499846E0	2.451662540E0	7.457938194E0	-2.145204782E0
1.532330038E0	1.742978811E0	8.075642586E0	-2.566584110E0
1.534531961E0	1.108515382E0	8.657433510E0	-2.827552319E0
1.535816115E0	5.602431893E-1	9.208099365E0	-2.971204281E0
1.538467961E0	-7.182605099E-3	9.794678688E0	-3.038241863E0
1.540585268E0	-5.674257874E-1	1.038604736E1	-3.131615877E0
1.542522038E0	-1.096544385E0	1.096783829E1	-3.193865061E0
1.543915999E0	-1.817199111E0	1.144907284E1	-2.983175278E0
1.546703461E0	-2.418143749E0	1.179623222E1	-2.600103140E0
1.548555730E0	-2.880224705E0	1.220324612E1	-2.231395960E0
1.550734653E0	-3.349488258E0	1.270602798E1	-1.850717902E0
1.551986115E0	-3.828328609E0	1.326627159E1	-1.479616642E0
1.554791961E0	-4.297592163E0	1.390312958E1	-1.110909581E0
1.556640115E0	-4.850652695E0	1.465011978E1	-7.062895298E-1
1.558822692E0	-5.525817394E0	1.549527359E1	-2.681505978E-1
1.560222115E0	-6.253654957E0	1.638591576E1	1.795651317E-1
1.562826461E0	-6.945579052E0	1.725501251E1	6.033388376E-1
1.564820461E0	-7.642292023E0	1.811453056E1	1.053448796E0
1.566836884E0	-8.324639320E0	1.900996208E1	1.510741234E0
1.568092576E0	-8.995016098E0	1.994130516E1	1.944091797E0
1.570885461E0	-9.694122314E0	2.086067963E1	2.370259762E0
1.572710961E0	-1.036449909E1	2.180160141E1	2.777273893E0
1.574916653E0	-1.099896240E1	2.275688744E1	3.086126089E0
1.576142538E0	-1.158075333E1	2.365231895E1	3.287238836E0
1.578773345E0	-1.202846909E1	2.447592354E1	3.514688015E0
1.580914614E0	-1.238999367E1	2.530431747E1	3.620033026E0
1.582689038E0	-1.279940224E1	2.619974899E1	3.663128614E0
1.584255499E0	-1.311304283E1	2.694434547E1	3.653551817E0
1.587074999E0	-1.308670616E1	2.736333084E1	3.557783842E0
1.589044653E0	-1.279700851E1	2.759317398E1	3.411737442E0
1.591121653E0	-1.201649857E1	2.763387680E1	3.172317266E0
1.592380614E0	-1.168609810E1	2.754050255E1	3.098097086E0
1.595179115E0	-1.060870743E1	2.701856613E1	2.913743496E0
1.597039038E0	-9.840168953E0	2.652536011E1	2.829946518E0
1.599209961E0	-9.009381294E0	2.588850212E1	2.813186884E0
1.600695691E0	-8.097189903E0	2.501222610E1	2.851494312E0
1.603227384E0	-7.103596210E0	2.391807556E1	2.937685490E0
1.605221615E0	-6.023811340E0	2.268506050E1	3.040636063E0
1.607223999E0	-4.836287498E0	2.142810440E1	3.122039080E0
1.608398922E0	-3.552995205E0	2.021663857E1	3.126827478E0
1.611281691E0	-2.248155355E0	1.907460403E1	3.090914488E0
1.613105076E0	-8.667010069E-1	1.801876259E1	3.047818661E0
1.615327114E0	5.219359994E-1	1.701798630E1	2.959233284E0
1.616509961E0	1.807622313E0	1.604833412E1	2.861071110E0
1.619114307E0	3.016694069E0	1.511698914E1	2.734178305E0
1.621290961E0	4.170699596E0	1.421198082E1	2.600103140E0
1.623354691E0	5.329493046E0	1.333091545E1	2.458845139E0
1.624636230E0	6.469132900E0	1.249055004E1	2.262520552E0
1.627483576E0	7.510610580E0	1.170285797E1	2.025494576E0
1.629306230E0	8.461109161E0	1.094629002E1	1.766920805E0
1.631514499E0	9.334992409E0	1.023521233E1	1.522712231E0
1.632701614E0	1.012029076E1	9.567230225E0	1.276109457E0
1.635572153E0	1.086009884E1	8.925583839E0	1.010353088E0
1.637420384E0	1.158075333E1	8.305485725E0	7.541735172E-1
1.639620307E0	1.228943729E1	7.745242596E0	5.434837937E-1
1.640932153E0	1.296460247E1	7.223306656E0	3.112462163E-1
1.643614807E0	1.356794071E1	6.718130112E0	3.112462163E-2
1.645403538E0	1.417127991E1	6.229712963E0	-2.130839527E-1
1.647588038E0	1.467645645E1	5.767632008E0	-3.998316824E-1
1.648800461E0	1.495418358E1	5.336675644E0	-5.578489900E-1
1.651668845E0	1.484644508E1	4.939238071E0	-5.937620401E-1
1.653511268E0	1.413057804E1	4.572925091E0	-3.112462163E-1
1.655699076E0	1.307712936E1	4.225766182E0	5.267243832E-2
1.656896038E0	1.202368069E1	3.914519787E0	1.963245422E-1
1.659501114E0	1.098938560E1	3.639186621E0	1.699883193E-1
1.661759268E0	9.866505623E0	3.404554844E0	-6.943184882E-2
1.663812037E0	8.700529099E0	3.342305660E0	-6.751648784E-1
1.665039653E0	7.661445618E0	3.409343243E0	-1.156399369E0
1.667869422E0	7.038952827E0	3.519476414E0	-1.273715258E0
1.669693076E0	6.751648903E0	3.629609823E0	-1.300051570E0
1.671901037E0	6.500257492E0	3.677493811E0	-1.465251446E0
1.673121768E0	6.241683960E0	3.770867586E0	-1.814804912E0
1.675958576E0	5.932831764E0	3.979163170E0	-2.099714994E0
1.677877153E0	5.552153587E0	4.316745758E0	-2.224213362E0
1.679990114E0	5.121197224E0	4.754884720E0	-2.322375536E0
1.681321037E0	4.774038315E0	5.221754074E0	-2.509123325E0
1.683994845E0	4.642356873E0	5.612008572E0	-2.765302896E0
1.685805499E0	4.673481941E0	5.861005783E0	-2.875436306E0
1.688006191E0	4.716577530E0	6.071695328E0	-2.837129116E0
1.689212076E0	4.826710701E0	6.270414352E0	-2.906560898E0
1.692053345E0	5.011064053E0	6.366182327E0	-2.817975283E0
1.693857076E0	5.214571476E0	6.447585106E0	-2.540247917E0
1.696095422E0	5.288791656E0	6.610390663E0	-2.281674147E0
1.697295037E0	5.216965675E0	6.804321289E0	-2.133233786E0
1.699912730E0	4.975151062E0	7.036558628E0	-1.987187386E0
1.702182576E0	4.879383087E0	7.153874874E0	-1.865083098E0
1.704193806E0	4.876988888E0	7.252037048E0	-1.709460020E0
1.705664576E0	4.862623692E0	7.331045628E0	-1.541865945E0
1.708250999E0	4.814739704E0	7.393294811E0	-1.355118155E0
1.710176691E0	4.723760128E0	7.443572998E0	-1.170764685E0
1.712297153E0	4.661510944E0	7.469909191E0	-9.696516991E-1
1.713555114E0	4.723760128E0	7.467514992E0	-7.517793179E-1
1.716354614E0	4.833893299E0	7.438784599E0	-5.674257874E-1
1.718154307E0	4.924872875E0	7.395689011E0	-4.141969085E-1
1.720380614E0	5.001487255E0	7.345410824E0	-2.585737705E-1
1.721790191E0	5.051765442E0	7.280767441E0	-8.140286058E-2
1.724380153E0	5.066130638E0	7.201758862E0	9.337386489E-2
1.726205076E0	5.063736439E0	7.115567684E0	2.561795712E-1
1.728364461E0	5.037400246E0	7.026981831E0	3.806780577E-1
1.729555230E0	4.912901878E0	6.912060261E0	4.979939461E-1
1.732409614E0	4.891354084E0	6.730101109E0	6.799532771E-1
1.734354614E0	5.228936672E0	6.512228489E0	7.757213712E-1
1.736468807E0	5.568912983E0	6.387730122E0	6.943184733E-1
1.737659114E0	5.791574001E0	6.275202751E0	6.607996821E-1
1.740280884E0	5.805939198E0	5.825092793E0	1.223437071E0
1.742467307E0	5.425261021E0	3.675099611E0	3.813963413E0
1.744241268E0	4.881777287E0	1.843535304E0	5.506663799E0
1.745809653E0	4.386177540E0	7.182605267E-1	6.502651691E0
1.748620614E0	4.189853191E0	3.591302410E-2	7.273584843E0
1.750454076E0	3.971980572E0	-8.140286058E-2	7.400477409E0
1.752666999E0	3.847482204E0	3.663128614E-1	6.670246124E0
1.754027191E0	4.311957359E0	1.209071875E0	5.188235283E0
1.756718153E0	5.372588634E0	2.164358377E0	3.500322819E0
1.758558499E0	6.660669327E0	2.980781078E0	2.066195965E0
1.760771460E0	8.030152321E0	3.579331636E0	1.063025594E0
1.762108730E0	9.229647636E0	4.043806553E0	3.687070608E-1
1.764767114E0	1.024000072E1	4.434061527E0	-3.184288144E-1
1.766578076E0	1.110670185E1	4.790797710E0	-1.098938584E0
1.768762499E0	1.226549530E1	5.092466831E0	-2.149993181E0
1.769959576E0	1.457111168E1	5.224148273E0	-3.876212597E0
1.772807768E0	1.728134727E1	5.255272865E0	-6.157886982E0
1.774712037E0	1.750640297E1	5.509057999E0	-7.412448406E0
1.776851306E0	1.509304714E1	6.160281181E0	-6.758831501E0
1.778063307E0	1.243308926E1	7.105990410E0	-5.149928093E0
1.780648499E0	1.068053341E1	8.068459511E0	-3.715801001E0
1.782867037E0	9.569623947E0	8.743624687E0	-2.650381327E0
1.784869268E0	8.683769226E0	8.813055992E0	-1.338358760E0
1.786180614E0	7.812280178E0	8.655038834E0	-6.703764945E-2
1.789021191E0	6.890512466E0	8.611943245E0	8.044517636E-1
1.790865960E0	6.076483727E0	8.686163902E0	1.295263171E0
1.793052229E0	5.518634796E0	8.805873871E0	1.556231141E0
1.794330114E0	5.243301868E0	8.973467827E0	1.594538331E0
1.797109460E0	5.169081688E0	9.323021889E0	1.266532660E0
1.798944037E0	5.264849663E0	9.500192642E0	1.051054597E0
1.801140152E0	5.240907669E0	9.569623947E0	9.983820915E-1
1.802487499E0	5.140350819E0	9.636661530E0	9.864110947E-1
1.805144345E0	5.135562420E0	9.725247383E0	9.528923035E-1
1.806965076E0	5.171475887E0	9.816226959E0	8.236053586E-1
1.809155075E0	5.317522049E0	9.919178009E0	6.392518282E-1
1.810356845E0	5.633556366E0	9.959878922E0	5.219359994E-1
1.813191614E0	6.114790916E0	9.967061996E0	4.261679053E-1
1.815016960E0	6.667851925E0	9.933543205E0	3.184288144E-1
1.817244306E0	7.120356083E0	9.873687744E0	1.771709323E-1
1.818941845E0	7.407660007E0	9.809044838E0	2.154781483E-2
1.821066114E0	7.541735172E0	9.722852707E0	-1.029506698E-1
1.823329921E0	7.539340973E0	9.610325813E0	-1.628057212E-1
1.825078999E0	7.489062786E0	9.493009567E0	-1.795651317E-1
1.826727730E0	7.433996201E0	9.411606789E0	-1.867477298E-1
1.829401652E0	7.340622425E0	9.363722801E0	-1.580173075E-1
1.831381114E0	7.201758862E0	9.332598686E0	-7.661445439E-2
1.833447768E0	7.050923824E0	9.323021889E0	-9.576806799E-3
1.834669922E0	6.897695065E0	9.337387085E0	4.548983276E-2
1.837505691E0	6.701370716E0	9.375694275E0	4.788403213E-2
1.839319999E0	6.528987885E0	9.469067574E0	-3.351882473E-2
1.841536767E0	6.390124321E0	9.576807022E0	-1.388636976E-1
1.842937845E0	6.337451935E0	9.720458984E0	-2.274491638E-1
1.845530729E0	6.399701118E0	9.909601212E0	-2.561795712E-1
1.847310576E0	6.464344501E0	1.009634876E1	-2.585737705E-1
1.849519922E0	6.540958881E0	1.025675964E1	-2.059013397E-1
1.850724499E0	6.603208065E0	1.034534550E1	-2.633621916E-2
1.853584575E0	6.603208065E0	1.036928749E1	2.394201756E-1
1.855456268E0	6.502651691E0	1.035492229E1	4.525041282E-1
1.857632152E0	6.358999729E0	1.028309631E1	6.799532771E-1
1.858818422E0	6.145915985E0	1.018972206E1	8.810662031E-1
1.861432960E0	5.877765179E0	1.012268448E1	9.959878922E-1
1.863657307E0	5.758055210E0	1.005804157E1	1.185129881E0
1.865627076E0	5.801150799E0	9.959878922E0	1.403002143E0
1.866912037E0	5.908889771E0	9.811438560E0	1.561019540E0
1.869787652E0	5.944802761E0	9.548076630E0	1.805228114E0
1.871740191E0	5.736507416E0	9.212887764E0	2.135627985E0
1.873818191E0	5.379771233E0	8.870517731E0	2.430114746E0
1.875171653E0	5.075707436E0	8.556877136E0	2.600103140E0
1.877876113E0	4.874594688E0	8.248024940E0	2.671929121E0
1.879702845E0	4.788403511E0	7.979874134E0	2.626439333E0
1.881919307E0	4.788403511E0	7.747636795E0	2.540247917E0
1.883251691E0	4.829104900E0	7.527369976E0	2.432508945E0
1.885914575E0	4.905719280E0	7.357381821E0	2.279279947E0
1.887768537E0	5.001487255E0	7.256825447E0	2.099714994E0
1.889887576E0	5.157110691E0	7.218518257E0	1.831564307E0
1.891093730E0	5.410895824E0	7.266402245E0	1.426944256E0
1.893951691E0	5.705382824E0	7.414842606E0	9.744400978E-1
1.895775345E0	5.911283970E0	7.587224960E0	5.554547906E-1
1.897993691E0	5.779603004E0	7.733271599E0	2.442085743E-1
1.899278345E0	5.633556366E0	7.838616371E0	7.182605099E-3
1.901806345E0	5.726930618E0	7.857769966E0	-2.274491638E-1
1.904034691E0	5.691017628E0	7.841010571E0	-3.663128614E-1
1.905927730E0	5.530605793E0	7.762001991E0	-2.944868207E-1
1.907348460E0	5.267243862E0	7.611167431E0	-3.232172430E-1
1.910180344E0	4.905719280E0	7.414842606E0	-5.219359994E-1
1.912003345E0	4.632780075E0	7.204153061E0	-7.015010715E-1
1.914210844E0	4.642356873E0	7.026981831E0	-6.464344859E-1
1.915401922E0	4.912901878E0	6.847416878E0	-3.758896589E-1
1.918267613E0	5.339069843E0	6.663063526E0	-1.675941236E-2
1.920102114E0	5.863399982E0	6.593631268E0	2.729389966E-1
1.922297959E0	6.387730122E0	6.643909931E0	6.392518282E-1
1.923607460E0	6.777985096E0	6.931213856E0	8.331822157E-1
1.926300729E0	7.218518257E0	7.240066051E0	1.065419793E0
1.928087614E0	7.558494568E0	7.264008045E0	1.312022567E0
1.930287576E0	7.582436562E0	7.113173485E0	1.496376038E0
1.931486230E0	7.340622425E0	6.991068840E0	1.589749932E0
1.934352960E0	6.976703644E0	7.015010834E0	1.587355733E0
1.936170730E0	6.663063526E0	7.115567684E0	1.546654344E0
1.938363153E0	6.526593685E0	7.204153061E0	1.520318031E0
1.939586114E0	6.634333134E0	7.240066051E0	1.489193439E0
1.942180191E0	6.572083473E0	7.295132637E0	1.580173135E0
1.944378960E0	6.222530365E0	7.273584843E0	1.776497602E0
1.946296922E0	6.105214119E0	7.204153061E0	1.711854219E0
1.947735730E0	6.169857979E0	7.139509678E0	1.197100878E0
1.950554344E0	5.956773758E0	7.091625214E0	5.315127969E-1
1.952446383E0	5.592854977E0	7.096413612E0	-2.130839527E-1
1.954599959E0	5.492298603E0	7.110779285E0	-8.882488012E-1
1.955784153E0	5.372588634E0	7.041347027E0	-1.417367458E0
1.958657036E0	5.279214859E0	6.888118267E0	-1.769315004E0
1.960494422E0	5.432443619E0	6.706159115E0	-2.070984364E0
1.962687844E0	5.758055210E0	6.581660271E0	-2.140416384E0
1.963996691E0	6.102819920E0	6.533776283E0	-1.948880196E0
1.966681152E0	6.449979305E0	6.485892296E0	-1.635239720E0
1.968572114E0	6.830657482E0	6.370970726E0	-1.364694953E0
1.970678113E0	7.235277653E0	6.198588371E0	-1.283292055E0
1.971889499E0	7.623138428E0	6.007051945E0	-1.328781962E0
1.974735190E0	7.826645374E0	5.865794182E0	-1.309628367E0
1.976585883E0	7.891288757E0	5.734113216E0	-1.244984865E0
1.978780536E0	7.831433773E0	5.635950565E0	-1.074996591E0
1.980098768E0	7.740454197E0	5.573701382E0	-8.212111592E-1
1.982624768E0	7.682993412E0	5.595249176E0	-3.974374831E-1
1.984790576E0	7.580042362E0	5.686229229E0	1.340752989E-1
1.986647768E0	7.587224960E0	5.681440830E0	6.033388376E-1
1.988091691E0	7.608773232E0	5.667075634E0	1.034295082E0
1.990936113E0	7.627926826E0	5.736507416E0	1.338358760E0
1.992787345E0	7.486668587E0	5.978321552E0	1.623268723E0
1.994967152E0	7.285555840E0	6.239289761E0	1.843535304E0
1.996216037E0	7.252037048E0	6.272808552E0	2.001552582E0
1.999024153E0	7.261613846E0	6.184223175E0	2.154781580E0
2.000869153E0	7.244854450E0	6.083666325E0	2.214636564E0
2.003070921E0	7.223306656E0	5.990292549E0	2.176329374E0
2.004424883E0	7.228095055E0	5.853823185E0	2.054224968E0
2.007066382E0	7.252037048E0	5.686229229E0	1.881842494E0
2.008856268E0	7.280767441E0	5.523423195E0	1.695094824E0
2.011061921E0	7.287950039E0	5.384559631E0	1.489193439E0
2.012282268E0	7.266402245E0	5.255272865E0	1.252167463E0
2.015119575E0	7.244854450E0	5.087678432E0	9.457096457E-1
2.016938460E0	7.302315235E0	4.951209068E0	7.685387731E-1
2.019150728E0	7.393294811E0	4.812345505E0	5.985504389E-1
2.020368345E0	7.505822182E0	4.690241337E0	4.692635238E-1
2.022966922E0	7.599195957E0	4.568136692E0	3.519476354E-1
2.025194922E0	7.534552574E0	4.426878929E0	1.675941199E-1
2.027144230E0	7.364564419E0	4.249708176E0	-5.027823523E-2
2.028575383E0	7.400477409E0	4.132391930E0	-1.125274822E-1
2.031321421E0	7.560888767E0	4.110844135E0	-5.027823523E-2
2.033214230E0	7.750030994E0	4.129997730E0	1.436521020E-2
2.035351998E0	7.912836552E0	4.168305397E0	9.097966552E-2
2.036548730E0	8.056488991E0	4.213795185E0	2.609679997E-1
2.039408997E0	8.171410561E0	4.247313976E0	4.596867263E-1
2.041239114E0	8.195352554E0	4.283226967E0	6.536170840E-1
2.043424845E0	8.171410561E0	4.345476151E0	8.906430602E-1
2.044775422E0	8.075642586E0	4.405331135E0	1.091755986E0
2.047443574E0	7.833827972E0	4.513070107E0	1.237802267E0
2.049257114E0	7.362170219E0	4.685452938E0	1.326387763E0
2.051455305E0	6.806715488E0	4.920084476E0	1.414973259E0
2.052645268E0	6.574477673E0	5.262455463E0	1.594538331E0
2.055512497E0	6.495469093E0	5.679046631E0	1.711854219E0
2.057332230E0	6.315904140E0	6.066906929E0	1.642422318E0
2.059543690E0	6.004657745E0	6.416460514E0	1.520318031E0
2.060758230E0	5.695806026E0	6.766014099E0	1.438915253E0
2.063439191E0	5.355829239E0	7.048529625E0	1.331176162E0
2.065530345E0	5.181052685E0	7.331045628E0	1.292868972E0
2.067348268E0	5.116408825E0	7.546523571E0	1.221042871E0
2.068857768E0	4.874594688E0	7.668628216E0	1.101332784E0
2.071701767E0	4.711789131E0	7.790732384E0	1.029506683E0
2.073544614E0	4.728548527E0	8.025363922E0	1.063025594E0
2.075748267E0	4.795586109E0	8.305485725E0	1.146822572E0
2.076965806E0	4.915296078E0	8.544905663E0	1.333570361E0
2.079805420E0	5.061342239E0	8.717288017E0	1.544260144E0
2.081622883E0	5.044582844E0	8.805873871E0	1.726219416E0
2.083836267E0	4.979939461E0	8.844181061E0	1.853112102E0
2.085165960E0	4.991910458E0	8.817844391E0	1.944091797E0
2.087830920E0	5.018246651E0	8.760383606E0	1.965639591E0
2.089601730E0	5.025429249E0	8.662221909E0	1.886630893E0
2.091826190E0	5.102043629E0	8.571242332E0	1.733402014E0
2.093061768E0	5.279214859E0	8.638279915E0	1.594538331E0
2.095882113E0	5.506663799E0	8.860940933E0	1.484405041E0
2.097727537E0	5.753266811E0	9.109937668E0	1.367089152E0
2.099926805E0	5.853823185E0	9.260771751E0	1.170764685E0
2.101165614E0	5.781997204E0	9.327810287E0	9.361328483E-1
2.103746999E0	5.741295815E0	9.351752281E0	7.829039693E-1
2.105921806E0	5.671864033E0	9.334992409E0	6.607996821E-1
2.107880037E0	5.640739441E0	9.311050415E0	5.578489900E-1
2.109332691E0	5.655104637E0	9.315838814E0	5.315127969E-1
2.112079113E0	5.647922039E0	9.375694275E0	5.530605912E-1
2.114015883E0	5.604825974E0	9.394847870E0	4.908113480E-1
2.116109382E0	5.647922039E0	9.457097054E0	3.782838583E-1
2.117338999E0	5.671864033E0	9.560047150E0	3.016694188E-1
2.120166420E0	5.686229229E0	9.720458984E0	2.466027737E-1
2.122078806E0	5.784391403E0	1.000058079E1	3.208230138E-1
2.124211613E0	5.832275391E0	1.025675964E1	4.836287498E-1
2.125595845E0	5.913678169E0	1.039083576E1	6.057330370E-1
2.128205151E0	6.047753334E0	1.038604736E1	6.823474765E-1
2.130139114E0	6.179434776E0	1.034295177E1	7.326257229E-1
2.132201959E0	6.299144745E0	1.036689377E1	7.469909191E-1
2.133417306E0	6.406883717E0	1.044111347E1	7.613561153E-1
2.136258113E0	6.507440090E0	1.048181534E1	8.236053586E-1
2.138168114E0	6.646304131E0	1.045547867E1	9.696516991E-1
2.140288612E0	6.840234280E0	1.033576870E1	1.175553083E0
2.141518268E0	7.079654217E0	1.025436592E1	1.391031146E0
2.144158653E0	7.290344238E0	1.021605873E1	1.587355733E0
2.146309229E0	7.433996201E0	1.023042393E1	1.735796213E0
2.148099576E0	7.568071365E0	1.027351952E1	1.764526606E0
2.149639345E0	7.735665798E0	1.027591324E1	1.721431017E0
2.152456497E0	7.905653954E0	1.024957752E1	1.644816518E0
2.154355806E0	7.903259754E0	1.009634876E1	1.537077546E0
2.156486997E0	7.702147007E0	9.765948296E0	1.405396342E0
2.157755691E0	7.419631004E0	9.368511200E0	1.307234168E0
2.160543074E0	7.151480675E0	9.064447403E0	1.199495077E0
2.162382614E0	6.964732647E0	8.916007042E0	1.101332784E0
2.164572382E0	6.868964672E0	8.932766914E0	1.005564690E0
2.165955499E0	6.813898087E0	9.050082207E0	9.385270476E-1
2.168575074E0	6.804321289E0	9.200917244E0	9.097966552E-1
2.170387537E0	6.801927090E0	9.363722801E0	9.074024558E-1
2.172584574E0	6.742072105E0	9.502586365E0	9.265560508E-1
2.173850614E0	6.603208065E0	9.605537415E0	9.720458984E-1
2.176641035E0	6.392518520E0	9.679757118E0	1.019929886E0
2.178468922E0	6.131550789E0	9.725247383E0	1.084573388E0
2.180671766E0	5.865794182E0	9.756371498E0	1.151610970E0
2.181907422E0	5.619191170E0	9.780313492E0	1.223437071E0
2.184518999E0	5.372588634E0	9.794678688E0	1.316810966E0
2.186729268E0	5.111620426E0	9.787496567E0	1.410184860E0
2.188650691E0	4.893748283E0	9.744400978E0	1.517923832E0
2.190093229E0	4.809951305E0	9.639056206E0	1.635239720E0
2.192825805E0	4.845864296E0	9.548076630E0	1.774103403E0
2.194721768E0	4.836287498E0	9.428366661E0	1.898601890E0
2.196871651E0	4.776432514E0	9.270348549E0	1.999158382E0
2.198313499E0	4.707000732E0	9.126696587E0	2.054224968E0
2.200928689E0	4.675876141E0	8.990227699E0	2.080561161E0
2.202850691E0	4.707000732E0	8.820239067E0	2.159569979E0
2.204958958E0	4.711789131E0	8.702922821E0	2.185906172E0
2.206382037E0	4.742913723E0	8.614337921E0	2.185906172E0
2.208951689E0	4.824316502E0	8.511386871E0	2.212242365E0
2.210834960E0	4.881777287E0	8.377311707E0	2.231395960E0
2.212946535E0	4.920084476E0	8.169015884E0	2.202665567E0
2.214187729E0	5.003881454E0	7.838616371E0	2.109291792E0
2.217003420E0	5.123591423E0	7.457938194E0	1.975216389E0
2.218903537E0	5.288791656E0	7.060500622E0	1.711854219E0
2.221049035E0	5.547365189E0	6.591237068E0	1.388636947E0
2.222349460E0	5.851428986E0	6.059724331E0	1.118092179E0
2.224881229E0	6.129156113E0	5.430049419E0	9.457096457E-1
2.227102845E0	6.035782337E0	5.310339451E0	1.034295082E0
2.228949499E0	5.762843609E0	5.389348030E0	1.177947283E0
2.230518229E0	5.528211594E0	5.497087002E0	1.213860273E0
2.233203035E0	5.509057999E0	5.511452198E0	1.146822572E0
2.235162152E0	5.609614372E0	5.463568211E0	1.110909581E0
2.237232881E0	5.686229229E0	5.458779812E0	1.197100878E0
2.238537845E0	5.691017628E0	5.559336185E0	1.400607944E0
2.241290151E0	5.667075634E0	5.748478413E0	1.690306425E0
2.243155037E0	5.643133640E0	5.928043365E0	1.934514999E0
2.245336727E0	5.695806026E0	5.973533154E0	2.205059767E0
2.247118652E0	6.030993938E0	5.781997204E0	2.726995707E0
2.249330766E0	6.540958881E0	5.537788391E0	2.863465309E0
2.251139576E0	7.077260017E0	5.159504890E0	2.755726099E0
2.253326727E0	7.711723804E0	4.709394932E0	2.449268341E0
2.254584652E0	8.477868080E0	4.350264549E0	2.104503393E0
2.257383843E0	9.069235802E0	4.216189384E0	1.853112102E0
2.259410076E0	9.327810287E0	4.338293552E0	1.690306425E0
2.261416112E0	9.416395187E0	4.649539471E0	1.685518026E0
2.262635191E0	9.009381294E0	5.147533417E0	1.537077546E0
2.265256537E0	8.365341187E0	5.662287235E0	1.211466074E0
2.267503574E0	7.996633530E0	6.042964935E0	9.289502501E-1
2.269388268E0	7.654263020E0	6.373364925E0	6.153098345E-1
2.270782152E0	7.383718014E0	6.710947514E0	3.639186621E-1
2.273588650E0	7.340622425E0	6.964732647E0	3.016694188E-1
2.275618381E0	7.426813602E0	7.086836815E0	2.944868207E-1
2.277620458E0	7.611167431E0	7.072471619E0	2.585737705E-1
2.278840345E0	7.838616371E0	6.986280441E0	1.723825186E-1
2.281677612E0	8.113949776E0	6.914454460E0	1.053448766E-1
2.283491229E0	8.398859978E0	6.876147270E0	1.412578970E-1
2.285709150E0	8.633491516E0	6.873753071E0	2.202665508E-1
2.287052229E0	8.825027466E0	6.876147270E0	3.064578176E-1
2.289712343E0	8.973467827E0	6.845022678E0	3.303998411E-1
2.291503537E0	9.004592896E0	6.823474884E0	3.208230138E-1
2.293701268E0	8.973467827E0	6.823474884E0	3.519476354E-1
2.294898268E0	8.927978516E0	6.821080685E0	3.830722570E-1
2.297782650E0	8.884882927E0	6.766014099E0	4.285621047E-1
2.299708037E0	8.808267593E0	6.739677906E0	3.998316824E-1
2.301829304E0	8.738836288E0	6.840234280E0	3.232172430E-1
2.303031037E0	8.736441612E0	7.029376030E0	3.040636182E-1
2.305634114E0	8.614337921E0	7.199364662E0	3.040636182E-1
2.307830268E0	8.312667847E0	7.261613846E0	2.944868207E-1
2.309583383E0	7.984662533E0	7.278373241E0	2.082955539E-1
2.311119845E0	7.821856976E0	7.321468830E0	1.244984865E-1
2.313988573E0	7.776367188E0	7.374141216E0	8.379705995E-2
2.315854422E0	7.718906403E0	7.417236805E0	8.379705995E-2
2.318033650E0	7.582436562E0	7.455543995E0	1.077390760E-1
2.319252922E0	7.584830761E0	7.445967197E0	1.891419291E-1
2.322090881E0	7.826645374E0	7.328651428E0	3.088520169E-1
2.323916922E0	8.008605003E0	7.232883453E0	3.399766386E-1
2.326118999E0	8.197746277E0	7.098807812E0	3.567360640E-1
2.327471806E0	8.310274124E0	7.007828236E0	3.567360640E-1
2.330117189E0	8.298302650E0	6.993463039E0	3.711012602E-1
2.331947499E0	8.264783859E0	7.034164429E0	3.830722570E-1
2.334114381E0	8.094796181E0	7.129932880E0	3.687070608E-1
2.335360152E0	7.979874134E0	7.184999466E0	3.998316824E-1
2.338171689E0	8.054094315E0	7.141903877E0	4.620809257E-1
2.340019460E0	7.994239330E0	7.165845871E0	5.434837937E-1
2.342218227E0	7.874529362E0	7.211335659E0	6.177040339E-1
2.343451037E0	7.644686222E0	7.264008045E0	6.847416759E-1
2.346047268E0	7.405265808E0	7.381323814E0	7.302315235E-1
2.348286845E0	7.376535416E0	7.431602001E0	7.852981687E-1
2.350188806E0	7.326257229E0	7.400477409E0	8.164227605E-1
2.351612460E0	7.259219646E0	7.331045628E0	8.355764151E-1
2.354373381E0	7.017405033E0	7.307103634E0	8.667010069E-1
2.356311422E0	6.806715488E0	7.280767441E0	8.858546019E-1
2.358404958E0	6.588842869E0	7.213729858E0	8.738836050E-1
2.359699152E0	6.358999729E0	7.125144482E0	8.044517636E-1
2.362463189E0	6.366182327E0	6.976703644E0	7.493851185E-1
2.364393075E0	6.284779549E0	6.845022678E0	7.350199223E-1
2.366508573E0	6.217741966E0	6.706159115E0	7.757213712E-1
2.367855460E0	6.074089527E0	6.607996464E0	8.858546019E-1
2.370503881E0	5.750872612E0	6.567295074E0	1.024718285E0
2.372321306E0	5.525817394E0	6.533776283E0	1.194706678E0
2.374502727E0	5.410895824E0	6.452373505E0	1.343147159E0
2.375814922E0	5.116408825E0	6.363788128E0	1.448492050E0
2.378552806E0	4.788403511E0	6.318298340E0	1.558625340E0
2.380411422E0	4.604049683E0	6.251260757E0	1.683123827E0
2.382592612E0	4.556165695E0	6.121973515E0	1.762132406E0
2.383805922E0	4.534617901E0	6.023811340E0	1.747767210E0
2.386438460E0	4.510675907E0	5.997475147E0	1.678335428E0
2.388630075E0	4.529829502E0	6.002263546E0	1.654393315E0
2.390426268E0	4.592078686E0	6.016628742E0	1.668758631E0
2.391967152E0	4.759673119E0	6.042964935E0	1.683123827E0
2.394763727E0	4.977545261E0	6.076483727E0	1.687912226E0
2.396793112E0	5.169081688E0	6.117185116E0	1.675941229E0
2.398794804E0	5.324704647E0	6.138733387E0	1.685518026E0
2.400117999E0	5.444414616E0	6.138733387E0	1.728613615E0
2.402852304E0	5.604825974E0	6.141127586E0	1.774103403E0
2.404815614E0	5.817910194E0	6.136339188E0	1.826775908E0
2.406883227E0	5.999869347E0	6.141127586E0	1.936909199E0
2.408239037E0	6.148310184E0	6.153098583E0	2.068590164E0
2.410888419E0	6.263231754E0	6.121973515E0	2.200271368E0
2.412696422E0	6.433219910E0	6.069301128E0	2.272097349E0
2.414900188E0	6.615179062E0	5.992686749E0	2.183511972E0
2.416114768E0	6.730101109E0	5.822698593E0	1.910573006E0
2.418957650E0	6.890512466E0	5.609614372E0	1.721431017E0
2.420803152E0	7.007828236E0	5.401319027E0	1.707065821E0
2.422988111E0	7.108384609E0	5.224148273E0	1.735796213E0
2.424215614E0	7.333439827E0	5.085284233E0	1.735796213E0
2.426788691E0	7.771578789E0	4.912901878E0	1.731007814E0
2.428958922E0	8.070854187E0	4.812345505E0	1.728613615E0
2.430985114E0	8.374917984E0	4.754884720E0	1.666364431E0
2.432310152E0	8.750806808E0	4.754884720E0	1.491587639E0
2.435143534E0	9.145850182E0	4.769249916E0	1.247379065E0
2.437006614E0	9.557653427E0	4.817133904E0	1.005564690E0
2.439190073E0	9.919178009E0	4.891354084E0	7.781155705E-1
2.440563845E0	1.016338634E1	4.994304657E0	5.793967843E-1
2.443246727E0	1.032858658E1	5.116408825E0	3.591302633E-1
2.445087306E0	1.041956615E1	5.286397457E0	1.316810995E-1
2.447277150E0	1.036689377E1	5.477933407E0	-4.788403213E-2
2.448692575E0	1.019929886E1	5.695806026E0	-1.388636976E-1
2.451271150E0	9.962273598E0	5.930437565E0	-1.364694983E-1
2.453264996E0	9.670180321E0	6.177040577E0	-9.097966552E-2
2.455267073E0	9.232041359E0	6.411672115E0	-4.788403399E-3
2.456470768E0	8.736441612E0	6.634333134E0	6.464344263E-2
2.459323804E0	8.276755333E0	6.818686485E0	8.140286058E-2
2.461158883E0	7.967903137E0	6.979097843E0	5.027823523E-2
2.463369727E0	7.730877399E0	7.089231014E0	-2.154781483E-2
2.464590422E0	7.412448406E0	7.084442616E0	-8.140286058E-2
2.467393729E0	7.170634270E0	7.026981831E0	-7.900865376E-2
2.469427691E0	7.000645638E0	6.938396454E0	-1.005564705E-1
2.471141845E0	6.888118267E0	6.878541470E0	-2.250549644E-1
2.472710768E0	6.732495308E0	6.854599476E0	-4.453215301E-1
2.475525034E0	6.552929878E0	6.806715488E0	-6.272808313E-1
2.477402345E0	6.433219910E0	6.718130112E0	-7.015010715E-1
2.479556534E0	6.471527100E0	6.643909931E0	-7.541735172E-1
2.480822614E0	6.591237068E0	6.610390663E0	-7.948749661E-1
2.483614227E0	6.687005520E0	6.584054470E0	-8.164227605E-1
2.485579652E0	6.754043102E0	6.564900875E0	-8.044517636E-1
2.487659534E0	6.797138691E0	6.536170483E0	-7.182605267E-1
2.489013845E0	6.873753071E0	6.531382084E0	-6.655880809E-1
2.491654227E0	6.933608055E0	6.572083473E0	-6.847416759E-1
2.493480922E0	6.938396454E0	6.619967937E0	-7.230489254E-1
2.495650765E0	6.907271862E0	6.651092529E0	-7.326257229E-1
2.496967960E0	6.878541470E0	6.718130112E0	-7.469909191E-1
2.499707726E0	6.849811077E0	6.818686485E0	-7.493851185E-1
2.501531652E0	6.806715488E0	6.902483463E0	-6.607996821E-1
2.503739265E0	6.739677906E0	6.964732647E0	-5.554547906E-1
2.505079306E0	6.596025467E0	7.029376030E0	-4.501099288E-1
2.507565383E0	6.414066315E0	7.079654217E0	-3.064578176E-1
2.509801806E0	6.227318764E0	7.110779285E0	-1.268926859E-1
2.511619460E0	6.076483727E0	7.120356083E0	3.112462163E-2
2.513068922E0	6.038176537E0	7.125144482E0	1.005564705E-1
2.515908919E0	6.078877926E0	7.120356083E0	1.053448766E-1
2.517762460E0	6.150704384E0	7.120356083E0	5.027823523E-2
2.519938803E0	6.241683960E0	7.115567684E0	-3.112462163E-2
2.521191691E0	6.339846134E0	7.096413612E0	-1.460463107E-1
2.523995380E0	6.449979305E0	7.041347027E0	-3.423708379E-1
2.525831191E0	6.636727333E0	6.921637058E0	-6.895300746E-1
2.528025803E0	6.943184853E0	6.718130112E0	-1.165976286E0
2.529376883E0	7.295132637E0	6.485892296E0	-1.714248419E0
2.532029842E0	7.501033783E0	6.332663536E0	-2.104503393E0
2.533965152E0	7.536946774E0	6.351817131E0	-1.982398987E0
2.536040611E0	7.623138428E0	6.502651691E0	-9.720458984E-1
2.537363191E0	7.541735172E0	6.634333134E0	-2.178723514E-1
2.540097111E0	7.448361397E0	6.746860504E0	3.639186621E-1
2.541927460E0	7.407660007E0	6.852205276E0	8.236053586E-1
2.544127880E0	7.354987621E0	6.964732647E0	1.225831270E0
2.545345845E0	7.223306656E0	7.058106422E0	1.570596337E0
2.547951575E0	6.988674641E0	7.146692276E0	1.833958507E0
2.550122883E0	6.725312710E0	7.235277653E0	2.073378563E0
2.551893268E0	6.464344501E0	7.314286232E0	2.375048161E0
2.553428691E0	6.239289761E0	7.407660007E0	2.650381327E0
2.556283957E0	6.129156113E0	7.493851185E0	2.844311714E0
2.558128575E0	6.107608318E0	7.565677166E0	2.923320293E0
2.560308614E0	6.066906929E0	7.651868820E0	2.935291290E0
2.561512652E0	5.956773758E0	7.757213593E0	2.899378300E0
2.564371268E0	5.805939198E0	7.869740963E0	2.815581083E0
2.566181998E0	5.681440830E0	7.967903137E0	2.719813108E0
2.568398229E0	5.576095581E0	8.039729118E0	2.683900118E0
2.569720729E0	5.513846397E0	8.063671112E0	2.693476915E0
2.572411495E0	5.482721806E0	8.066065788E0	2.710236311E0
2.574212614E0	5.465962410E0	8.058882713E0	2.691082716E0
2.576408188E0	5.470750809E0	8.032546997E0	2.652775526E0
2.577675191E0	5.516240597E0	7.977479935E0	2.614468336E0
2.580465342E0	5.604825974E0	7.898471355E0	2.597708941E0
2.582315229E0	5.722142220E0	7.819462776E0	2.580949545E0
2.584510880E0	5.846640587E0	7.752425194E0	2.513911724E0
2.585734075E0	5.961562157E0	7.668628216E0	2.367865562E0
2.588424421E0	6.002263546E0	7.584830761E0	2.205059767E0
2.590509998E0	6.038176537E0	7.515398979E0	2.102109194E0
2.592400075E0	6.172252178E0	7.402871609E0	2.130839586E0
2.593851229E0	6.373364925E0	7.230489254E0	2.272097349E0
2.596664380E0	6.560112476E0	7.050923824E0	2.322375536E0
2.598516883E0	6.658275127E0	6.902483463E0	2.236184359E0
2.600694803E0	6.624756336E0	6.756437302E0	2.061407566E0
2.601880229E0	6.485892296E0	6.658275127E0	1.793257117E0
2.604751188E0	6.306327343E0	6.646304131E0	1.470039845E0
2.606680229E0	6.093243122E0	6.794744492E0	1.185129881E0
2.608796265E0	5.889736176E0	7.046135426E0	1.000776291E0
2.610133268E0	5.753266811E0	7.309497833E0	9.121908545E-1
2.612790380E0	5.731719017E0	7.556100368E0	8.714894056E-1
2.614595652E0	5.832275391E0	7.675810814E0	8.331822157E-1
2.616785918E0	5.750872612E0	7.838616371E0	8.331822157E-1
2.617990614E0	5.463568211E0	8.123526573E0	8.259995580E-1
2.620842688E0	5.193023682E0	8.401253700E0	8.283938169E-1
2.622668652E0	5.384559631E0	8.367734909E0	8.331822157E-1
2.624873418E0	6.131550789E0	7.864952564E0	7.948749661E-1
2.626083460E0	6.710947514E0	7.393294811E0	8.212111592E-1
2.628687306E0	6.957550049E0	7.127538681E0	9.241618514E-1
2.630878383E0	7.151480675E0	7.022193432E0	1.012747288E0
2.632672652E0	7.388506413E0	7.005434036E0	1.055842996E0
2.634199191E0	7.635109425E0	7.012616634E0	1.048660398E0
2.637042918E0	8.001421928E0	7.041347027E0	9.768342972E-1
2.638925883E0	8.190564156E0	7.079654217E0	9.361328483E-1
2.641073803E0	8.279149055E0	7.137115479E0	9.050082564E-1
2.642288460E0	8.331821442E0	7.194576263E0	8.571242094E-1
2.645131111E0	8.518569946E0	7.240066051E0	7.781155705E-1
2.647020652E0	8.714894295E0	7.268796444E0	6.775590777E-1
2.649161918E0	8.743624687E0	7.302315235E0	6.224924326E-1
2.650514960E0	8.535328865E0	7.314286232E0	5.889736414E-1
2.653167149E0	8.240841866E0	7.323863029E0	5.386953950E-1
2.655144421E0	8.034940720E0	7.345410824E0	4.884171486E-1
2.657178649E0	7.965508938E0	7.386112213E0	4.118026793E-1
2.658391344E0	7.809885979E0	7.402871609E0	2.777273953E-1
2.661235264E0	7.560888767E0	7.364564419E0	8.140286058E-2
2.663085268E0	7.345410824E0	7.278373241E0	-8.140286058E-2
2.665266034E0	7.247248650E0	7.175422668E0	-1.628057212E-1
2.666470729E0	7.314286232E0	7.105990410E0	-1.412578970E-1
2.669089460E0	7.453149796E0	7.074865818E0	-4.788403399E-3
2.671350880E0	7.560888767E0	7.062894821E0	1.915361285E-1
2.673137037E0	7.570465565E0	7.060500622E0	3.830722570E-1
2.674591344E0	7.489062786E0	7.053318024E0	5.051765442E-1
2.677418880E0	7.417236805E0	7.034164429E0	5.602431893E-1
2.679394768E0	7.400477409E0	7.031770229E0	6.081272364E-1
2.681465149E0	7.412448406E0	7.022193432E0	6.584054828E-1
2.682697883E0	7.429207802E0	6.983886242E0	7.038952708E-1
2.685521880E0	7.469909191E0	6.991068840E0	6.703764796E-1
2.687369421E0	7.527369976E0	7.086836815E0	6.320692301E-1
2.689552418E0	7.505822182E0	7.242460251E0	6.607996821E-1
2.690985229E0	7.335834026E0	7.417236805E0	7.182605267E-1
2.693546380E0	7.129932880E0	7.594407558E0	7.805097699E-1
2.695361460E0	6.936002254E0	7.733271599E0	7.781155705E-1
2.697541649E0	6.763619900E0	7.821856976E0	7.062895298E-1
2.698778614E0	6.562506676E0	7.860164165E0	6.033388376E-1
2.701598418E0	6.378153324E0	7.848193169E0	5.123591423E-1
2.703520498E0	6.294356346E0	7.783549786E0	4.572925270E-1
2.705624341E0	6.186617374E0	7.673416615E0	4.189853072E-1
2.706860344E0	6.052541733E0	7.560888767E0	4.333505034E-1
2.709446114E0	6.014234543E0	7.448361397E0	5.051765442E-1
2.711658383E0	6.047753334E0	7.319074631E0	5.865794420E-1
2.713445806E0	6.141127586E0	7.189787865E0	7.038952708E-1
2.714955344E0	6.294356346E0	7.096413612E0	8.355764151E-1
2.717778533E0	6.438008308E0	7.000645638E0	9.409212470E-1
2.719658883E0	6.557718277E0	6.900089264E0	9.959878922E-1
2.721810610E0	6.703764915E0	6.823474884E0	9.816226959E-1
2.723075229E0	6.816292286E0	6.794744492E0	9.050082564E-1
2.725868303E0	6.868964672E0	6.775590897E0	7.805097699E-1
2.727738421E0	6.876147270E0	6.744466305E0	6.320692301E-1
2.729914764E0	6.888118267E0	6.710947514E0	4.908113480E-1
2.731438575E0	6.957550049E0	6.667851925E0	3.878606856E-1
2.733909803E0	7.077260017E0	6.607996464E0	3.112462163E-1
2.735720768E0	7.134721279E0	6.526593685E0	1.747767180E-1
2.737905841E0	6.912060261E0	6.330269337E0	-2.753331959E-1
2.739115768E0	6.660669327E0	6.081272125E0	-6.679822803E-1
2.741963264E0	6.603208065E0	5.949591160E0	-6.823474765E-1
2.743805729E0	6.744466305E0	5.901707172E0	-5.434837937E-1
2.745994072E0	6.943184853E0	5.805939198E0	-5.722141862E-1
2.747285960E0	7.445967197E0	5.540182590E0	-9.481038451E-1
2.749814768E0	7.242460251E0	5.341464043E0	-1.242590666E0
2.752024498E0	7.058106422E0	5.446808815E0	-8.379706144E-1
2.753967921E0	7.082048416E0	5.691017628E0	-1.795651317E-1
2.755440537E0	7.216124058E0	5.954379559E0	2.442085743E-1
2.758164956E0	7.436390400E0	6.222530365E0	5.171475410E-1
2.760097691E0	7.613561630E0	6.368576527E0	5.123591423E-1
2.762197033E0	7.513004780E0	6.126761913E0	5.746084079E-2
2.763526844E0	6.548141479E0	6.124367714E0	-3.830722719E-2
2.766254264E0	6.138733387E0	6.433219910E0	2.896983922E-1
2.768129383E0	6.368576527E0	6.818686485E0	6.320692301E-1
2.770285379E0	6.445190907E0	7.077260017E0	7.015010715E-1
2.771756460E0	6.524199486E0	7.252037048E0	6.943184733E-1
2.774290302E0	6.124367714E0	7.048529625E0	3.256114423E-1
2.776284264E0	4.764461517E0	6.900089264E0	2.801215947E-1
2.778301341E0	4.228160381E0	7.144298077E0	7.158663273E-1
2.779524152E0	4.402936935E0	7.498639584E0	1.187524080E0
2.782358379E0	4.438849926E0	7.836222172E0	1.580173135E0
2.784235575E0	3.287238836E0	7.898471355E0	1.685518026E0
2.786389418E0	2.140416384E0	7.829039574E0	1.826775908E0
2.787719306E0	2.288856745E0	8.056488991E0	2.238578558E0
2.790252383E0	2.557007313E0	8.109161377E0	2.564189911E0
2.792434498E0	2.844311714E0	7.747636795E0	2.748543501E0
2.794247152E0	3.797203779E0	7.651868820E0	2.784456491E0
2.795721998E0	4.285621166E0	7.644686222E0	2.638410330E0
2.798547187E0	5.073313236E0	7.541735172E0	2.470816135E0
2.800409729E0	6.615179062E0	7.613561630E0	2.604891539E0
2.802593225E0	7.098807812E0	7.206547260E0	2.470816135E0
2.803840652E0	7.656657219E0	6.797138691E0	2.355894566E0
2.806650148E0	8.166622162E0	6.964732647E0	2.252943754E0
2.808602575E0	7.503427982E0	6.868964672E0	1.855506301E0
2.810681725E0	7.709329605E0	6.959944248E0	2.018311977E0
2.812035306E0	7.422025204E0	7.158663273E0	1.991975784E0
2.814676187E0	6.799532890E0	7.113173485E0	1.805228114E0
2.816498344E0	7.266402245E0	7.328651428E0	2.047042370E0
2.818671418E0	6.845022678E0	7.232883453E0	1.723825216E0
2.819923921E0	7.714118004E0	7.151480675E0	1.740584612E0
2.822727802E0	8.204929352E0	7.264008045E0	1.659181833E0
2.824632806E0	7.371747017E0	7.048529625E0	1.201889277E0
2.826773225E0	8.243236542E0	7.137115479E0	1.410184860E0
2.827988191E0	7.527369976E0	7.264008045E0	1.103726983E0
2.830593191E0	6.962338448E0	7.204153061E0	8.619126081E-1
2.832824229E0	7.809885979E0	7.479485989E0	9.457096457E-1
2.834726575E0	6.512228489E0	7.529764175E0	3.950432837E-1
2.836106037E0	6.897695065E0	7.627926826E0	4.094084799E-1
2.838925610E0	7.412448406E0	7.960720539E0	3.950432837E-1
2.840785229E0	5.961562157E0	7.917624950E0	-5.267243832E-2
2.842957148E0	6.967126846E0	8.032546997E0	1.149216816E-1
2.844183037E0	6.749254704E0	8.180987358E0	-6.703764945E-2
2.847014417E0	6.303933144E0	8.070854187E0	-1.915361285E-1
2.848896691E0	5.937620163E0	8.046912193E0	-3.280056417E-1
2.851059956E0	5.995080948E0	7.905653954E0	-4.668693244E-1
2.852432767E0	6.210559368E0	7.867346764E0	-3.926490843E-1
2.855054494E0	6.143521786E0	7.716512203E0	-4.477157295E-1
2.857048456E0	6.607996464E0	7.596801758E0	-3.303998411E-1
2.859050302E0	6.466738701E0	7.393294811E0	-4.525041282E-1
2.860284383E0	6.943184853E0	7.311892033E0	-3.471592367E-1
2.863108302E0	6.854599476E0	7.213729858E0	-3.782838583E-1
2.864961844E0	6.744466305E0	7.139509678E0	-2.992752194E-1
2.867139264E0	6.677428722E0	7.060500622E0	-2.274491638E-1
2.868433152E0	6.311115742E0	6.998251438E0	-1.077390760E-1
2.871002575E0	6.799532890E0	6.983886242E0	5.985504389E-2
2.873182883E0	6.485892296E0	6.945579052E0	1.460463107E-1
2.874942114E0	6.809109688E0	6.950367451E0	2.370259613E-1
2.876482152E0	6.627150536E0	6.900089264E0	1.987187415E-1
2.879307494E0	6.552929878E0	6.833051682E0	2.274491638E-1
2.881141690E0	7.874529362E0	6.916848660E0	2.777273953E-1
2.883338571E0	7.666234016E0	7.019799232E0	2.298433632E-1
2.884577690E0	7.091625214E0	7.082048416E0	2.011129409E-1
2.887395340E0	6.071695328E0	7.144298077E0	1.915361285E-1
2.889424148E0	6.284779549E0	7.256825447E0	3.447650373E-1
2.891426187E0	5.839457989E0	7.264008045E0	3.950432837E-1
2.892865729E0	5.585672379E0	7.232883453E0	4.884171486E-1
2.895429917E0	6.471527100E0	7.280767441E0	5.554547906E-1
2.897266306E0	6.277596951E0	7.247248650E0	4.979939461E-1
2.899440879E0	5.987898350E0	7.163451672E0	4.908113480E-1
2.900672729E0	6.720524311E0	7.139509678E0	5.171475410E-1
2.903497956E0	6.672640324E0	7.079654217E0	5.291185975E-1
2.905390229E0	6.325480938E0	7.003039837E0	5.410895944E-1
2.907529763E0	6.940790653E0	6.962338448E0	6.009446383E-1
2.908734306E0	6.880935669E0	6.876147270E0	6.392518282E-1
2.911466190E0	6.746860504E0	6.806715488E0	6.368576288E-1
2.913528306E0	6.988674641E0	6.732495308E0	7.038952708E-1
2.915458229E0	7.041347027E0	6.687005520E0	7.086837292E-1
2.916851037E0	7.343016624E0	6.718130112E0	6.751648784E-1
2.919686840E0	7.319074631E0	6.742072105E0	7.062895298E-1
2.921716417E0	7.158663273E0	6.742072105E0	7.158663273E-1
2.923733148E0	6.995857239E0	6.727706909E0	7.350199223E-1
2.925011190E0	7.096413612E0	6.722918510E0	7.541735172E-1
2.927790302E0	7.153874874E0	6.730101109E0	7.565677166E-1
2.929634190E0	7.769184589E0	6.809109688E0	7.015010715E-1
2.931821148E0	7.721300602E0	6.818686485E0	7.374141216E-1
2.933166883E0	7.711723804E0	6.868964672E0	6.967126727E-1
2.935815109E0	7.211335659E0	6.971915245E0	6.631938815E-1
2.937670729E0	6.449979305E0	7.036558628E0	7.110779285E-1
2.939811225E0	5.916072369E0	6.986280441E0	8.188169599E-1
2.941113883E0	5.968744755E0	6.904877663E0	8.523358107E-1
2.943868609E0	6.483498096E0	6.859387875E0	8.236053586E-1
2.945728267E0	6.789956093E0	6.828263283E0	7.637503147E-1
2.947914686E0	7.053318024E0	6.799532890E0	7.038952708E-1
2.949148883E0	7.187393665E0	6.763619900E0	6.272808313E-1
2.951729767E0	7.225700855E0	6.761225700E0	4.955997467E-1
2.953922075E0	7.402871609E0	6.830657482E0	2.944868207E-1
2.955694844E0	7.462726593E0	6.914454460E0	1.508347094E-1
2.957257614E0	7.323863029E0	6.976703644E0	5.985504389E-2
2.960068494E0	7.189787865E0	7.029376030E0	7.182605099E-3
2.961924998E0	7.455543995E0	7.163451672E0	-5.746084079E-2
2.964099571E0	7.613561630E0	7.299921036E0	-1.077390760E-1
2.965387267E0	6.952761650E0	7.362170219E0	-4.070143029E-2
2.968156379E0	6.538564682E0	7.438784599E0	4.070143029E-2
2.970041113E0	6.397306919E0	7.498639584E0	1.771709323E-1
2.972201955E0	6.248866558E0	7.551311970E0	3.351882398E-1
2.973562652E0	6.490680695E0	7.651868820E0	4.309563041E-1
2.976196340E0	6.785167694E0	7.800309181E0	4.979939461E-1
2.978045767E0	6.651092529E0	7.872135162E0	6.847416759E-1
2.980191686E0	6.042964935E0	7.750030994E0	9.744400978E-1
2.981384267E0	5.975927353E0	7.577648163E0	1.115697980E0
2.984247417E0	6.107608318E0	7.402871609E0	1.127668977E0
2.986100460E0	6.325480938E0	7.252037048E0	1.043871999E0
2.988276917E0	7.058106422E0	7.165845871E0	8.762778044E-1
2.989515460E0	7.532158375E0	7.082048416E0	7.398083210E-1
2.992096537E0	7.012616634E0	6.940790653E0	7.110779285E-1
2.994361763E0	6.406883717E0	6.840234280E0	6.607996821E-1
2.996157613E0	6.284779549E0	6.785167694E0	5.889736414E-1
2.997621960E0	5.748478413E0	6.648698330E0	6.392518282E-1
3.000444609E0	4.625597477E0	6.414066315E0	8.499416113E-1
3.002312421E0	4.412513733E0	6.215347767E0	9.768342972E-1
3.004475609E0	5.556941986E0	6.009446144E0	9.576807022E-1
3.005850113E0	7.656657219E0	5.923254967E0	8.690952063E-1
3.008531648E0	9.416395187E0	6.093243122E0	6.991068721E-1
3.010392613E0	1.027591324E1	6.517016888E0	4.525041282E-1
3.012561878E0	1.120725822E1	7.175422668E0	3.830722719E-2
3.013974190E0	1.203565216E1	7.999027729E0	-3.375824392E-1
3.016565109E0	1.236844635E1	8.896853447E0	-5.458779931E-1
3.018392267E0	1.262223148E1	9.825803757E0	-7.134721279E-1
3.020575801E0	1.256716442E1	1.069011021E1	-8.236053586E-1
3.021824229E0	1.198537350E1	1.137245846E1	-8.690952063E-1
3.024631532E0	1.021366405E1	1.179383755E1	-7.302315235E-1
3.026468306E0	7.359776020E0	1.181777954E1	-3.184288144E-1
3.028660878E0	4.745307922E0	1.152808094E1	1.699883193E-1
3.029988883E0	3.126827478E0	1.104205799E1	6.224924326E-1
3.032471460E0	2.489969730E0	1.048899746E1	9.026140571E-1
3.034681537E0	2.602497339E0	9.878476143E0	1.019929886E0
3.036453383E0	3.315969467E0	9.167398453E0	1.015141487E0
3.037989729E0	4.367023945E0	8.468291283E0	8.954314590E-1
3.040817148E0	5.578489780E0	7.900865555E0	6.775590777E-1
3.042669113E0	6.727706909E0	7.474697590E0	3.711012602E-1
3.044861571E0	7.659051418E0	7.199364662E0	4.788403213E-2
3.046156229E0	8.257601738E0	7.079654217E0	-2.466027737E-1
3.048917686E0	8.410830498E0	7.077260017E0	-4.453215301E-1
3.050787767E0	8.252813339E0	7.132327080E0	-5.386953950E-1
3.052947224E0	8.087613106E0	7.264008045E0	-5.770025849E-1
3.054387267E0	7.888894558E0	7.419631004E0	-4.932055473E-1
3.056940340E0	7.527369976E0	7.503427982E0	-2.777273953E-1
3.058780344E0	7.177816868E0	7.532158375E0	-6.943184882E-2
3.060934147E0	7.177816868E0	7.532158375E0	1.244984865E-1
3.062190421E0	7.876923561E0	7.527369976E0	3.998316824E-1
3.064989378E0	9.394847870E0	7.426813602E0	8.068459630E-1
3.066886575E0	8.382100105E0	7.335834026E0	8.667010069E-1
3.069034186E0	6.576871872E0	7.237671852E0	8.427590132E-1
3.070250613E0	5.334281445E0	7.122750282E0	7.972691655E-1
3.072851575E0	4.783615112E0	7.007828236E0	7.781155705E-1
3.075048613E0	4.592078686E0	6.871358871E0	7.829039693E-1
3.076910921E0	4.501099110E0	6.698976517E0	7.924807668E-1
3.078361844E0	4.503493309E0	6.500257492E0	7.805097699E-1
3.081185032E0	4.716577530E0	6.279991150E0	7.469909191E-1
3.083054036E0	5.109226227E0	6.035782337E0	7.230489254E-1
3.085215532E0	5.530605793E0	5.784391403E0	7.182605267E-1
3.086459575E0	5.851428986E0	5.554547787E0	6.991068721E-1
3.089271417E0	6.038176537E0	5.365406036E0	6.464344859E-1
3.091299878E0	6.119579315E0	5.226542473E0	5.817909837E-1
3.093316493E0	6.153098583E0	5.121197224E0	5.027823448E-1
3.094747806E0	6.155492783E0	5.030217648E0	4.070142806E-1
3.097310147E0	6.143521786E0	4.932055473E0	3.040636182E-1
3.099122613E0	6.093243122E0	4.814739704E0	1.867477298E-1
3.101304686E0	6.062118530E0	4.709394932E0	6.703764945E-2
3.102537421E0	6.045359135E0	4.594472885E0	-1.915361360E-2
3.105360801E0	6.033388138E0	4.465186119E0	-9.097966552E-2
3.107380729E0	6.052541733E0	4.328716755E0	-1.771709323E-1
3.109405147E0	6.136339188E0	4.199429989E0	-2.633621991E-1
3.110640383E0	6.244078159E0	4.084507942E0	-3.471592367E-1
3.113382152E0	6.313509941E0	3.976768970E0	-4.572925270E-1
3.115456806E0	6.294356346E0	3.876212597E0	-5.506663918E-1
3.117241383E0	6.217741966E0	3.785232782E0	-6.272808313E-1
3.118705844E0	6.131550789E0	3.706224203E0	-6.727706790E-1
3.121571647E0	6.052541733E0	3.646369219E0	-6.991068721E-1
3.123446075E0	5.987898350E0	3.610456228E0	-7.230489254E-1
3.125602455E0	5.918466568E0	3.610456228E0	-7.350199223E-1
3.126831229E0	5.813121796E0	3.634398222E0	-7.326257229E-1
3.129659070E0	5.691017628E0	3.665522814E0	-7.158663273E-1
3.131635690E0	5.616796970E0	3.737348795E0	-6.703764796E-1
3.133689455E0	5.571307182E0	3.866635799E0	-5.961562395E-1
3.135057652E0	5.501875401E0	4.019864559E0	-5.027823448E-1
3.137691955E0	5.348646641E0	4.161122322E0	-3.734954596E-1
3.139513960E0	4.872200489E0	4.261679173E0	-2.011129409E-1
3.141701224E0	4.613626480E0	4.288015366E0	-6.224924326E-2
3.142909844E0	4.900930882E0	4.242525578E0	1.532289088E-1
3.145756724E0	5.157110691E0	4.288015366E0	5.003881454E-1
3.147635113E0	5.221754074E0	4.446032524E0	8.259995580E-1
3.149786339E0	5.257667065E0	4.666299343E0	1.022324085E0
3.151001421E0	5.250484467E0	4.872200489E0	1.142034173E0
3.153611498E0	5.195417881E0	5.042188644E0	1.237802267E0
3.155813613E0	5.149928093E0	5.190629482E0	1.323993564E0
3.157659229E0	5.130774021E0	5.334281445E0	1.410184860E0
3.159114036E0	5.085284233E0	5.444414616E0	1.482010841E0
3.161938955E0	5.039794445E0	5.540182590E0	1.563413739E0
3.163840383E0	5.027823448E0	5.635950565E0	1.651999116E0
3.165983685E0	5.154716492E0	5.722142220E0	1.750161409E0
3.167798036E0	5.276820660E0	5.758055210E0	1.793257117E0
3.170039647E0	5.391742229E0	5.805939198E0	1.810016513E0
3.171891267E0	5.547365189E0	5.868188381E0	1.795651317E0
3.174069685E0	5.714959621E0	5.923254967E0	1.726219416E0
3.175421421E0	5.882553577E0	5.968744755E0	1.613691926E0
3.178064378E0	6.021417141E0	6.004657745E0	1.467645645E0
3.180028690E0	6.074089527E0	6.038176537E0	1.280897856E0
3.182060070E0	5.973533154E0	6.042964935E0	1.067813993E0
3.183313536E0	5.868188381E0	6.011840343E0	8.858546019E-1
3.186116570E0	6.059724331E0	5.966350555E0	7.302315235E-1
3.188145455E0	6.440402508E0	5.942408562E0	5.889736414E-1
3.190162147E0	6.780379295E0	5.966350555E0	4.070142806E-1
3.191428959E0	7.010222435E0	6.045359135E0	1.292868853E-1
3.193982536E0	7.122750282E0	6.169857979E0	-1.771709323E-1
3.196173844E0	7.113173485E0	6.339846134E0	-4.836287498E-1
3.197945575E0	7.046135426E0	6.545747280E0	-7.900865674E-1
3.199481075E0	7.070077419E0	6.746860504E0	-1.096544385E0
3.202316185E0	7.173028469E0	6.940790653E0	-1.376665950E0
3.204272421E0	7.335834026E0	7.113173485E0	-1.642422318E0
3.206347262E0	7.479485989E0	7.278373241E0	-1.843535304E0
3.207588498E0	7.407660007E0	7.467514992E0	-1.881842494E0
3.210404262E0	7.290344238E0	7.627926826E0	-1.841141105E0
3.212275767E0	7.347805023E0	7.706935406E0	-1.841141105E0
3.214449262E0	7.611167431E0	7.690176010E0	-1.865083098E0
3.215834729E0	8.111555099E0	7.613561630E0	-1.865083098E0
3.218442185E0	8.698134422E0	7.536946774E0	-1.877054095E0
3.220346459E0	9.179368973E0	7.532158375E0	-1.968033791E0
3.222437916E0	9.512163162E0	7.623138428E0	-2.087743998E0
3.223712690E0	9.734824181E0	7.788338184E0	-2.106897593E0
3.226494878E0	9.933543205E0	7.972691536E0	-2.027888775E0
3.228340383E0	1.018732834E1	8.130708694E0	-1.850717902E0
3.230524685E0	1.052730465E1	8.255207062E0	-1.517923832E0
3.231758883E0	1.086728191E1	8.379706383E0	-1.036689281E0
3.234345075E0	1.119528675E1	8.489839554E0	-5.434837937E-1
3.236556883E0	1.152808094E1	8.571242332E0	-9.337386489E-2
3.238393729E0	1.180580902E1	8.619126320E0	3.088520169E-1
3.239852652E0	1.192073059E1	8.614337921E0	6.536170840E-1
3.242691878E0	1.187045193E1	8.621520042E0	9.265560508E-1
3.244628075E0	1.169567490E1	8.650250435E0	1.139639974E0
3.246721954E0	1.144667816E1	8.686163902E0	1.264138460E0
3.248094152E0	1.118810463E1	8.705317497E0	1.319205165E0
3.250778377E0	1.090798283E1	8.731653214E0	1.328781962E0
3.252807224E0	1.056561184E1	8.774748802E0	1.285686255E0
3.254809454E0	1.012507915E1	8.798690796E0	1.199495077E0
3.256244959E0	9.627084732E0	8.786720276E0	1.055842996E0
3.258812301E0	9.124302864E0	8.757989883E0	8.762778044E-1
3.260699152E0	8.657433510E0	8.702922821E0	6.967126727E-1
3.262822339E0	8.274360657E0	8.614337921E0	5.410895944E-1
3.264075883E0	7.946355343E0	8.508993149E0	4.189853072E-1
3.266878454E0	7.651868820E0	8.391676903E0	3.567360640E-1
3.268729267E0	7.450755596E0	8.257601738E0	3.399766386E-1
3.270907877E0	7.366958618E0	8.118738174E0	3.160346150E-1
3.272156883E0	7.333439827E0	7.979874134E0	2.801215947E-1
3.274767075E0	7.326257229E0	7.783549786E0	2.322375625E-1
3.276991921E0	7.316680431E0	7.637503624E0	2.346317619E-1
3.278738075E0	7.295132637E0	7.481880188E0	2.753331959E-1
3.280303459E0	7.280767441E0	7.338228226E0	3.232172430E-1
3.283063493E0	7.290344238E0	7.201758862E0	3.639186621E-1
3.285036729E0	7.314286232E0	7.060500622E0	3.974374831E-1
3.287109339E0	7.311892033E0	6.924031258E0	4.381389022E-1
3.288423844E0	7.285555840E0	6.797138691E0	4.812345505E-1
3.291165608E0	7.240066051E0	6.691793919E0	5.315127969E-1
3.293047536E0	7.213729858E0	6.586448669E0	5.793967843E-1
3.295194877E0	7.182605267E0	6.473921299E0	6.248866320E-1
3.296737536E0	7.146692276E0	6.363788128E0	6.703764796E-1
3.299188300E0	7.067683220E0	6.277596951E0	7.326257229E-1
3.300995575E0	6.933608055E0	6.205770969E0	8.068459630E-1
3.303182800E0	6.821080685E0	6.126761913E0	8.595184088E-1
3.304447498E0	6.722918510E0	6.066906929E0	8.978256583E-1
3.307238877E0	6.617573261E0	6.014234543E0	9.145850539E-1
3.309126690E0	6.557718277E0	5.971138954E0	9.337386489E-1
3.311284685E0	6.512228489E0	5.928043365E0	9.672574997E-1
3.312506344E0	6.485892296E0	5.880159378E0	9.768342972E-1
3.315280806E0	6.483498096E0	5.846640587E0	9.720458984E-1
3.317345729E0	6.490680695E0	5.827486992E0	9.528923035E-1
3.319150459E0	6.505045891E0	5.813121796E0	9.169792533E-1
3.320610806E0	6.536170483E0	5.796362400E0	8.786720037E-1
3.323435531E0	6.581660271E0	5.796362400E0	8.236053586E-1
3.325300921E0	6.655880928E0	5.803544998E0	7.589619160E-1
3.327465993E0	6.734889507E0	5.827486992E0	6.919242740E-1
3.328747344E0	6.787561893E0	5.861005783E0	6.177040339E-1
3.331522531E0	6.842628479E0	5.899312973E0	5.434837937E-1
3.333398190E0	6.897695065E0	5.930437565E0	4.716577232E-1
3.335568608E0	6.962338448E0	5.961562157E0	3.902548850E-1
3.336990806E0	7.005434036E0	6.002263546E0	2.873041928E-1
3.339564339E0	7.050923824E0	6.064512730E0	1.891419291E-1
3.341359306E0	7.089231014E0	6.141127586E0	1.077390760E-1
3.343560608E0	7.139509678E0	6.220136166E0	1.675941236E-2
3.344777382E0	7.201758862E0	6.301538944E0	-9.576806426E-2
3.347617492E0	7.237671852E0	6.394912720E0	-2.059013397E-1
3.349525152E0	7.206547260E0	6.471527100E0	-2.705447972E-1
3.351648839E0	7.105990410E0	6.536170483E0	-3.016694188E-1
3.352967729E0	6.967126846E0	6.579266071E0	-3.184288144E-1
3.355514306E0	6.830657482E0	6.603208065E0	-3.208230138E-1
3.357679921E0	6.708553314E0	6.634333134E0	-3.160346150E-1
3.359476113E0	6.624756336E0	6.660669327E0	-3.160346150E-1
3.360984075E0	6.579266071E0	6.691793919E0	-3.208230138E-1
3.363816762E0	6.557718277E0	6.732495308E0	-3.327940404E-1
3.365659767E0	6.576871872E0	6.777985096E0	-3.543418646E-1
3.367847569E0	6.617573261E0	6.818686485E0	-3.830722570E-1
3.369095806E0	6.687005520E0	6.849811077E0	-4.141969085E-1
3.371904377E0	6.744466305E0	6.871358871E0	-4.381389022E-1
3.373801844E0	6.763619900E0	6.878541470E0	-4.644751251E-1
3.375933992E0	6.797138691E0	6.888118267E0	-4.860229492E-1
3.377327575E0	6.811503887E0	6.890512466E0	-4.908113480E-1
3.379936646E0	6.835445881E0	6.892906666E0	-4.668693244E-1
3.381805998E0	6.890512466E0	6.888118267E0	-4.333505034E-1
3.383945877E0	6.936002254E0	6.880935669E0	-4.237737060E-1
3.385154575E0	6.969521046E0	6.876147270E0	-4.309563041E-1
3.388001146E0	6.952761650E0	6.861782074E0	-4.860229492E-1
3.389865075E0	6.883329868E0	6.880935669E0	-5.386953950E-1
3.392031223E0	6.821080685E0	6.909666061E0	-5.841852427E-1
3.393245729E0	6.801927090E0	6.938396454E0	-6.320692301E-1
3.395813536E0	6.842628479E0	6.955155849E0	-6.320692301E-1
3.398043498E0	6.931213856E0	6.964732647E0	-5.626373887E-1
3.400016382E0	7.043741226E0	6.964732647E0	-4.788403511E-1
3.401330844E0	7.165845871E0	6.938396454E0	-4.046200812E-1
3.404181338E0	7.259219646E0	6.885724068E0	-3.615244627E-1
3.406035652E0	7.328651428E0	6.825869083E0	-3.303998411E-1
3.408226377E0	7.328651428E0	6.787561893E0	-2.729389966E-1
3.409429113E0	7.252037048E0	6.756437302E0	-2.154781520E-1
3.412281569E0	7.127538681E0	6.732495308E0	-1.987187415E-1
3.414195113E0	6.993463039E0	6.718130112E0	-2.202665508E-1
3.416310800E0	6.895300865E0	6.706159115E0	-2.418143749E-1
3.417685805E0	6.842628479E0	6.696582317E0	-2.466027737E-1
3.420304723E0	6.842628479E0	6.706159115E0	-2.394201756E-1
3.422159190E0	6.859387875E0	6.730101109E0	-2.274491638E-1
3.424300954E0	6.878541470E0	6.749254704E0	-1.867477298E-1
3.425562844E0	6.933608055E0	6.751648903E0	-1.149216816E-1
3.428356954E0	6.988674641E0	6.746860504E0	-6.464344263E-2
3.430278959E0	7.015010834E0	6.746860504E0	-5.267243832E-2
3.432401108E0	7.017405033E0	6.754043102E0	-6.224924326E-2
3.433659421E0	7.029376030E0	6.746860504E0	-8.619125932E-2
3.436223036E0	7.053318024E0	6.727706909E0	-1.053448766E-1
3.438419190E0	7.077260017E0	6.715735912E0	-1.173158810E-1
3.440200229E0	7.074865818E0	6.710947514E0	-1.316810995E-1
3.441741652E0	7.029376030E0	6.713341713E0	-1.556231081E-1
3.444552377E0	6.971915245E0	6.708553314E0	-1.747767180E-1
3.446580492E0	6.912060261E0	6.682217121E0	-1.675941199E-1
3.448582146E0	6.861782074E0	6.646304131E0	-1.412578970E-1
3.449834613E0	6.847416878E0	6.615179062E0	-1.101332754E-1
3.452637761E0	6.868964672E0	6.591237068E0	-7.661445439E-2
3.454657959E0	6.928819656E0	6.567295074E0	-3.591302410E-2
3.456682761E0	7.029376030E0	6.543353081E0	-1.675941236E-2
3.458029844E0	7.120356083E0	6.524199486E0	-2.394201607E-2
3.460676531E0	7.173028469E0	6.509834290E0	-4.309562966E-2
3.462633190E0	7.196970463E0	6.502651691E0	-6.943184882E-2
3.464672261E0	7.213729858E0	6.500257492E0	-7.900865376E-2
3.465923229E0	7.247248650E0	6.483498096E0	-7.900865376E-2
3.468728492E0	7.273584843E0	6.459556103E0	-8.858546615E-2
3.470582998E0	7.283161640E0	6.433219910E0	-1.340752989E-1
3.472758338E0	7.283161640E0	6.411672115E0	-2.202665508E-1
3.473971767E0	7.283161640E0	6.406883717E0	-3.327940404E-1
3.476555959E0	7.275979042E0	6.409277916E0	-4.189853072E-1
3.478843338E0	7.266402245E0	6.426037312E0	-4.788403511E-1
3.480672036E0	7.264008045E0	6.442796707E0	-5.386953950E-1
3.482057652E0	7.278373241E0	6.438008308E0	-5.937620401E-1
3.484892146E0	7.314286232E0	6.433219910E0	-6.296750307E-1
3.486783767E0	7.350199223E0	6.426037312E0	-6.464344859E-1
3.488922223E0	7.374141216E0	6.418854713E0	-6.488286853E-1
3.490203882E0	7.383718014E0	6.402095318E0	-6.560112834E-1
3.492977415E0	7.388506413E0	6.373364925E0	-6.416460276E-1
3.494831575E0	7.359776020E0	6.366182327E0	-6.177040339E-1
3.497007146E0	7.350199223E0	6.361393929E0	-5.961562395E-1
3.498466652E0	7.357381821E0	6.342240334E0	-5.793967843E-1
3.501010530E0	7.350199223E0	6.318298340E0	-5.554547906E-1
3.502828998E0	7.331045628E0	6.315904140E0	-5.339069963E-1
3.505021338E0	7.335834026E0	6.318298340E0	-5.291185975E-1
3.506273613E0	7.366958618E0	6.315904140E0	-5.219359994E-1
3.509078453E0	7.414842606E0	6.301538944E0	-5.219359994E-1
3.510939536E0	7.445967197E0	6.279991150E0	-5.123591423E-1
3.513124146E0	7.469909191E0	6.270414352E0	-4.955997467E-1
3.514424382E0	7.491456985E0	6.251260757E0	-4.716577232E-1
3.516936267E0	7.520187378E0	6.222530365E0	-4.477157295E-1
3.519139728E0	7.565677166E0	6.189011574E0	-4.237737060E-1
3.520923344E0	7.608773232E0	6.165069580E0	-4.094084799E-1
3.522445690E0	7.647080421E0	6.138733387E0	-3.926490843E-1
3.525280992E0	7.687781811E0	6.114790916E0	-3.758896589E-1
3.527158575E0	7.733271599E0	6.083666325E0	-3.495534360E-1
3.529326107E0	7.776367188E0	6.064512730E0	-3.256114423E-1
3.530760113E0	7.790732384E0	6.052541733E0	-3.136404157E-1
3.533382799E0	7.795520782E0	6.023811340E0	-3.136404157E-1
3.535390652E0	7.805097580E0	5.990292549E0	-2.968810201E-1
3.537413376E0	7.795520782E0	5.971138954E0	-2.681505978E-1
3.538753998E0	7.785943985E0	5.956773758E0	-2.442085743E-1
3.541406684E0	7.771578789E0	5.956773758E0	-2.370259613E-1
3.543328305E0	7.757213593E0	5.956773758E0	-2.298433632E-1
3.545402146E0	7.752425194E0	5.944802761E0	-2.202665508E-1
3.546779190E0	7.745242596E0	5.928043365E0	-1.939303428E-1
3.549459069E0	7.728483200E0	5.918466568E0	-1.747767180E-1
3.551467228E0	7.718906403E0	5.911283970E0	-1.651999205E-1
3.553504453E0	7.718906403E0	5.906495571E0	-1.628057212E-1
3.554749382E0	7.709329605E0	5.889736176E0	-1.723825186E-1
3.557323344E0	7.711723804E0	5.868188381E0	-1.867477298E-1
3.559517382E0	7.723694801E0	5.851428986E0	-2.035071403E-1
3.561392190E0	7.711723804E0	5.841852188E0	-2.226607651E-1
3.562813113E0	7.697358608E0	5.851428986E0	-2.585737705E-1
3.565656838E0	7.680599213E0	5.856217384E0	-2.920926213E-1
3.567552459E0	7.678205013E0	5.844246387E0	-3.208230138E-1
3.569686530E0	7.692570210E0	5.820304394E0	-3.471592367E-1
3.571002613E0	7.694964409E0	5.798756599E0	-3.711012602E-1
3.573742415E0	7.704541206E0	5.798756599E0	-4.046200812E-1
3.575623421E0	7.716512203E0	5.810727596E0	-4.285621047E-1
3.577786492E0	7.742848396E0	5.813121796E0	-4.333505034E-1
3.579144382E0	7.781155586E0	5.820304394E0	-4.357447028E-1
3.581779992E0	7.817068577E0	5.820304394E0	-4.501099288E-1
3.583598767E0	7.843404770E0	5.820304394E0	-4.525041282E-1
3.585775107E0	7.850587368E0	5.837063789E0	-4.740519226E-1
3.587007228E0	7.831433773E0	5.877765179E0	-5.339069963E-1
3.589831068E0	7.814674377E0	5.940014362E0	-6.057330370E-1
3.591704728E0	7.852981567E0	5.997475147E0	-6.799532771E-1
3.593860453E0	7.920019150E0	6.047753334E0	-7.469909191E-1
3.595136536E0	7.960720539E0	6.107608318E0	-8.523358107E-1
3.597678728E0	7.987056732E0	6.174646378E0	-9.911994934E-1
3.599884575E0	7.994239330E0	6.275202751E0	-1.213860273E0
3.601702690E0	7.958326340E0	6.378153324E0	-1.326387763E0
3.603294267E0	7.908048153E0	6.505045891E0	-1.398213744E0
3.606027684E0	7.843404770E0	6.612784863E0	-1.448492050E0
3.607876305E0	7.783549786E0	6.691793919E0	-1.503558636E0
3.610057684E0	7.790732384E0	6.773196697E0	-1.553836942E0
3.611430498E0	7.785943985E0	6.866570473E0	-1.635239720E0
3.614113145E0	7.644686222E0	6.957550049E0	-1.745373011E0
3.615982382E0	7.481880188E0	7.015010834E0	-1.848323703E0
3.618142799E0	7.338228226E0	7.046135426E0	-1.857900500E0
3.619682767E0	7.211335659E0	7.089231014E0	-1.800439715E0
3.622145761E0	7.110779285E0	7.161057472E0	-1.752555609E0
3.624048959E0	7.050923824E0	7.201758862E0	-1.766920805E0
3.626155607E0	7.050923824E0	7.213729858E0	-1.812410712E0
3.627403498E0	7.120356083E0	7.199364662E0	-1.867477298E0
3.630211645E0	7.242460251E0	7.163451672E0	-1.900996208E0
3.632114536E0	7.316680431E0	7.125144482E0	-1.848323703E0
3.634241684E0	7.362170219E0	7.074865818E0	-1.719036818E0
3.635445421E0	7.407660007E0	7.019799232E0	-1.491587639E0
3.638076805E0	7.419631004E0	6.986280441E0	-1.139639974E0
3.640276459E0	7.357381821E0	6.998251438E0	-7.326257229E-1
3.642097998E0	7.196970463E0	7.046135426E0	-3.806780577E-1
3.643670536E0	6.921637058E0	7.103596210E0	-1.149216816E-1
3.646392376E0	6.651092529E0	7.137115479E0	5.027823523E-2
3.648265459E0	6.476315498E0	7.141903877E0	1.508347094E-1
3.650436607E0	6.394912720E0	7.115567684E0	2.657563984E-1
3.651722844E0	6.344634533E0	7.091625214E0	4.572925270E-1
3.654492953E0	6.421248913E0	7.024587631E0	7.398083210E-1
3.656521876E0	6.653486729E0	6.892906666E0	1.139639974E0
3.658523030E0	6.924031258E0	6.710947514E0	1.661576033E0
3.660020998E0	7.036558628E0	6.579266071E0	2.090138197E0
3.662515491E0	6.880935669E0	6.617573261E0	2.207453966E0
3.664321690E0	6.636727333E0	6.801927090E0	2.030282974E0
3.666510299E0	6.387730122E0	7.041347027E0	1.814804912E0
3.667729921E0	6.162675381E0	7.211335659E0	1.733402014E0
3.670566645E0	6.052541733E0	7.278373241E0	1.714248419E0
3.672539921E0	6.045359135E0	7.283161640E0	1.663970232E0
3.674611991E0	6.057330132E0	7.268796444E0	1.517923832E0
3.675832305E0	6.090848923E0	7.249642849E0	1.300051570E0
3.678428844E0	6.114790916E0	7.208941460E0	1.108515382E0
3.680605805E0	6.136339188E0	7.184999466E0	9.648633003E-1
3.682378421E0	6.117185116E0	7.194576263E0	8.164227605E-1
3.684294921E0	6.093243122E0	7.184999466E0	7.110779285E-1
3.686763453E0	6.071695328E0	7.158663273E0	6.584054828E-1
3.688791876E0	6.078877926E0	7.137115479E0	6.129156351E-1
3.690793145E0	6.172252178E0	7.113173485E0	5.578489900E-1
3.692466498E0	6.272808552E0	7.098807812E0	5.363011956E-1
3.694849414E0	6.356605530E0	7.108384609E0	5.578489900E-1
3.696877953E0	6.483498096E0	7.103596210E0	6.536170840E-1
3.698893876E0	6.737283707E0	7.029376030E0	8.523358107E-1
3.700238459E0	7.096413612E0	6.866570473E0	1.173158884E0
3.702888607E0	7.410054207E0	6.670246124E0	1.575384736E0
3.704695498E0	7.314286232E0	6.655880928E0	1.783680320E0
3.706884491E0	6.777985096E0	6.991068840E0	1.426944256E0
3.708151267E0	6.282385349E0	7.388506413E0	8.690952063E-1
3.710941568E0	5.861005783E0	7.678205013E0	6.200982332E-1
3.712848113E0	5.825092793E0	7.699752808E0	7.158663273E-1
3.714971222E0	5.851428986E0	7.692570210E0	7.685387731E-1
3.716210728E0	5.803544998E0	7.716512203E0	7.469909191E-1
3.718823459E0	5.760449409E0	7.750030994E0	7.110779285E-1
3.721023075E0	5.781997204E0	7.776367188E0	6.536170840E-1
3.722873574E0	5.801150799E0	7.795520782E0	6.081272364E-1
3.724313536E0	5.760449409E0	7.826645374E0	5.961562395E-1
3.727140645E0	5.726930618E0	7.860164165E0	5.961562395E-1
3.729076305E0	5.758055210E0	7.893682957E0	5.961562395E-1
3.731171299E0	5.803544998E0	7.855375767E0	6.607996821E-1
3.732440574E0	5.817910194E0	7.776367188E0	7.972691655E-1
3.735228491E0	5.875370979E0	7.711723804E0	9.193734527E-1
3.737123421E0	5.954379559E0	7.668628216E0	1.053448796E0
3.739260606E0	6.016628742E0	7.637503624E0	1.237802267E0
3.740639305E0	6.040570736E0	7.601590633E0	1.462857246E0
3.743265914E0	6.042964935E0	7.572859764E0	1.719036818E0
3.745259876E0	6.081272125E0	7.553706169E0	1.980004787E0
3.747287183E0	6.136339188E0	7.558494568E0	2.236184359E0
3.748505536E0	6.193799973E0	7.572859764E0	2.487575531E0
3.751335068E0	6.232107162E0	7.570465565E0	2.758120298E0
3.753363760E0	6.229712963E0	7.584830761E0	3.021482468E0
3.755365414E0	6.248866558E0	7.615955830E0	3.275267839E0
3.756587921E0	6.282385349E0	7.671022415E0	3.533841610E0
3.759369498E0	6.315904140E0	7.797914982E0	3.770867586E0
3.761421228E0	6.332663536E0	7.994239330E0	3.955221176E0
3.763463421E0	6.318298340E0	8.228871346E0	4.082113743E0
3.764708267E0	6.284779549E0	8.477868080E0	4.158728123E0
3.767523683E0	6.404489517E0	8.779537201E0	4.223371983E0
3.769381305E0	6.497863293E0	9.085995674E0	4.335899353E0
3.771570183E0	6.557718277E0	9.390059471E0	4.378994942E0
3.772787574E0	6.648698330E0	9.742006302E0	4.347870350E0
3.775627568E0	6.708553314E0	1.008916569E1	4.216189384E0
3.777466382E0	6.730101109E0	1.042435455E1	3.967192173E0
3.779659299E0	6.821080685E0	1.080263805E1	3.739742994E0
3.781208882E0	6.909666061E0	1.114740276E1	3.610456228E0
3.783654568E0	7.062894821E0	1.148259163E1	3.454833031E0
3.785466228E0	7.254431248E0	1.182496262E1	3.256114244E0
3.787649799E0	7.436390400E0	1.210508347E1	2.944868088E0
3.788993498E0	7.589619160E0	1.233253288E1	2.533065319E0
3.791706645E0	7.800309181E0	1.256955910E1	2.149993181E0
3.793600151E0	7.960720539E0	1.278982544E1	1.814804912E0
3.795752145E0	8.078036308E0	1.297178459E1	1.448492050E0
3.797042574E0	8.224082947E0	1.316571522E1	1.113303781E0
3.799590651E0	8.348581314E0	1.335725117E1	8.762778044E-1
3.801799382E0	8.365341187E0	1.350090313E1	6.560112834E-1
3.803695151E0	8.307879448E0	1.362300777E1	4.213795066E-1
3.805065921E0	8.118738174E0	1.374271774E1	2.035071403E-1
3.807905952E0	7.869740963E0	1.386721611E1	-2.394201607E-2
3.809753574E0	7.718906403E0	1.413536644E1	-3.854664862E-1
3.811936683E0	7.721300602E0	1.434126854E1	-5.722141862E-1
3.813584421E0	7.594407558E0	1.449928570E1	-6.560112834E-1
3.815993721E0	7.299921036E0	1.458308220E1	-6.631938815E-1
3.817895959E0	6.979097843E0	1.463814926E1	-6.512228847E-1
3.820039721E0	6.665457726E0	1.469082165E1	-6.081272364E-1
3.821553074E0	6.337451935E0	1.472434044E1	-5.458779931E-1
3.824033183E0	6.011840343E0	1.472673512E1	-4.525041282E-1
3.825936613E0	5.566518784E0	1.462138939E1	-3.136404157E-1
3.828029375E0	5.056553841E0	1.436521053E1	-1.939303428E-1
3.829254228E0	4.537012100E0	1.399410915E1	-7.661445439E-2
3.832086337E0	4.024652958E0	1.357991219E1	5.027823523E-2
3.833986844E0	3.531447411E0	1.313698483E1	1.867477298E-1
3.836117683E0	3.083731890E0	1.268687439E1	3.232172430E-1
3.837372882E0	2.674323320E0	1.224873543E1	4.525041282E-1
3.839982497E0	2.324769735E0	1.183214474E1	5.793967843E-1
3.842135844E0	2.070984364E0	1.143231297E1	7.326257229E-1
3.843879882E0	1.855506301E0	1.102290440E1	8.954314590E-1
3.845408882E0	1.654393315E0	1.061589050E1	1.034295082E0
3.848286644E0	1.510741234E0	1.023760605E1	1.163581967E0
3.850146305E0	1.391031146E0	9.885659218E0	1.288080573E0
3.852318144E0	1.268926859E0	9.545681953E0	1.369483352E0
3.853570382E0	1.165976286E0	9.217676163E0	1.424550056E0
3.856374644E0	1.118092179E0	8.923190117E0	1.482010841E0
3.858222497E0	1.115697980E0	8.662221909E0	1.570596337E0
3.860405029E0	1.127668977E0	8.420407295E0	1.692700624E0
3.861725767E0	1.168370485E0	8.202534676E0	1.826775908E0
3.864410221E0	1.256955862E0	8.032546997E0	1.972822189E0
3.866225767E0	1.364694953E0	7.900865555E0	2.121262789E0
3.868421221E0	1.434126854E0	7.762001991E0	2.236184359E0
3.869638844E0	1.558625340E0	7.642292023E0	2.336740971E0
3.872478567E0	1.716642618E0	7.560888767E0	2.463633537E0
3.874364074E0	1.891419291E0	7.481880188E0	2.580949545E0
3.876509952E0	2.035071373E0	7.388506413E0	2.655169725E0
3.877741536E0	2.250549555E0	7.307103634E0	2.710236311E0
3.880327767E0	2.489969730E0	7.247248650E0	2.794033289E0
3.882521382E0	2.743755102E0	7.180211067E0	2.853888512E0
3.884393036E0	3.002328873E0	7.110779285E0	2.865859509E0
3.885844574E0	3.229778051E0	7.019799232E0	2.861071110E0
3.888663221E0	3.394978046E0	6.914454460E0	2.829946518E0
3.890522690E0	3.608062029E0	6.823474884E0	2.820369720E0
3.892709375E0	3.837905407E0	6.722918510E0	2.844311714E0
3.893923805E0	4.096478939E0	6.612784863E0	2.829946518E0
3.896766721E0	4.355052948E0	6.497863293E0	2.796427488E0
3.898651267E0	4.563348293E0	6.375759125E0	2.755726099E0
3.900797875E0	4.742913723E0	6.215347767E0	2.705447912E0
3.902150690E0	4.958391666E0	6.050147533E0	2.662352324E0
3.904792913E0	5.190629482E0	5.884947777E0	2.609679937E0
3.906610767E0	5.394136429E0	5.722142220E0	2.545036316E0
3.908789913E0	5.597643375E0	5.552153587E0	2.473210335E0
3.910009190E0	5.791574001E0	5.394136429E0	2.394201756E0
3.912848029E0	5.966350555E0	5.252878666E0	2.319981337E0
3.914699882E0	6.110002518E0	5.102043629E0	2.250549555E0
3.916875067E0	6.239289761E0	4.946420670E0	2.188300371E0
3.918090228E0	6.351817131E0	4.805162907E0	2.130839586E0
3.920691151E0	6.493074894E0	4.630385876E0	2.039859772E0
3.922870113E0	6.576871872E0	4.522646904E0	1.977610588E0
3.924621959E0	6.636727333E0	4.402936935E0	1.908178806E0
3.926172228E0	6.720524311E0	4.290409565E0	1.857900500E0
3.929033683E0	6.797138691E0	4.192247391E0	1.819593310E0
3.930842074E0	6.835445881E0	4.125209332E0	1.781286120E0
3.933065836E0	6.880935669E0	4.070142746E0	1.750161409E0
3.934273305E0	6.955155849E0	4.019864559E0	1.728613615E0
3.937123990E0	7.034164429E0	4.000710964E0	1.726219416E0
3.938960574E0	7.105990410E0	4.010287762E0	1.747767210E0
3.941158036E0	7.144298077E0	4.017470360E0	1.762132406E0
3.942479267E0	7.158663273E0	4.036623955E0	1.786074519E0
3.945165836E0	7.161057472E0	4.053383350E0	1.807622313E0
3.946953844E0	7.165845871E0	4.110844135E0	1.824381709E0
3.949156420E0	7.146692276E0	4.175487995E0	1.824381709E0
3.950363497E0	7.127538681E0	4.240131378E0	1.850717902E0
3.953221298E0	7.132327080E0	4.338293552E0	1.896207690E0
3.955066690E0	7.146692276E0	4.426878929E0	1.936909199E0
3.957243574E0	7.163451672E0	4.472368717E0	1.977610588E0
3.958443382E0	7.192182064E0	4.515464306E0	2.035071373E0
3.961070074E0	7.196970463E0	4.560954094E0	2.082955360E0
3.963263497E0	7.194576263E0	4.592078686E0	2.118868589E0
3.965117805E0	7.228095055E0	4.625597477E0	2.149993181E0
3.966576459E0	7.266402245E0	4.671087742E0	2.185906172E0
3.969424529E0	7.331045628E0	4.699818134E0	2.243366957E0
3.971254382E0	7.431602001E0	4.721365929E0	2.293645144E0
3.973456105E0	7.563282967E0	4.740519524E0	2.360682964E0
3.974656497E0	7.697358608E0	4.728548527E0	2.427720547E0
3.977513259E0	7.807491779E0	4.702212334E0	2.487575531E0
3.979386690E0	7.905653954E0	4.671087742E0	2.530671120E0
3.981537113E0	7.972691536E0	4.642356873E0	2.571372509E0
3.982872882E0	8.003816605E0	4.620809078E0	2.602497339E0
3.985549798E0	8.015787125E0	4.627991676E0	2.621650934E0
3.987383844E0	8.025363922E0	4.625597477E0	2.655169725E0
3.989557690E0	8.015787125E0	4.616020679E0	2.676717520E0
3.990765997E0	8.015787125E0	4.625597477E0	2.700659513E0
3.993618221E0	8.042123795E0	4.630385876E0	2.762908697E0
3.995445767E0	8.066065788E0	4.630385876E0	2.815581083E0
3.997649298E0	8.090007782E0	4.627991676E0	2.853888512E0
3.998840113E0	8.116343498E0	4.616020679E0	2.889801502E0
4.001444920E0	8.109161377E0	4.599261284E0	2.916137695E0
4.003641420E0	8.090007782E0	4.589684486E0	2.947262287E0
4.005403420E0	8.056488991E0	4.582501888E0	2.985569477E0
4.006941151E0	7.994239330E0	4.563348293E0	3.016694069E0
4.009804644E0	7.924807549E0	4.532223701E0	3.035847664E0
4.011644497E0	7.855375767E0	4.501099110E0	3.059789658E0
4.013851028E0	7.757213593E0	4.489128113E0	3.083731890E0
4.015127997E0	7.623138428E0	4.501099110E0	3.090914488E0
4.017908644E0	7.407660007E0	4.553771496E0	3.086126089E0
4.019728613E0	7.268796444E0	4.592078686E0	3.074155092E0
4.021939528E0	7.137115479E0	4.627991676E0	3.059789658E0
4.023308036E0	7.010222435E0	4.661510944E0	3.050212860E0
4.025934490E0	6.888118267E0	4.702212334E0	3.035847664E0
4.027737690E0	6.773196697E0	4.738125324E0	3.016694069E0
4.029930798E0	6.672640324E0	4.778826714E0	3.004723072E0
4.031133305E0	6.564900875E0	4.821922302E0	2.987963676E0
4.033987951E0	6.466738701E0	4.867412090E0	2.975992680E0
4.035819844E0	6.373364925E0	4.910507679E0	2.978386879E0
4.038033451E0	6.287173748E0	4.948814869E0	2.980781078E0
4.039379344E0	6.196194172E0	4.999093056E0	2.971204281E0
4.041847651E0	6.095637321E0	5.056553841E0	2.956839085E0
4.044039190E0	5.992686749E0	5.106832027E0	2.952050686E0
4.045934190E0	5.896918774E0	5.147533417E0	2.952050686E0
4.047325343E0	5.813121796E0	5.183446884E0	2.944868088E0
4.050187374E0	5.724536419E0	5.207388878E0	2.947262287E0
4.052025151E0	5.645527840E0	5.238513470E0	2.966415882E0
4.054217721E0	5.566518784E0	5.279214859E0	3.004723072E0
4.055439151E0	5.499481201E0	5.303156853E0	3.055001259E0
4.058274144E0	5.432443619E0	5.317522049E0	3.114856482E0
4.060181690E0	5.365406036E0	5.339069843E0	3.174711466E0
4.062320028E0	5.305551052E0	5.372588634E0	3.234566450E0
4.063658920E0	5.245696068E0	5.391742229E0	3.308786631E0
4.066317759E0	5.195417881E0	5.406107426E0	3.380612850E0
4.068169959E0	5.159504890E0	5.422866821E0	3.450044632E0
4.070313451E0	5.137956619E0	5.430049419E0	3.543418407E0
4.071636074E0	5.111620426E0	5.442020416E0	3.641580820E0
4.074369759E0	5.090072632E0	5.458779812E0	3.730166197E0
4.076210305E0	5.063736439E0	5.465962410E0	3.799597979E0
4.078400259E0	5.037400246E0	5.463568211E0	3.861847401E0
4.079603036E0	5.020640850E0	5.470750809E0	3.921702385E0
4.082203536E0	5.013458252E0	5.473145008E0	3.979163170E0
4.084397113E0	5.027823448E0	5.451597214E0	4.041412354E0
4.086155036E0	5.054159641E0	5.420472622E0	4.101267338E0
4.087734613E0	5.090072632E0	5.420472622E0	4.165910721E0
4.090568528E0	5.123591423E0	5.453991413E0	4.225766182E0
4.092421805E0	5.152322292E0	5.434837818E0	4.292803764E0
4.094599336E0	5.188235283E0	5.403713226E0	4.367023945E0
4.095820305E0	5.238513470E0	5.394136429E0	4.436455727E0
4.098656374E0	5.298368454E0	5.413290024E0	4.486733913E0
4.100503151E0	5.363011837E0	5.470750809E0	4.527435303E0
4.102687220E0	5.439626217E0	5.525817394E0	4.570530891E0
4.104061497E0	5.521028996E0	5.516240597E0	4.616020679E0
4.106690951E0	5.619191170E0	5.497087002E0	4.685452938E0
4.108557651E0	5.743690014E0	5.497087002E0	4.757278919E0
4.110701490E0	5.884947777E0	5.544970989E0	4.814739704E0
4.111905959E0	6.014234543E0	5.633556366E0	4.845864296E0
4.114758797E0	6.136339188E0	5.671864033E0	4.857835293E0
4.116659497E0	6.260837555E0	5.671864033E0	4.867412090E0
4.118789767E0	6.380547523E0	5.702988625E0	4.869806290E0
4.119978536E0	6.485892296E0	5.765237808E0	4.836287498E0
4.122561920E0	6.562506676E0	5.829881191E0	4.771644115E0
4.124790151E0	6.639121532E0	5.858611584E0	4.707000732E0
4.126648382E0	6.720524311E0	5.870582581E0	4.572925091E0
4.128109843E0	6.770802498E0	5.892130375E0	4.441244125E0
4.130945566E0	6.813898087E0	5.944802761E0	4.285621166E0
4.132786767E0	6.818686485E0	5.968744755E0	4.115632534E0
4.134993297E0	6.830657482E0	5.949591160E0	3.952826977E0
4.136348190E0	6.880935669E0	5.951985359E0	3.778050184E0
4.139050489E0	6.952761650E0	5.978321552E0	3.579331636E0
4.140930805E0	6.991068840E0	5.973533154E0	3.380612850E0
4.143081220E0	6.995857239E0	5.925649166E0	3.193865061E0
4.144410228E0	6.981492043E0	5.884947777E0	3.019088268E0
4.147076489E0	6.955155849E0	5.834669590E0	2.880224705E0
4.148891767E0	6.916848660E0	5.774814606E0	2.767697096E0
4.151072220E0	6.873753071E0	5.700594425E0	2.669534922E0
4.152280382E0	6.830657482E0	5.616796970E0	2.568978310E0
4.155129489E0	6.768408298E0	5.521028996E0	2.461239338E0
4.156965420E0	6.701370716E0	5.437232018E0	2.370259762E0
4.159175182E0	6.634333134E0	5.351040840E0	2.315192938E0
4.160373959E0	6.586448669E0	5.264849663E0	2.284068346E0
4.162993997E0	6.552929878E0	5.195417881E0	2.243366957E0
4.165189766E0	6.536170483E0	5.152322292E0	2.178723574E0
4.166951382E0	6.538564682E0	5.133168221E0	2.085349798E0
4.168490113E0	6.564900875E0	5.135562420E0	1.977610588E0
4.171328566E0	6.612784863E0	5.164293289E0	1.855506301E0
4.173157459E0	6.689399719E0	5.233725071E0	1.721431017E0
4.175359259E0	6.799532890E0	5.351040840E0	1.594538331E0
4.176562459E0	6.952761650E0	5.494692802E0	1.482010841E0
4.179415374E0	7.173028469E0	5.643133640E0	1.400607944E0
4.181261613E0	7.457938194E0	5.820304394E0	1.340752959E0
4.183459989E0	7.793126583E0	6.069301128E0	1.276109457E0
4.184786343E0	8.173804283E0	6.356605530E0	1.173158884E0
4.187454989E0	8.580819130E0	6.684611320E0	1.027112484E0
4.189448720E0	9.014169693E0	7.048529625E0	8.403648138E-1
4.191449951E0	9.473855972E0	7.441178799E0	6.320692301E-1
4.192717074E0	9.926360130E0	7.864952564E0	4.261679053E-1
4.195507258E0	1.038125896E1	8.293514252E0	2.130839527E-1
4.197394728E0	1.079066753E1	8.726864815E0	2.394201607E-2
4.199538028E0	1.115697956E1	9.176975250E0	-1.699883193E-1
4.200798728E0	1.145146656E1	9.634267807E0	-3.854664862E-1
4.203432074E0	1.161187840E1	1.007719517E1	-6.248866320E-1
4.205545113E0	1.166694450E1	1.047463226E1	-8.116343617E-1
4.207416343E0	1.152808094E1	1.078587818E1	-9.385270476E-1
4.208927843E0	1.123838234E1	1.106360626E1	-1.022324085E0
4.211705682E0	1.127429581E1	1.139640045E1	-1.108515382E0
4.213530343E0	1.140597725E1	1.174595356E1	-1.247379065E0
4.215735681E0	1.122162342E1	1.202368069E1	-1.321599364E0
4.216988574E0	1.082658005E1	1.221521664E1	-1.276109457E0
4.219791951E0	1.041956615E1	1.238520527E1	-1.139639974E0
4.221692190E0	9.962273598E0	1.253604031E1	-9.361328483E-1
4.223821720E0	9.488221169E0	1.261983681E1	-7.062895298E-1
4.225259766E0	8.949525833E0	1.266772079E1	-5.147533417E-1
4.227825797E0	8.305485725E0	1.266772079E1	-4.094084799E-1
4.229629574E0	7.649474621E0	1.261504841E1	-3.184288144E-1
4.231835874E0	7.043741226E0	1.252167511E1	-1.651999205E-1
4.233035536E0	6.452373505E0	1.241154194E1	7.182605099E-3
4.235892835E0	5.442020416E0	1.227267838E1	1.939303428E-1
4.237728382E0	4.630385876E0	1.218648624E1	2.849099934E-1
4.239922758E0	3.790021181E0	1.206917095E1	4.189853072E-1
4.241151266E0	3.004723072E0	1.193509579E1	5.650315881E-1
