"Time (s)"	"Gyroscope x (rad/s)"	"Gyroscope y (rad/s)"	"Gyroscope z (rad/s)"
2.026123600E-2	-2.838929892E-1	3.685815036E-1	9.374327064E-1
2.155861600E-2	-2.838929892E-1	3.685815036E-1	9.374327064E-1
2.435377400E-2	-2.838929892E-1	3.685815036E-1	9.374327064E-1
2.569792300E-2	-2.838929892E-1	3.685815036E-1	9.374327064E-1
2.837623600E-2	-2.838929892E-1	3.685815036E-1	9.374327064E-1
3.020323100E-2	-2.838929892E-1	3.685815036E-1	9.374327064E-1
3.239415900E-2	-2.838929892E-1	3.685815036E-1	9.374327064E-1
3.364888500E-2	-2.838929892E-1	3.685815036E-1	9.374327064E-1
3.645150500E-2	-2.838929892E-1	3.685815036E-1	9.374327064E-1
3.832107700E-2	-2.838929892E-1	3.685815036E-1	9.374327064E-1
4.049719700E-2	-2.838929892E-1	3.685815036E-1	9.374327064E-1
4.172869300E-2	-2.838929892E-1	3.685815036E-1	9.374327064E-1
4.438750000E-2	-2.838929892E-1	3.685815036E-1	9.374327064E-1
4.654703900E-2	-2.838929892E-1	3.685815036E-1	9.374327064E-1
4.837334600E-2	-2.838929892E-1	3.685815036E-1	9.374327064E-1
4.982665400E-2	-2.838929892E-1	3.685815036E-1	9.374327064E-1
5.265469700E-2	-5.848301649E-1	-6.977482140E-2	4.506068528E-1
5.452000000E-2	-5.560680628E-1	-6.604639441E-2	4.234426320E-1
5.668708200E-2	-5.246427655E-1	-6.231797114E-2	3.962783813E-1
5.793046200E-2	-4.958806038E-1	-6.231797114E-2	3.723099232E-1
6.074546700E-2	-4.639226794E-1	-6.231797114E-2	3.424825370E-1
6.264196200E-2	-4.308994710E-1	-6.657902896E-2	3.169161677E-1
6.479246700E-2	-3.989415467E-1	-6.817692518E-2	2.849582434E-1
6.622876900E-2	-3.659183383E-1	-7.989483327E-2	2.599245310E-1
6.878615900E-2	-3.323625028E-1	-8.894958347E-2	2.316950262E-1
7.065896200E-2	-3.014698327E-1	-1.001348570E-1	2.039981484E-1
7.278327400E-2	-2.716424465E-1	-1.118527651E-1	1.741707325E-1
7.405034600E-2	-2.423476577E-1	-1.283643693E-1	1.427454352E-1
7.684015900E-2	-2.167813182E-1	-1.379517466E-1	1.086569726E-1
7.871480800E-2	-1.906823367E-1	-1.549959779E-1	7.829693705E-2
8.087027400E-2	-1.661812514E-1	-1.688444167E-1	4.420847446E-2
8.213600000E-2	-1.432780623E-1	-1.890844405E-1	1.331580617E-2
8.471392300E-2	-1.198422536E-1	-2.087918371E-1	-2.396845073E-2
8.695581300E-2	-9.587380290E-2	-2.354234457E-1	-5.699164793E-2
8.898246600E-2	-6.924218684E-2	-2.641855776E-1	-8.948221803E-2
9.023630800E-2	-4.207794741E-2	-2.966761589E-1	-1.235706806E-1
9.303915900E-2	-1.331580617E-2	-3.281014562E-1	-1.613875628E-1
9.498850000E-2	1.810949668E-2	-3.542004228E-1	-1.992044598E-1
9.706912000E-2	4.314320907E-2	-3.728425503E-1	-2.402171344E-1
9.834353900E-2	7.030745596E-2	-3.802994192E-1	-2.801645398E-1
1.011251970E-1	9.161274135E-2	-3.787015080E-1	-3.206445873E-1
1.030242310E-1	1.113201380E-1	-3.733751774E-1	-3.914846778E-1
1.051558510E-1	1.102548689E-1	-4.063983858E-1	-4.340952635E-1
1.066002690E-1	1.225054115E-1	-4.857605994E-1	-4.761732221E-1
1.091596970E-1	1.432780623E-1	-6.029396653E-1	-4.964132309E-1
1.110324230E-1	1.693770438E-1	-7.110640407E-1	-5.091964006E-1
1.131698890E-1	1.784317940E-1	-7.739146352E-1	-5.155879855E-1
1.144849230E-1	1.608549356E-1	-8.005462289E-1	-5.113269091E-1
1.172266970E-1	1.182443574E-1	-8.058725595E-1	-4.889563918E-1
1.191564620E-1	5.912217870E-2	-7.973504663E-1	-4.649879336E-1
1.212575820E-1	-6.924218964E-3	-8.245146871E-1	-4.229099751E-1
1.225062690E-1	-7.936219871E-2	-8.996158242E-1	-3.712446690E-1
1.251528080E-1	-1.619201899E-1	-9.997506738E-1	-3.115898669E-1
1.273440430E-1	-2.508697808E-1	-1.117462397E0	-2.423476577E-1
1.291556540E-1	-3.520699143E-1	-1.251685739E0	-1.709749401E-1
1.307203850E-1	-4.601942301E-1	-1.389637470E0	-9.321063757E-2
1.334146970E-1	-5.800365210E-1	-1.523328185E0	-2.024002373E-2
1.354434280E-1	-7.084008455E-1	-1.645833611E0	5.219795927E-2
1.374603890E-1	-8.410263062E-1	-1.748631597E0	1.171790883E-1
1.387132690E-1	-9.773801565E-1	-1.839711666E0	1.800296903E-1
1.415164660E-1	-1.114799261E0	-1.914280176E0	2.391518652E-1
1.434577690E-1	-1.252218366E0	-1.971804500E0	2.924150825E-1
1.455474660E-1	-1.394963861E0	-2.012817144E0	3.360909224E-1
1.470573460E-1	-1.542502880E0	-2.032524586E0	3.818973005E-1
1.495406970E-1	-1.693770528E0	-2.035187721E0	4.159857631E-1
1.514750770E-1	-1.844505429E0	-2.013882399E0	4.538026452E-1
1.535365820E-1	-1.996838212E0	-1.981924534E0	4.910869002E-1
1.547979230E-1	-2.148105860E0	-1.948901296E0	5.299690962E-1
1.575931970E-1	-2.298840761E0	-1.949966550E0	5.885586143E-1
1.595809230E-1	-2.445847273E0	-1.988316059E0	6.631271243E-1
1.616382740E-1	-2.592321157E0	-2.027730942E0	7.451524734E-1
1.629433850E-1	-2.731338024E0	-2.060754061E0	8.239820600E-1
1.655565770E-1	-2.863963604E0	-2.093777180E0	9.102684855E-1
1.677236200E-1	-2.982740402E0	-2.115615129E0	9.912285805E-1
1.697350050E-1	-3.084473133E0	-2.125202656E0	1.076982379E0
1.711704230E-1	-3.165433407E0	-2.107093096E0	1.166464567E0
1.737913510E-1	-3.225088120E0	-2.053297281E0	1.255414128E0
1.757543460E-1	-3.261839867E0	-1.972869754E0	1.345961690E0
1.778214280E-1	-3.279949188E0	-1.853560209E0	1.438107014E0
1.790880390E-1	-3.276220798E0	-1.706021070E0	1.528121829E0
1.818779280E-1	-3.253317595E0	-1.533448219E0	1.614408255E0
1.837725000E-1	-3.214435577E0	-1.342765808E0	1.700694680E0
1.859232350E-1	-3.163302898E0	-1.144093990E0	1.780589581E0
1.875715000E-1	-3.105245829E0	-9.411611557E-1	1.853027463E0
1.899166970E-1	-3.043460608E0	-7.440872192E-1	1.924932837E0
1.918141150E-1	-2.973685741E0	-5.512743592E-1	1.986718178E0
1.939125810E-1	-2.905508757E0	-3.621899188E-1	2.053297281E0
1.951727310E-1	-2.837331772E0	-1.794970632E-1	2.106560469E0
1.979697350E-1	-2.769687653E0	-2.130528912E-3	2.159291029E0
1.998295390E-1	-2.704173803E0	1.725728363E-1	2.205097437E0
2.020006200E-1	-2.641323328E0	3.366235793E-1	2.244512320E0
2.034613460E-1	-2.584864140E0	5.049353242E-1	2.278068066E0
2.058461150E-1	-2.524676800E0	6.620618701E-1	2.310025930E0
2.080870810E-1	-2.471413612E0	8.149272799E-1	2.332929134E0
2.098618460E-1	-2.394714594E0	1.035437107E0	2.364354372E0
2.115140770E-1	-2.367550135E0	1.104146600E0	2.372876644E0
2.141689660E-1	-2.292448997E0	1.308144808E0	2.392584085E0
2.161981580E-1	-2.242381573E0	1.434911251E0	2.403769255E0
2.181995040E-1	-2.186987877E0	1.553155541E0	2.415487051E0
2.197125770E-1	-2.134257317E0	1.664475679E0	2.422944069E0
2.222558120E-1	-2.073537350E0	1.764077902E0	2.431998730E0
2.241393460E-1	-2.008023500E0	1.856755972E0	2.443184137E0
2.262856580E-1	-1.941444516E0	1.935585499E0	2.450108290E0
2.277006540E-1	-1.867408633E0	2.010154009E0	2.458630323E0
2.302885810E-1	-1.791242242E0	2.079928875E0	2.465021849E0
2.321590390E-1	-1.718271613E0	2.156627893E0	2.469283104E0
2.342986580E-1	-1.643170476E0	2.234392166E0	2.471946239E0
2.356494230E-1	-1.565406084E0	2.307362795E0	2.470348358E0
2.383553120E-1	-1.479119658E0	2.365952253E0	2.470348358E0
2.402671540E-1	-1.396561742E0	2.416019678E0	2.466619730E0
2.423854660E-1	-1.306014180E0	2.448510408E0	2.462891340E0
2.437191150E-1	-1.224521518E0	2.459695578E0	2.436259747E0
2.462782690E-1	-1.143561363E0	2.444782019E0	2.393649340E0
2.484705430E-1	-1.075384498E0	2.403769255E0	2.318015575E0
2.504814660E-1	-1.026382327E0	2.334527016E0	2.196575403E0
2.519995770E-1	-1.000815988E0	2.234924793E0	2.022937298E0
2.545380430E-1	-1.013066530E0	2.100168943E0	1.773132682E0
2.565663500E-1	-1.071123362E0	1.921204448E0	1.449824929E0
2.585828120E-1	-1.173921466E0	1.683117867E0	1.067927599E0
2.598352690E-1	-1.304416299E0	1.412540674E0	6.450176239E-1
2.626387350E-1	-1.440770149E0	1.148355126E0	2.082591951E-1
2.646465390E-1	-1.555286050E0	9.315737486E-1	-2.082591951E-1
2.666681580E-1	-1.636246204E0	7.973504663E-1	-5.773733258E-1
2.681130770E-1	-1.676193595E0	7.339671850E-1	-8.751147389E-1
2.706611970E-1	-1.682585239E0	7.488809228E-1	-1.102548718E0
2.725385390E-1	-1.658084154E0	9.571400881E-1	-1.256479383E0
2.746566970E-1	-1.562210321E0	1.513208151E0	-1.338504791E0
2.760705770E-1	-1.453553319E0	2.013882399E0	-1.386441708E0
2.787129270E-1	-1.377919555E0	2.169411182E0	-1.390702724E0
2.806204230E-1	-1.311873198E0	2.055960417E0	-1.359277487E0
2.827367350E-1	-1.255414128E0	1.822667480E0	-1.304416299E0
2.839912690E-1	-1.196824670E0	1.560079813E0	-1.244228840E0
2.866485770E-1	-1.140365601E0	1.312405825E0	-1.170725584E0
2.888206580E-1	-1.080710769E0	1.100418210E0	-1.088700294E0
2.906216150E-1	-1.006674886E0	9.289106131E-1	-9.938917160E-1
2.922346920E-1	-8.996158242E-1	8.261125684E-1	-8.980179429E-1
2.948881960E-1	-7.819041014E-1	7.201187611E-1	-7.984157205E-1
2.969168500E-1	-6.535397172E-1	5.832322836E-1	-6.876282096E-1
2.989179270E-1	-5.241101384E-1	4.218447208E-1	-5.704491138E-1
3.001983460E-1	-4.058657587E-1	2.460760921E-1	-4.506068528E-1
3.029747350E-1	-2.908172011E-1	5.379585549E-2	-3.291667104E-1
3.048868080E-1	-1.826928556E-1	-1.704423130E-1	-2.050634027E-1
3.070197730E-1	-8.309062570E-2	-4.319647253E-1	-8.575379103E-2
3.085379230E-1	-1.597896684E-3	-7.339671850E-1	2.929477207E-2
3.110125040E-1	7.084008306E-2	-1.071655989E0	1.379517466E-1
3.129094230E-1	1.272991002E-1	-1.436509132E0	2.434129268E-1
3.150072350E-1	1.805623323E-1	-1.820536971E0	3.366235793E-1
3.163176540E-1	2.258360684E-1	-2.217347860E0	4.271710515E-1
3.190636580E-1	2.679139972E-1	-2.617887497E0	5.022721887E-1
3.209975000E-1	3.105245829E-1	-3.013633251E0	5.736449361E-1
3.230944270E-1	3.616572917E-1	-3.389138937E0	6.348975897E-1
3.243894620E-1	4.170510471E-1	-3.734817266E0	6.902913451E-1
3.269771540E-1	5.113269091E-1	-4.197142124E0	7.456851006E-1
3.291787730E-1	5.784385800E-1	-4.470914841E0	7.632619739E-1
3.312057730E-1	6.636597514E-1	-4.715393066E0	7.717841268E-1
3.325474230E-1	7.600662112E-1	-4.932174206E0	7.792409658E-1
3.352623500E-1	8.665926456E-1	-5.119660854E0	7.819041014E-1
3.372672310E-1	9.784454107E-1	-5.274124146E0	7.749798894E-1
3.392923500E-1	1.094559193E0	-5.386509895E0	7.627293468E-1
3.405731540E-1	1.203748822E0	-5.446697235E0	7.398261428E-1
3.433484650E-1	1.312938452E0	-5.446164608E0	7.158577442E-1
3.452509230E-1	1.417334318E0	-5.408880234E0	6.876282096E-1
3.473788890E-1	1.513208151E0	-5.353486538E0	6.524744630E-1
3.487858850E-1	1.606418848E0	-5.308745384E0	6.194512844E-1
3.513827350E-1	1.694303155E0	-5.277852535E0	5.874933600E-1
3.533089230E-1	1.773132682E0	-5.277852535E0	5.534048676E-1
3.553939650E-1	1.855158091E0	-5.251221180E0	5.209143162E-1
3.566126920E-1	1.922269702E0	-5.234177113E0	4.878911078E-1
3.594518120E-1	1.979261398E0	-5.235774994E0	4.506068528E-1
3.613276540E-1	2.031991959E0	-5.262406349E0	4.106594622E-1
3.634832730E-1	2.086853027E0	-5.304484367E0	3.685815036E-1
3.647804230E-1	2.142779350E0	-5.356149673E0	3.281014562E-1
3.675402730E-1	2.197640657E0	-5.404086590E0	2.854908705E-1
3.695693880E-1	2.250371218E0	-5.453088760E0	2.439455539E-1
3.715841580E-1	2.301503897E0	-5.507949829E0	2.055960447E-1
3.728205770E-1	2.346245050E0	-5.571865559E0	1.661812514E-1
3.756406190E-1	2.384594440E0	-5.643771172E0	1.288969964E-1
3.775623850E-1	2.418150425E0	-5.721002579E0	9.693906456E-2
3.796858120E-1	2.443716764E0	-5.796103954E0	6.977482140E-2
3.810168080E-1	2.459695578E0	-5.865878582E0	3.781688958E-2
3.837427730E-1	2.467152596E0	-5.926066399E0	1.757686399E-2
3.856173850E-1	2.468750477E0	-5.987851620E0	-1.065264456E-3
3.877742730E-1	2.459162951E0	-6.046441078E0	-1.704423130E-2
3.891754610E-1	2.442118883E0	-6.110889435E0	-2.343581803E-2
3.917682730E-1	2.419748306E0	-6.184392929E0	-2.556634694E-2
3.936097310E-1	2.392584085E0	-6.261624336E0	-1.438106969E-2
3.957639650E-1	2.361691236E0	-6.342584610E0	-1.597896684E-3
3.971024610E-1	2.328668118E0	-6.426208019E0	1.970739290E-2
3.998205420E-1	2.291383743E0	-6.507700443E0	4.367584363E-2
4.016965000E-1	2.257295370E0	-6.579606056E0	7.030745596E-2
4.038658500E-1	2.226935387E0	-6.633401871E0	9.960222989E-2
4.051290380E-1	2.202434301E0	-6.668555260E0	1.235706806E-1
4.077612310E-1	2.183259487E0	-6.682404041E0	1.480717659E-1
4.099516960E-1	2.174204826E0	-6.691458702E0	1.656486243E-1
4.119633110E-1	2.163552046E0	-6.687730312E0	1.752360016E-1
4.133177690E-1	2.161421537E0	-6.677077770E0	1.810949594E-1
4.160208880E-1	2.158758402E0	-6.656304836E0	1.842907518E-1
4.179116150E-1	2.160356283E0	-6.624879837E0	1.805623323E-1
4.200511960E-1	2.160888910E0	-6.584932327E0	1.747033745E-1
4.213511150E-1	2.165682554E0	-6.537528038E0	1.672465205E-1
4.241083110E-1	2.158225775E0	-6.467752934E0	1.533980817E-1
4.261370810E-1	2.152899504E0	-6.418218136E0	1.443433315E-1
4.281554650E-1	2.140116215E0	-6.371879578E0	1.347559541E-1
4.295334610E-1	2.131594181E0	-6.340454102E0	1.304948926E-1
4.321490040E-1	2.111354113E0	-6.360693932E0	1.283643693E-1
4.340076150E-1	2.096440554E0	-6.370813847E0	1.278317273E-1
4.361446960E-1	2.081526756E0	-6.365487576E0	1.219727769E-1
4.374031540E-1	2.065015078E0	-6.357498169E0	9.906959534E-2
4.402012730E-1	2.048503637E0	-6.358563423E0	7.243798673E-2
4.420824230E-1	2.028263569E0	-6.363889694E0	4.580637068E-2
4.442313500E-1	2.004827738E0	-6.366552830E0	9.054748341E-3
4.454916540E-1	1.978728771E0	-6.362824440E0	-2.769687586E-2
4.480694230E-1	1.959553957E0	-6.343649864E0	-7.776430249E-2
4.502976920E-1	1.937716007E0	-6.298908710E0	-1.299622655E-1
4.522625770E-1	1.909486532E0	-6.221144199E0	-1.938781291E-1
4.537385380E-1	1.882322311E0	-6.110356808E0	-2.673813701E-1
4.563997730E-1	1.846103311E0	-5.971339703E0	-3.440804183E-1
4.583089230E-1	1.812547445E0	-5.811017513E0	-4.266384244E-1
4.604301190E-1	1.777393699E0	-5.646966934E0	-5.097290277E-1
4.616836920E-1	1.747033715E0	-5.488775253E0	-5.917543769E-1
4.644863110E-1	1.717206359E0	-5.341236115E0	-6.737797856E-1
4.663731540E-1	1.688976765E0	-5.204349518E0	-7.515440583E-1
4.685177730E-1	1.668204188E0	-5.082376957E0	-8.255799413E-1
4.699103460E-1	1.645833611E0	-4.969458580E0	-8.889631629E-1
4.725203880E-1	1.632517815E0	-4.874117374E0	-9.416937828E-1
4.743815000E-1	1.625060916E0	-4.792624950E0	-9.864348769E-1
4.765315800E-1	1.621865153E0	-4.722849846E0	-1.024251819E0
4.778091150E-1	1.624528289E0	-4.666390896E0	-1.052481294E0
4.805895420E-1	1.635713577E0	-4.617921352E0	-1.070058107E0
4.824626150E-1	1.648496747E0	-4.569984436E0	-1.087102413E0
4.846208500E-1	1.663410425E0	-4.532167435E0	-1.101483464E0
4.858976540E-1	1.680987358E0	-4.493818283E0	-1.118527651E0
4.884542690E-1	1.703357816E0	-4.463990688E0	-1.136637211E0
4.907071190E-1	1.719869494E0	-4.433097839E0	-1.160073042E0
4.927094610E-1	1.744903207E0	-4.403270721E0	-1.186172009E0
4.942095000E-1	1.765675783E0	-4.368649483E0	-1.211205721E0
4.967752730E-1	1.783785343E0	-4.334560871E0	-1.234641552E0
4.987357310E-1	1.804558039E0	-4.306864262E0	-1.261805773E0
5.008204260E-1	1.823200107E0	-4.277569294E0	-1.282045722E0
5.020897690E-1	1.842907548E0	-4.259992599E0	-1.302818418E0
5.048775420E-1	1.856223345E0	-4.249872684E0	-1.315068960E0
5.069063490E-1	1.864745378E0	-4.250405312E0	-1.329450011E0
5.089082730E-1	1.874332786E0	-4.259992599E0	-1.339037418E0
5.105917310E-1	1.879659176E0	-4.278101921E0	-1.348624825E0
5.129013490E-1	1.879659176E0	-4.299407482E0	-1.357679605E0
5.148093840E-1	1.876995921E0	-4.323375702E0	-1.365669012E0
5.168975030E-1	1.867408633E0	-4.345213890E0	-1.374723792E0
5.182294610E-1	1.854092836E0	-4.365453720E0	-1.377919555E0
5.209540030E-1	1.833852768E0	-4.380367279E0	-1.390170097E0
5.229828880E-1	1.803492665E0	-4.389955044E0	-1.398159623E0
5.249986570E-1	1.767273784E0	-4.390487671E0	-1.410942793E0
5.263014610E-1	1.725728393E0	-4.380367279E0	-1.418399572E0
5.289438080E-1	1.680987358E0	-4.360660076E0	-1.433313370E0
5.310732310E-1	1.623995662E0	-4.332962990E0	-1.441835403E0
5.328510000E-1	1.531850338E0	-4.287689209E0	-1.456749201E0
5.343980000E-1	1.496163964E0	-4.273840904E0	-1.462075472E0
5.371433110E-1	1.388572216E0	-4.242415905E0	-1.467401743E0
5.391571920E-1	1.308677435E0	-4.229099751E0	-1.468466997E0
5.411740800E-1	1.231978297E0	-4.225371361E0	-1.464738607E0
5.424528840E-1	1.150485635E0	-4.223240852E0	-1.465803862E0
5.452310030E-1	1.065264463E0	-4.223240852E0	-1.454618573E0
5.472599260E-1	9.795106649E-1	-4.223240852E0	-1.445031285E0
5.492766190E-1	8.953547478E-1	-4.220045090E0	-1.430650115E0
5.506778460E-1	8.080030680E-1	-4.210990429E0	-1.414138556E0
5.532698110E-1	7.217166424E-1	-4.193413734E0	-1.398692250E0
5.551238840E-1	6.348975897E-1	-4.166781902E0	-1.375789046E0
5.572653880E-1	5.491438508E-1	-4.124703884E0	-1.354483724E0
5.585382690E-1	4.596616030E-1	-4.068777561E0	-1.329450011E0
5.613218880E-1	3.755057156E-1	-3.993143797E0	-1.305481553E0
5.633506190E-1	2.892192900E-1	-3.903128862E0	-1.272991061E0
5.653525800E-1	2.029328793E-1	-3.796069860E0	-1.239967823E0
5.666701150E-1	1.171790883E-1	-3.674097061E0	-1.208009839E0
5.692663840E-1	2.929477207E-2	-3.543069601E0	-1.172856212E0
5.714380800E-1	-5.699164793E-2	-3.408846378E0	-1.134506702E0
5.734641180E-1	-1.438107044E-1	-3.280481815E0	-1.097755075E0
5.747781540E-1	-2.316950262E-1	-3.152117491E0	-1.051948667E0
5.775210030E-1	-3.206445873E-1	-3.023220539E0	-1.005077004E0
5.795496950E-1	-4.085289240E-1	-2.893790960E0	-9.560748339E-1
5.815508880E-1	-4.990763962E-1	-2.772350788E0	-9.060074091E-1
5.828281540E-1	-5.890912414E-1	-2.647714853E0	-8.522115946E-1
5.856080410E-1	-6.791061163E-1	-2.532666206E0	-8.021441102E-1
5.876366950E-1	-7.707188129E-1	-2.420280933E0	-7.483482957E-1
5.896387340E-1	-8.612663150E-1	-2.328135490E0	-6.902913451E-1
5.910846540E-1	-9.560748339E-1	-2.261023760E0	-6.370281577E-1
5.936416570E-1	-1.048752904E0	-2.212021589E0	-5.800365210E-1
5.956354650E-1	-1.145691872E0	-2.182726860E0	-5.267732739E-1
5.976515030E-1	-1.240500450E0	-2.165149927E0	-4.729774296E-1
5.989418840E-1	-1.339570045E0	-2.152366877E0	-4.165183902E-1
6.017083110E-1	-1.437041759E0	-2.155562639E0	-3.643204570E-1
6.036780380E-1	-1.538241863E0	-2.174204826E0	-3.153182864E-1
6.057388110E-1	-1.637844086E0	-2.195510149E0	-2.759034932E-1
6.070700380E-1	-1.736913681E0	-2.224272251E0	-2.364887148E-1
6.096197690E-1	-1.835450649E0	-2.251969099E0	-1.997370869E-1
6.118247340E-1	-1.928128719E0	-2.278068066E0	-1.645833552E-1
6.138395800E-1	-2.025600433E0	-2.305232286E0	-1.374191195E-1
6.155592310E-1	-2.116147757E0	-2.329733372E0	-1.113201380E-1
6.178970030E-1	-2.206162691E0	-2.347310305E0	-8.202536404E-2
6.198020000E-1	-2.294047117E0	-2.373409271E0	-5.486112088E-2
6.219429260E-1	-2.377137661E0	-2.400573492E0	-3.408846259E-2
6.236353840E-1	-2.458630323E0	-2.428270340E0	-1.438106969E-2
6.259999640E-1	-2.535861969E0	-2.457032442E0	-1.065264456E-3
6.279549610E-1	-2.612028360E0	-2.484196663E0	8.522115648E-3
6.300311950E-1	-2.678607464E0	-2.510295630E0	1.704423130E-2
6.315377690E-1	-2.743588686E0	-2.538525105E0	2.077265643E-2
6.340238870E-1	-2.787796974E0	-2.620550632E0	2.663161233E-2
6.360043460E-1	-2.812830687E0	-2.752643347E0	3.142530099E-2
6.380198110E-1	-2.833603382E0	-2.860767603E0	3.249056637E-2
6.394562690E-1	-2.861300230E0	-2.890062571E0	2.556634694E-2
6.420768490E-1	-2.920422554E0	-2.792590857E0	2.663161233E-2
6.439791540E-1	-2.964098454E0	-2.696184397E0	3.142530099E-2
6.461228490E-1	-2.999252081E0	-2.611495733E0	4.314320907E-2
6.475680380E-1	-3.026948929E0	-2.533198833E0	5.539375171E-2
6.500155000E-1	-3.046656370E0	-2.444249392E0	6.870955974E-2
6.522090410E-1	-3.059972048E0	-2.339320660E0	8.096009493E-2
6.542203100E-1	-3.067961693E0	-2.222141743E0	9.480853379E-2
6.559344230E-1	-3.071690083E0	-2.107625723E0	1.161138266E-1
6.582770800E-1	-3.063168049E0	-1.997370839E0	1.432780623E-1
6.601952310E-1	-3.045591116E0	-1.905225515E0	1.741707325E-1
6.623076570E-1	-3.020024776E0	-1.833320141E0	2.087918371E-1
6.636500000E-1	-2.984870911E0	-1.774730563E0	2.439455539E-1
6.663650800E-1	-2.947054148E0	-1.723065257E0	2.817624509E-1
6.683548840E-1	-2.906041384E0	-1.670867324E0	3.265035450E-1
6.704113870E-1	-2.860234976E0	-1.616538763E0	3.728425503E-1
6.718211540E-1	-2.815494061E0	-1.565406084E0	4.229099751E-1
6.744049640E-1	-2.770752907E0	-1.516403913E0	4.756405652E-1
6.762556150E-1	-2.724946499E0	-1.471662879E0	5.358279943E-1
6.784011570E-1	-2.680205345E0	-1.441302776E0	5.992112756E-1
6.796301150E-1	-2.635996819E0	-1.417334318E0	6.663229465E-1
6.824587720E-1	-2.589657784E0	-1.401355386E0	7.339671850E-1
6.843650000E-1	-2.548112631E0	-1.392300606E0	8.037420511E-1
6.865058100E-1	-2.502306223E0	-1.390170097E0	8.697884083E-1
6.877910380E-1	-2.462358713E0	-1.396561742E0	9.331716895E-1
6.903444230E-1	-2.424009323E0	-1.410942793E0	9.981527925E-1
6.925923490E-1	-2.386192322E0	-1.428519607E0	1.056209683E0
6.943878460E-1	-2.353169203E0	-1.443965912E0	1.112136126E0
6.959476920E-1	-2.316417456E0	-1.459412336E0	1.164334059E0
6.986776560E-1	-2.283926964E0	-1.472195506E0	1.211205721E0
7.007069640E-1	-2.250371218E0	-1.485511303E0	1.255414128E0
7.027092330E-1	-2.213086843E0	-1.493500710E0	1.294828892E0
7.039633070E-1	-2.178465843E0	-1.500424981E0	1.329982638E0
7.067669260E-1	-2.140648842E0	-1.506816626E0	1.363538504E0
7.086536150E-1	-2.102832079E0	-1.513740778E0	1.394963861E0
7.107987720E-1	-2.063949823E0	-1.521197677E0	1.418399572E0
7.122737300E-1	-2.028263569E0	-1.523328185E0	1.442368031E0
7.148033870E-1	-1.989381313E0	-1.518001795E0	1.463673353E0
7.167115000E-1	-1.951031804E0	-1.510545015E0	1.489239693E0
7.188165790E-1	-1.916943431E0	-1.495631337E0	1.511077642E0
7.200632690E-1	-1.882322311E0	-1.474326015E0	1.533448219E0
7.228740030E-1	-1.850364327E0	-1.450890183E0	1.554220796E0
7.247970770E-1	-1.820536971E0	-1.419997573E0	1.575526118E0
7.269050410E-1	-1.790709496E0	-1.382713318E0	1.590439796E0
7.282441150E-1	-1.759284258E0	-1.337439537E0	1.598429322E0
7.307495380E-1	-1.725728393E0	-1.280980468E0	1.598961949E0
7.329904260E-1	-1.689509392E0	-1.221858382E0	1.593103051E0
7.350018100E-1	-1.647431493E0	-1.155811906E0	1.579254508E0
7.363013460E-1	-1.606951475E0	-1.088167667E0	1.560079813E0
7.390591950E-1	-1.562742949E0	-1.026914954E0	1.531850338E0
7.409891540E-1	-1.484446049E0	-9.294432402E-1	1.476989150E0
7.431049260E-1	-1.431182742E0	-8.665926456E-1	1.434378624E0
7.444361150E-1	-1.374723792E0	-8.042746782E-1	1.385909081E0
7.471623490E-1	-1.316134214E0	-7.360977530E-1	1.330515265E0
7.490939610E-1	-1.252218366E0	-6.657902598E-1	1.277784705E0
7.511933100E-1	-1.192563534E0	-5.880259871E-1	1.220260382E0
7.526070000E-1	-1.132376075E0	-5.118595958E-1	1.166464567E0
7.551875790E-1	-1.070590734E0	-4.372910559E-1	1.116929770E0
7.570834610E-1	-1.013599157E0	-3.776362538E-1	1.068992853E0
7.591840020E-1	-9.603359103E-1	-3.270362020E-1	1.029045463E0
7.604307690E-1	-9.092032313E-1	-2.876214087E-1	9.997506738E-1
7.632421560E-1	-8.644620776E-1	-2.577939928E-1	9.693906307E-1
7.651434230E-1	-8.197209835E-1	-2.354234457E-1	9.486179948E-1
7.672886950E-1	-7.776430249E-1	-2.258360684E-1	9.374327064E-1
7.685732300E-1	-7.360977530E-1	-2.141181529E-1	9.342369437E-1
7.711255000E-1	-7.004113793E-1	-2.071939409E-1	9.321063757E-1
7.733292300E-1	-6.647250056E-1	-2.050634027E-1	9.363674521E-1
7.753864640E-1	-6.327670813E-1	-2.055960447E-1	9.496832490E-1
7.766469230E-1	-6.018744111E-1	-2.093244642E-1	9.677927494E-1
7.794438870E-1	-5.704491138E-1	-2.183792144E-1	9.859022498E-1
7.813489610E-1	-5.438175201E-1	-2.295644879E-1	1.007740140E0
7.834747330E-1	-5.225121975E-1	-2.428802997E-1	1.037034988E0
7.848626920E-1	-5.033374429E-1	-2.631203234E-1	1.066862345E0
7.875324640E-1	-4.873584807E-1	-2.844256163E-1	1.097755075E0
7.894327690E-1	-4.756405652E-1	-3.062635362E-1	1.131310821E0
7.915781180E-1	-4.681837261E-1	-3.371562064E-1	1.169127703E0
7.929565000E-1	-4.676510990E-1	-3.723099232E-1	1.202150941E0
7.955726180E-1	-4.692489803E-1	-4.111920893E-1	1.241033077E0
7.974926150E-1	-4.708468914E-1	-4.532700181E-1	1.270860553E0
7.995700410E-1	-4.772384763E-1	-4.958806038E-1	1.296426892E0
8.008356540E-1	-4.836300611E-1	-5.400890708E-1	1.319862604E0
8.036282330E-1	-4.873584807E-1	-5.890912414E-1	1.334776402E0
8.054966150E-1	-4.964132309E-1	-6.380934119E-1	1.348624825E0
8.076597330E-1	-4.985437691E-1	-6.828345060E-1	1.355548978E0
8.089499230E-1	-5.028048158E-1	-7.243798375E-1	1.360875368E0
8.116198840E-1	-5.033374429E-1	-7.531419992E-1	1.360342741E0
8.137478870E-1	-5.033374429E-1	-7.707188129E-1	1.357146859E0
8.157648070E-1	-5.022721887E-1	-7.803062201E-1	1.351287961E0
8.171703840E-1	-5.017395616E-1	-7.723167539E-1	1.341700554E0
8.198326560E-1	-4.969458580E-1	-7.595335841E-1	1.333178520E0
8.217045000E-1	-4.921521842E-1	-7.355651259E-1	1.320927978E0
8.238645790E-1	-4.905542731E-1	-7.062703371E-1	1.309742689E0
8.251337300E-1	-4.841626883E-1	-6.689860821E-1	1.301753163E0
8.279225020E-1	-4.820321798E-1	-6.247776151E-1	1.291100502E0
8.298115380E-1	-4.793690145E-1	-5.757754445E-1	1.281513095E0
8.319543870E-1	-4.788363874E-1	-5.193164349E-1	1.271393180E0
8.333602300E-1	-4.767058492E-1	-4.665858448E-1	1.261273146E0
8.359585410E-1	-4.777711034E-1	-4.079962969E-1	1.255946755E0
8.378118460E-1	-4.751079381E-1	-3.568635881E-1	1.251685739E0
8.399693100E-1	-4.767058492E-1	-3.062635362E-1	1.249555230E0
8.412231920E-1	-4.745753109E-1	-2.673813701E-1	1.247424722E0
8.440268870E-1	-4.767058492E-1	-2.402171344E-1	1.252218366E0
8.458932300E-1	-4.836300611E-1	-2.199771106E-1	1.261273146E0
8.480579640E-1	-4.900216460E-1	-2.173139453E-1	1.268729925E0
8.493119610E-1	-4.937500656E-1	-2.205097377E-1	1.276186824E0
8.519443460E-1	-5.070658922E-1	-2.364887148E-1	1.293763638E0
8.541446940E-1	-5.187838078E-1	-2.487392575E-1	1.303351045E0
8.560548070E-1	-5.342301130E-1	-2.636529505E-1	1.316666842E0
8.574135380E-1	-5.502091050E-1	-2.801645398E-1	1.331580520E0
8.602168480E-1	-5.667206645E-1	-2.977414131E-1	1.342765808E0
8.620910380E-1	-5.880259871E-1	-3.153182864E-1	1.355548978E0
8.642631560E-1	-6.082659960E-1	-3.355582952E-1	1.368864775E0
8.661604610E-1	-6.290386319E-1	-3.563309610E-1	1.383245945E0
8.683204630E-1	-6.524744630E-1	-3.787015080E-1	1.396561742E0
8.702045770E-1	-6.743124127E-1	-4.026699662E-1	1.410942793E0
8.723513100E-1	-6.966829300E-1	-4.261057973E-1	1.422660708E0
8.738256150E-1	-7.169229984E-1	-4.532700181E-1	1.437574387E0
8.763460020E-1	-7.398261428E-1	-4.809668958E-1	1.451422811E0
8.781618070E-1	-7.579356432E-1	-5.091964006E-1	1.463673353E0
8.803423480E-1	-7.749798894E-1	-5.395564437E-1	1.479119658E0
8.816087690E-1	-7.909588814E-1	-5.640575290E-1	1.493500710E0
8.844000400E-1	-7.978830934E-1	-5.811017752E-1	1.509479761E0
8.862843460E-1	-8.016114831E-1	-5.874933600E-1	1.525458694E0
8.884462330E-1	-7.989483476E-1	-5.896238685E-1	1.542502880E0
8.896720770E-1	-7.877630591E-1	-5.858954787E-1	1.561677694E0
8.923309230E-1	-7.723167539E-1	-5.720469952E-1	1.574460864E0
8.945326940E-1	-7.456851006E-1	-5.539374948E-1	1.584580898E0
8.965217300E-1	-7.163903713E-1	-5.289037824E-1	1.588309288E0
8.978372690E-1	-6.833671331E-1	-5.006743073E-1	1.589374542E0
9.006023860E-1	-6.498113275E-1	-4.687163532E-1	1.584580898E0
9.024830770E-1	-6.178534031E-1	-4.372910559E-1	1.579254508E0
9.046345400E-1	-5.880259871E-1	-4.079962969E-1	1.579787135E0
9.060826530E-1	-5.635249019E-1	-3.834952116E-1	1.574993491E0
9.086923090E-1	-5.443501472E-1	-3.611246645E-1	1.574993491E0
9.107217330E-1	-5.294364095E-1	-3.440804183E-1	1.577656627E0
9.127385400E-1	-5.177185535E-1	-3.291667104E-1	1.584048271E0
9.142078460E-1	-5.102616549E-1	-3.126551211E-1	1.596298814E0
9.167327710E-1	-5.075985193E-1	-2.892192900E-1	1.609081984E0
9.185822300E-1	-5.070658922E-1	-2.583266199E-1	1.623995662E0
9.207288860E-1	-5.075985193E-1	-2.263686955E-1	1.645300984E0
9.220405000E-1	-5.139901042E-1	-2.008023560E-1	1.664475679E0
9.247861170E-1	-5.177185535E-1	-1.784317940E-1	1.686313629E0
9.266520000E-1	-5.267732739E-1	-1.651159972E-1	1.707086325E0
9.288167320E-1	-5.358279943E-1	-1.613875628E-1	1.728924155E0
9.300603460E-1	-5.486112237E-1	-1.688444167E-1	1.753957868E0
9.326625760E-1	-5.624596477E-1	-1.848233789E-1	1.776861072E0
9.348961150E-1	-5.795038939E-1	-2.055960447E-1	1.798166394E0
9.366891150E-1	-5.992112756E-1	-2.274339646E-1	1.817341208E0
9.383088840E-1	-6.205165386E-1	-2.514024079E-1	1.832787514E0
9.409867710E-1	-6.439523697E-1	-2.753708661E-1	1.849831700E0
9.428790380E-1	-6.652576327E-1	-2.950782478E-1	1.866343379E0
9.450170400E-1	-6.897587180E-1	-3.126551211E-1	1.881789684E0
9.462855000E-1	-7.126619220E-1	-3.243730366E-1	1.896703362E0
9.490741940E-1	-7.510114312E-1	-3.376888335E-1	1.921204448E0
9.509778460E-1	-7.717841268E-1	-3.430151641E-1	1.935585499E0
9.531043480E-1	-7.973504663E-1	-3.531351686E-1	1.953162432E0
9.544800760E-1	-8.175904751E-1	-3.680488765E-1	1.969141364E0
9.571073090E-1	-8.426241875E-1	-3.829625845E-1	1.980326653E0
9.590013840E-1	-8.623315692E-1	-4.021373391E-1	1.990979314E0
9.611184630E-1	-8.831042051E-1	-4.234426320E-1	2.002164602E0
9.623602690E-1	-9.001484513E-1	-4.495415986E-1	2.010686636E0
9.651750020E-1	-9.187905788E-1	-4.809668958E-1	2.016012907E0
9.670474610E-1	-9.342369437E-1	-5.107942820E-1	2.028263569E0
9.692053090E-1	-9.475527406E-1	-5.411543250E-1	2.036785603E0
9.704411920E-1	-9.587380290E-1	-5.832322836E-1	2.049568892E0
9.730325380E-1	-9.667274952E-1	-6.205165386E-1	2.062884569E0
9.752908480E-1	-9.752495885E-1	-6.620618701E-1	2.070341587E0
9.773017710E-1	-9.768475294E-1	-7.094660997E-1	2.076733112E0
9.786144230E-1	-9.683253765E-1	-7.584682703E-1	2.073537350E0
9.813591170E-1	-9.603359103E-1	-8.101336360E-1	2.068210840E0
9.833883860E-1	-9.422264099E-1	-8.623315692E-1	2.049568892E0
9.854053090E-1	-9.225190282E-1	-9.038769007E-1	2.022937298E0
9.866686150E-1	-9.017463326E-1	-9.347695708E-1	1.984055042E0
9.894623480E-1	-8.809736967E-1	-9.651296139E-1	1.941977143E0
9.914910780E-1	-8.575378656E-1	-9.938917160E-1	1.891909719E0
9.934922710E-1	-8.255799413E-1	-1.016262293E0	1.835983276E0
9.951290760E-1	-7.888283134E-1	-1.037567616E0	1.774197936E0
9.974856170E-1	-7.467503548E-1	-1.047687650E0	1.709749460E0
9.994603070E-1	-7.036072016E-1	-1.048752904E0	1.643170476E0
1.001481501E0	-6.546050310E-1	-1.052481294E0	1.572862983E0
1.002778307E0	-6.002765298E-1	-1.051416039E0	1.498827100E0
1.005538309E0	-5.411543250E-1	-1.046622276E0	1.416269064E0
1.007566886E0	-4.745753109E-1	-1.044491768E0	1.333711147E0
1.009583732E0	-4.106594622E-1	-1.047687650E0	1.244228840E0
1.010832807E0	-3.472762108E-1	-1.058872819E0	1.155811906E0
1.013439115E0	-2.801645398E-1	-1.048752904E0	1.067927599E0
1.015668655E0	-2.130528986E-1	-1.031175971E0	9.789780378E-1
1.017405038E0	-1.384843737E-1	-1.011468649E0	8.921589851E-1
1.019145730E0	-6.604639441E-2	-9.741843343E-1	8.149272799E-1
1.021737194E0	5.858954508E-3	-9.331716895E-1	7.504788041E-1
1.023766001E0	7.030745596E-2	-8.836368918E-1	7.014766335E-1
1.025768501E0	1.235706806E-1	-8.303736448E-1	6.673882008E-1
1.027027884E0	1.619201899E-1	-7.787083387E-1	6.487460732E-1
1.029825232E0	1.784317940E-1	-7.259777188E-1	6.439523697E-1
1.031853809E0	1.752360016E-1	-6.897587180E-1	6.540724039E-1
1.033881501E0	1.592570394E-1	-6.785734296E-1	6.769755483E-1
1.035453384E0	1.203748807E-1	-6.908239722E-1	7.041398287E-1
1.037893078E0	6.285060197E-2	-7.099987864E-1	7.366303802E-1
1.039805384E0	-1.651159860E-2	-7.291735411E-1	7.781757116E-1
1.041887694E0	-1.065264493E-1	-7.360977530E-1	8.309062719E-1
1.043136769E0	-2.247707993E-1	-7.222493291E-1	8.799084425E-1
1.045944001E0	-3.323625028E-1	-7.392935157E-1	9.315737486E-1
1.047822423E0	-4.218447208E-1	-7.819041014E-1	9.837717414E-1
1.049974694E0	-5.033374429E-1	-8.074704409E-1	1.033306479E0
1.051504423E0	-5.736449361E-1	-8.197209835E-1	1.074319243E0
1.053832346E0	-6.636597514E-1	-8.197209835E-1	1.102016091E0
1.056059194E0	-8.106662631E-1	-8.372978568E-1	1.122256160E0
1.058053076E0	-8.868326545E-1	-8.399610519E-1	1.122788787E0
1.059681615E0	-9.560748339E-1	-8.527442217E-1	1.110538244E0
1.062142040E0	-1.027447581E0	-8.708537221E-1	1.091363430E0
1.064170732E0	-1.088167667E0	-8.937568665E-1	1.060470819E0
1.066172578E0	-1.140898228E0	-9.102684855E-1	1.025317073E0
1.067775576E0	-1.193628788E0	-9.086706042E-1	9.805759192E-1
1.070228386E0	-1.264468908E0	-8.894958496E-1	9.257147908E-1
1.072085384E0	-1.341167927E0	-8.639294505E-1	8.612663150E-1
1.074258693E0	-1.428519607E0	-8.468852639E-1	7.819041014E-1
1.075676653E0	-1.534513474E0	-8.410263062E-1	6.902913451E-1
1.078262886E0	-1.620799899E0	-8.729842305E-1	5.901564956E-1
1.080256847E0	-1.691107273E0	-9.267801046E-1	4.809668958E-1
1.082273847E0	-1.771534801E0	-1.001881242E0	3.595267534E-1
1.083563038E0	-1.833852768E0	-1.060470819E0	2.279665917E-1
1.086330847E0	-1.919073939E0	-1.086037159E0	7.936219871E-2
1.088215115E0	-2.010686636E0	-1.083906531E0	-7.669904083E-2
1.090376001E0	-2.080994129E0	-1.068992853E0	-2.354234457E-1
1.091645730E0	-2.151301622E0	-1.037034988E0	-3.930825889E-1
1.094241230E0	-2.212021589E0	-9.912285805E-1	-5.560680628E-1
1.096455346E0	-2.271143913E0	-9.395632744E-1	-7.057377100E-1
1.098199923E0	-2.317482710E0	-8.884305358E-1	-8.447546959E-1
1.099772730E0	-2.356364965E0	-8.372978568E-1	-9.598032832E-1
1.102533309E0	-2.377670288E0	-7.813714743E-1	-1.065797091E0
1.104562232E0	-2.387790203E0	-7.376956344E-1	-1.159007788E0
1.106579001E0	-2.386192322E0	-7.302387953E-1	-1.240500450E0
1.107839769E0	-2.371278763E0	-7.350324988E-1	-1.311340570E0
1.110636347E0	-2.351038694E0	-7.440872192E-1	-1.370995402E0
1.112577269E0	-2.325472355E0	-7.430219650E-1	-1.417866945E0
1.114665732E0	-2.296177626E0	-7.291735411E-1	-1.453553319E0
1.116260884E0	-2.256762743E0	-7.131945491E-1	-1.469532371E0
1.118659463E0	-2.212021589E0	-6.961503029E-1	-1.476456523E0
1.120515192E0	-2.162486792E0	-6.812366247E-1	-1.467934370E0
1.122655770E0	-2.109223604E0	-6.679208279E-1	-1.448227048E0
1.124020769E0	-2.052764654E0	-6.700513363E-1	-1.410410166E0
1.126712309E0	-1.997370839E0	-6.759102941E-1	-1.363538504E0
1.128646499E0	-1.936118126E0	-6.950850487E-1	-1.306014180E0
1.130757001E0	-1.873267531E0	-7.158577442E-1	-1.232510924E0
1.132009423E0	-1.809351683E0	-7.552725077E-1	-1.145691872E0
1.134648730E0	-1.732120037E0	-8.058725595E-1	-1.050883412E0
1.136841809E0	-1.651692510E0	-8.404936790E-1	-9.443569183E-1
1.138853193E0	-1.576591372E0	-8.527442217E-1	-8.351673484E-1
1.140160153E0	-1.495631337E0	-8.639294505E-1	-7.153250575E-1
1.142910039E0	-1.403485894E0	-8.793758154E-1	-5.858954787E-1
1.144934461E0	-1.305481553E0	-8.852347732E-1	-4.452805519E-1
1.146940616E0	-1.198422551E0	-8.671252728E-1	-2.940129936E-1
1.148337384E0	-1.082308650E0	-8.346347213E-1	-1.336906850E-1
1.150997962E0	-9.550095797E-1	-7.888283134E-1	2.716424316E-2
1.153026578E0	-7.483482957E-1	-6.844323874E-1	2.727077007E-1
1.155043309E0	-6.002765298E-1	-5.960154533E-1	4.335626364E-1
1.156534769E0	-4.479437172E-1	-4.937500656E-1	5.864281058E-1
1.159036539E0	-2.924150825E-1	-3.888215125E-1	7.355651259E-1
1.160889615E0	-1.315601617E-1	-2.854908705E-1	8.836368918E-1
1.163032847E0	2.343581803E-2	-1.858886480E-1	1.017860174E0
1.164274922E0	1.794970632E-1	-8.841694891E-2	1.143561363E0
1.167089539E0	3.339604139E-1	2.663161140E-3	1.258610010E0
1.169006384E0	4.783037305E-1	9.480853379E-2	1.364603758E0
1.171121193E0	6.173207760E-1	1.821602285E-1	1.457281828E0
1.172478192E0	7.478156686E-1	2.679139972E-1	1.538241863E0
1.174993922E0	8.745821118E-1	3.451456726E-1	1.605353594E0
1.177203230E0	9.896306992E-1	4.191815555E-1	1.660214663E0
1.179023115E0	1.096689701E0	4.916195571E-1	1.704423189E0
1.180551884E0	1.189900398E0	5.656554103E-1	1.738511562E0
1.183289385E0	1.272991061E0	6.359629035E-1	1.761414766E0
1.185261615E0	1.345961690E0	6.988134980E-1	1.779524326E0
1.187319347E0	1.407214403E0	7.600662112E-1	1.784850597E0
1.188712884E0	1.457281828E0	8.207862377E-1	1.780056953E0
1.191376347E0	1.491370201E0	8.799084425E-1	1.769936919E0
1.193286807E0	1.516936541E0	9.331716895E-1	1.750229478E0
1.195407193E0	1.530252337E0	9.848369956E-1	1.725728393E0
1.196919692E0	1.530784965E0	1.021055937E0	1.698564172E0
1.199411539E0	1.530252337E0	1.045557022E0	1.673530459E0
1.201405770E0	1.516403913E0	1.059405446E0	1.646366239E0
1.203422231E0	1.498827100E0	1.063133955E0	1.619734645E0
1.204664961E0	1.470064998E0	1.057807565E0	1.596831441E0
1.207479462E0	1.441302776E0	1.044491768E0	1.574460864E0
1.209351846E0	1.398692250E0	1.025317073E0	1.549427152E0
1.211510808E0	1.360342741E0	9.938917160E-1	1.526523948E0
1.212799653E0	1.315068960E0	9.582054019E-1	1.502022862E0
1.215458038E0	1.271393180E0	9.113337398E-1	1.477521777E0
1.217597308E0	1.218662500E0	8.426241875E-1	1.450890183E0
1.219608847E0	1.167529821E0	7.760451436E-1	1.412540674E0
1.220855692E0	1.113734007E0	7.163903713E-1	1.375256419E0
1.223666539E0	1.064199209E0	6.615292430E-1	1.328917384E0
1.225572653E0	1.008272767E0	6.221144199E-1	1.277784705E0
1.227712847E0	9.528790712E-1	5.960154533E-1	1.220260382E0
1.228965346E0	8.921589851E-1	5.757754445E-1	1.159007788E0
1.231769770E0	8.362326026E-1	5.576659441E-1	1.089232922E0
1.233682153E0	7.728493810E-1	5.470132828E-1	1.018925428E0
1.235800962E0	7.179882526E-1	5.336974859E-1	9.379653335E-1
1.237210846E0	6.657902598E-1	5.161206126E-1	8.570052385E-1
1.239795347E0	6.130596995E-1	4.990763962E-1	7.648598552E-1
1.241630153E0	5.645901561E-1	4.809668958E-1	6.689860821E-1
1.243792154E0	5.129248500E-1	4.649879336E-1	5.645901561E-1
1.245035807E0	4.681837261E-1	4.548679292E-1	4.564658105E-1
1.247849270E0	4.308994710E-1	4.458131790E-1	3.424825370E-1
1.249745422E0	3.962783813E-1	4.538026452E-1	2.231729031E-1
1.251896193E0	3.632551730E-1	4.644553065E-1	1.059938148E-1
1.253156845E0	3.270362020E-1	4.729774296E-1	-1.491370238E-2
1.255726269E0	2.908172011E-1	4.852279723E-1	-1.379517466E-1
1.257950115E0	2.577939928E-1	4.990763962E-1	-2.583266199E-1
1.259751615E0	2.237055302E-1	5.171858668E-1	-3.760383427E-1
1.261271884E0	1.858886480E-1	5.209143162E-1	-4.937500656E-1
1.264050885E0	1.155811921E-1	5.214469433E-1	-6.732471585E-1
1.266079885E0	6.977482140E-2	5.118595958E-1	-7.957525253E-1
1.268082924E0	1.757686399E-2	5.060006380E-1	-9.267801046E-1
1.269371692E0	-3.142530099E-2	4.958806038E-1	-1.061536074E0
1.272140423E0	-7.563377917E-2	4.980111420E-1	-1.200553060E0
1.274052038E0	-1.177117229E-1	4.974785149E-1	-1.343298435E0
1.276186539E0	-1.528654546E-1	4.884237647E-1	-1.490837574E0
1.277632499E0	-1.848233789E-1	4.793690145E-1	-1.641572475E0
1.280180231E0	-2.402171344E-1	4.293015897E-1	-1.792307496E0
1.282143230E0	-3.153182864E-1	3.366235793E-1	-1.960086584E0
1.284176577E0	-4.383563101E-1	1.720402092E-1	-2.135322571E0
1.285593807E0	-5.587311983E-1	6.711166352E-2	-2.311091185E0
1.288233885E0	-7.158577442E-1	-7.403588295E-2	-2.470348358E0
1.290191730E0	-8.543421030E-1	-1.390170157E-1	-2.610963106E0
1.292265308E0	-9.901633263E-1	-1.805623323E-1	-2.730805397E0
1.293617345E0	-1.101483464E0	-1.427454352E-1	-2.863430977E0
1.296123807E0	-1.189367771E0	-7.243798673E-2	-2.984338284E0
1.298323884E0	-1.270860553E0	-2.024002373E-2	-3.098854303E0
1.300379539E0	-1.314003706E0	5.752427876E-2	-3.205380678E0
1.301644038E0	-1.328917384E0	1.352885813E-1	-3.307646036E0
1.304437039E0	-1.317199469E0	1.805623323E-1	-3.399791479E0
1.306375230E0	-1.280980468E0	2.231729031E-1	-3.488208532E0
1.308468270E0	-1.218662500E0	2.769687474E-1	-3.573962212E0
1.309761769E0	-1.153148770E0	3.115898669E-1	-3.665575027E0
1.312525500E0	-1.096157074E0	2.993393242E-1	-3.762514114E0
1.314427922E0	-1.059405446E0	2.668487430E-1	-3.869573116E0
1.316556693E0	-1.017327547E0	2.663161159E-1	-3.983023882E0
1.317939576E0	-9.651296139E-1	2.785666585E-1	-4.077832222E0
1.320561154E0	-9.065400362E-1	2.641855776E-1	-4.180630207E0
1.322411038E0	-8.500810266E-1	2.316950262E-1	-4.287689209E0
1.324573077E0	-7.952198982E-1	2.151834220E-1	-4.403803349E0
1.325998538E0	-7.355651259E-1	1.954760253E-1	-4.518851757E0
1.328630154E0	-6.807039976E-1	1.736381054E-1	-4.637096405E0
1.330515307E0	-6.269081235E-1	1.661812514E-1	-4.760666847E0
1.332660885E0	-5.651227832E-1	1.874865443E-1	-4.885835648E0
1.333917269E0	-4.916195571E-1	2.045307755E-1	-5.003014565E0
1.336509922E0	-4.117247164E-1	2.173139453E-1	-5.124987125E0
1.338747923E0	-3.265035450E-1	2.508697808E-1	-5.243764400E0
1.340482269E0	-2.386192381E-1	3.094593287E-1	-5.349225521E0
1.342018807E0	-1.507349163E-1	3.675162494E-1	-5.432848930E0
1.344821500E0	-5.645901710E-2	4.122573435E-1	-5.514341354E0
1.346850846E0	4.101268202E-2	4.527373910E-1	-5.593703747E0
1.348867731E0	1.320927888E-1	5.400890708E-1	-5.654423714E0
1.350181499E0	2.327602804E-1	6.290386319E-1	-5.707154274E0
1.352924962E0	3.344930410E-1	6.860303283E-1	-5.768939495E0
1.354852115E0	4.378236830E-1	7.696535587E-1	-5.815278530E0
1.356956423E0	5.363606811E-1	8.836368918E-1	-5.841910362E0
1.358330422E0	6.301039457E-1	9.837717414E-1	-5.848301888E0
1.360951500E0	7.281082273E-1	1.058340192E0	-5.849367142E0
1.362796845E0	8.223841786E-1	1.123321414E0	-5.848301888E0
1.364948269E0	9.129316211E-1	1.187237263E0	-5.842442989E0
1.366198422E0	9.965549111E-1	1.251153111E0	-5.828594685E0
1.369005346E0	1.113201380E0	1.357146859E0	-5.790245056E0
1.370957422E0	1.178715110E0	1.482315540E0	-5.737514496E0
1.373051808E0	1.233576298E0	1.598429322E0	-5.680522919E0
1.374411884E0	1.272991061E0	1.710282087E0	-5.615008831E0
1.376896730E0	1.302285790E0	1.809884310E0	-5.532451153E0
1.379137385E0	1.314536333E0	1.889246464E0	-5.443501472E0
1.381148923E0	1.289502621E0	1.905225515E0	-5.356682301E0
1.382397730E0	1.246359468E0	1.917476058E0	-5.269330502E0
1.385206231E0	1.195226669E0	1.926530719E0	-5.187305450E0
1.387090422E0	1.126517177E0	1.933454990E0	-5.101018906E0
1.389236885E0	1.043426514E0	1.935052872E0	-5.018460751E0
1.390534961E0	9.496832490E-1	1.946238160E0	-4.933772564E0
1.393294500E0	8.410263062E-1	1.981924534E0	-4.848018646E0
1.395323500E0	7.318366766E-1	2.030394077E0	-4.756405830E0
1.397340231E0	6.114618182E-1	2.114549875E0	-4.653607845E0
1.398759884E0	4.894890189E-1	2.216815233E0	-4.548679352E0
1.401333500E0	3.728425503E-1	2.289785862E0	-4.444283485E0
1.403327500E0	2.609897852E-1	2.333994389E0	-4.345746517E0
1.405329577E0	1.560612470E-1	2.364354372E0	-4.256796837E0
1.406595153E0	6.018744037E-2	2.412823915E0	-4.167314529E0
1.409386731E0	-2.609897964E-2	2.544916868E0	-4.081027985E0
1.411415884E0	-1.033306494E-1	2.747849703E0	-3.992078543E0
1.413417500E0	-1.826928556E-1	2.953445673E0	-3.904194117E0
1.414671884E0	-2.572613657E-1	3.048786879E0	-3.824299335E0
1.417259230E0	-3.259709179E-1	3.126018524E0	-3.746535063E0
1.419504500E0	-4.250405133E-1	3.364637852E0	-3.613377094E0
1.421392268E0	-5.560680628E-1	3.658118248E0	-3.340136766E0
1.422776499E0	-6.205165386E-1	3.706587791E0	-3.049852133E0
1.425565461E0	-6.423544884E-1	3.546797991E0	-2.792058229E0
1.427587461E0	-6.338323355E-1	3.360376835E0	-2.574211597E0
1.429597577E0	-6.167881489E-1	3.178749084E0	-2.413889170E0
1.430829538E0	-5.965480804E-1	3.007241488E0	-2.281263828E0
1.433655846E0	-5.906891227E-1	2.824016094E0	-2.146507978E0
1.435576345E0	-5.986786485E-1	2.585929394E0	-1.990979314E0
1.437686961E0	-6.242449880E-1	2.328135490E0	-1.811482191E0
1.439109884E0	-6.482134461E-1	2.068743467E0	-1.609081984E0
1.441691423E0	-6.700513363E-1	1.780056953E0	-1.427454352E0
1.443686346E0	-6.892260909E-1	1.477521777E0	-1.282045722E0
1.445703231E0	-6.977482438E-1	1.176584601E0	-1.167529821E0
1.446936153E0	-7.014766335E-1	8.644620776E-1	-1.100418210E0
1.449760923E0	-6.940197945E-1	5.592638254E-1	-1.107874990E0
1.451640653E0	-6.791061163E-1	2.668487430E-1	-1.161138296E0
1.453792269E0	-6.583334208E-1	-1.278317347E-2	-1.238369942E0
1.455034768E0	-6.354302764E-1	-2.700445354E-1	-1.329450011E0
1.457681076E0	-6.114618182E-1	-5.145227313E-1	-1.435443878E0
1.459817422E0	-5.731122494E-1	-7.323693037E-1	-1.551557660E0
1.461890461E0	-5.283711553E-1	-9.512811303E-1	-1.685248375E0
1.463148384E0	-4.617921412E-1	-1.169127703E0	-1.835983276E0
1.465948154E0	-3.717772961E-1	-1.390702724E0	-2.000566721E0
1.467869191E0	-2.737729549E-1	-1.614940882E0	-2.204564810E0
1.469995461E0	-9.480853379E-2	-1.895638108E0	-2.531600952E0
1.471422230E0	-3.675162420E-2	-1.973402381E0	-2.647714853E0
1.474053577E0	1.422128081E-1	-2.162486792E0	-2.963565826E0
1.475938230E0	2.588592768E-1	-2.256762743E0	-3.143062830E0
1.478085038E0	3.755057156E-1	-2.320146084E0	-3.285808325E0
1.479591999E0	4.836300611E-1	-2.358495474E0	-3.396063089E0
1.482078884E0	5.928196907E-1	-2.367550135E0	-3.467435837E0
1.483945422E0	6.977482438E-1	-2.359028101E0	-3.508448601E0
1.486075423E0	7.861651778E-1	-2.304167032E0	-3.487143278E0
1.487432961E0	8.649947643E-1	-2.213619471E0	-3.426423073E0
1.490133884E0	9.369000793E-1	-2.109223604E0	-3.373692513E0
1.492163076E0	1.009870648E0	-2.030394077E0	-3.365703106E0
1.494158961E0	1.079112887E0	-1.989381313E0	-3.409911633E0
1.495456999E0	1.141430855E0	-1.995240331E0	-3.505252600E0
1.497999999E0	1.189900398E0	-2.044775009E0	-3.651726484E0
1.500200691E0	1.229847789E0	-2.142779350E0	-3.849333048E0
1.501952730E0	1.260207891E0	-2.262621641E0	-4.083158493E0
1.503844884E0	1.282578349E0	-2.387257576E0	-4.320712566E0
1.506316269E0	1.278849959E0	-2.509763002E0	-4.551875114E0
1.508206807E0	1.250620484E0	-2.619485378E0	-4.756405830E0
1.510347961E0	1.205346704E0	-2.700445414E0	-4.936435699E0
1.511643999E0	1.145691872E0	-2.737196922E0	-5.094627380E0
1.514405923E0	1.066862345E0	-2.747317076E0	-5.239503384E0
1.516299115E0	9.757822156E-1	-2.757436991E0	-5.366269588E0
1.518451999E0	8.878979087E-1	-2.773416042E0	-5.480253220E0
1.519931115E0	8.181231022E-1	-2.829342365E0	-5.583583832E0
1.522446115E0	7.435545921E-1	-2.922553062E0	-5.668272018E0
1.524262807E0	6.684534550E-1	-3.004045725E0	-5.742308140E0
1.526442307E0	5.805691481E-1	-3.049319506E0	-5.801962852E0
1.527743845E0	4.799016416E-1	-3.066363811E0	-5.844573498E0
1.530499846E0	3.680488765E-1	-3.096191168E0	-5.869074345E0
1.532359884E0	2.487392575E-1	-3.103647947E0	-5.885586262E0
1.534531961E0	1.262338310E-1	-3.092995405E0	-5.891977787E0
1.535848922E0	-6.924218964E-3	-3.064765930E0	-5.885586262E0
1.538500961E0	-1.422128081E-1	-3.031742573E0	-5.865878582E0
1.540618730E0	-2.849582434E-1	-2.995523691E0	-5.838181973E0
1.542572730E0	-4.223773479E-1	-2.930009842E0	-5.783853531E0
1.543956076E0	-5.464806557E-1	-2.843723536E0	-5.722600460E0
1.546703461E0	-6.689860821E-1	-2.746251822E0	-5.649097443E0
1.548654038E0	-7.771103978E-1	-2.635464191E0	-5.563343525E0
1.550734653E0	-8.703210354E-1	-2.506567240E0	-5.457349777E0
1.551996922E0	-9.566074610E-1	-2.360625982E0	-5.334844589E0
1.554791961E0	-1.027447581E0	-2.195510149E0	-5.178782940E0
1.556666230E0	-1.082841277E0	-2.008556128E0	-5.001416683E0
1.558822692E0	-1.121723413E0	-1.803492665E0	-4.794222832E0
1.560257499E0	-1.141430855E0	-1.579787135E0	-4.565190792E0
1.562826461E0	-1.144093990E0	-1.341700554E0	-4.311657906E0
1.564820461E0	-1.127049804E0	-1.095624447E0	-4.038417339E0
1.566836884E0	-1.096157074E0	-8.468852639E-1	-3.750796080E0
1.568118345E0	-1.050350785E0	-5.912217498E-1	-3.444532633E0
1.570885461E0	-9.928264618E-1	-3.211772442E-1	-3.114300728E0
1.572738614E0	-9.262474179E-1	-5.805691332E-2	-2.770220280E0
1.574916653E0	-8.468852639E-1	2.114549875E-1	-2.404301882E0
1.576171114E0	-7.590008974E-1	4.841626883E-1	-2.024002552E0
1.578804076E0	-6.609966159E-1	7.590008974E-1	-1.627191424E0
1.580944884E0	-5.107942820E-1	1.158475041E0	-1.004011750E0
1.582716384E0	-4.101268053E-1	1.418399572E0	-5.816344023E-1
1.584289691E0	-3.062635362E-1	1.665540934E0	-1.619201899E-1
1.587074999E0	-2.135855258E-1	1.899899125E0	2.551308274E-1
1.589071499E0	-1.230380461E-1	2.120409012E0	6.604639888E-1
1.591121653E0	-3.941478580E-2	2.326004982E0	1.053013921E0
1.592386576E0	3.728425503E-2	2.506567240E0	1.432780743E0
1.595179115E0	1.043959185E-1	2.657834768E0	1.785383224E0
1.597052653E0	1.661812514E-1	2.777144432E0	2.124137402E0
1.599209961E0	2.237055302E-1	2.866094112E0	2.434129238E0
1.600705691E0	2.817624509E-1	2.931075096E0	2.710032701E0
1.603227384E0	3.371562064E-1	2.971555233E0	2.952380419E0
1.605221615E0	3.920173049E-1	2.991795301E0	3.166498661E0
1.607223999E0	4.452805519E-1	2.985403538E0	3.336941004E0
1.608416614E0	4.942827225E-1	2.963565826E0	3.475957870E0
1.611281691E0	5.400890708E-1	2.922553062E0	3.576625347E0
1.613126461E0	5.821670294E-1	2.866094112E0	3.643737078E0
1.615327114E0	6.178534031E-1	2.782470703E0	3.678358078E0
1.616532422E0	6.455502510E-1	2.681270599E0	3.682619333E0
1.619139307E0	6.663229465E-1	2.557167292E0	3.659183502E0
1.621312614E0	6.854977012E-1	2.419215679E0	3.601659060E0
1.623380268E0	6.956176758E-1	2.262621641E0	3.513774872E0
1.624663845E0	6.977482438E-1	2.087918282E0	3.405117750E0
1.627483576E0	6.956176758E-1	1.899366498E0	3.266633511E0
1.629335576E0	6.876282096E-1	1.700162053E0	3.107376337E0
1.631514499E0	6.727145314E-1	1.491902828E0	2.926814079E0
1.632723268E0	6.524744630E-1	1.268729925E0	2.728142262E0
1.635572153E0	6.263754964E-1	1.038100243E0	2.508165121E0
1.637453653E0	5.981460214E-1	8.085356951E-1	2.267415285E0
1.639620307E0	5.635249019E-1	5.741775632E-1	2.010154009E0
1.640957422E0	5.251753926E-1	3.403519988E-1	1.738511562E0
1.643614807E0	4.841626883E-1	1.150485575E-1	1.452488065E0
1.645421999E0	4.399542212E-1	-9.480853379E-2	1.154214025E0
1.647611499E0	4.005394280E-1	-2.977414131E-1	8.495483994E-1
1.648831768E0	3.653857112E-1	-4.735100567E-1	5.550028086E-1
1.651668845E0	3.446130455E-1	-6.103965044E-1	2.822950780E-1
1.653546307E0	3.376888335E-1	-7.105314136E-1	3.941478580E-2
1.655699076E0	3.323625028E-1	-8.005462289E-1	-1.794970632E-1
1.656967845E0	3.286340833E-1	-8.878979087E-1	-3.691141307E-1
1.659610153E0	3.201119602E-1	-9.741843343E-1	-5.230448246E-1
1.661785230E0	2.844256163E-1	-1.108407617E0	-6.434197426E-1
1.663812037E0	2.412824035E-1	-1.229847789E0	-7.355651259E-1
1.665103845E0	2.066612989E-1	-1.331047893E0	-8.127967715E-1
1.667869422E0	1.688444167E-1	-1.414671183E0	-8.761799932E-1
1.669717807E0	1.272991002E-1	-1.495631337E0	-9.230516553E-1
1.671901037E0	7.616640627E-2	-1.571265101E0	-9.598032832E-1
1.673141038E0	2.183792181E-2	-1.636246204E0	-9.784454107E-1
1.675958576E0	-3.036003746E-2	-1.681519985E0	-9.843043685E-1
1.677900691E0	-1.155811921E-1	-1.740109444E0	-9.709885716E-1
1.679990114E0	-1.789644361E-1	-1.776328444E0	-9.555422068E-1
1.681397884E0	-2.444781959E-1	-1.805090666E0	-9.342369437E-1
1.683994845E0	-3.057309091E-1	-1.810416937E0	-9.092032313E-1
1.685845422E0	-3.659183383E-1	-1.813080072E0	-8.793758154E-1
1.688006191E0	-4.245078862E-1	-1.802427411E0	-8.522115946E-1
1.689231884E0	-4.697816372E-1	-1.756621122E0	-8.213189244E-1
1.692063883E0	-5.028048158E-1	-1.687911510E0	-7.941546440E-1
1.693874768E0	-5.310343504E-1	-1.600027204E0	-7.563377619E-1
1.696095422E0	-5.555354357E-1	-1.511610270E0	-7.174556255E-1
1.697324691E0	-5.763080716E-1	-1.413073301E0	-6.636597514E-1
1.699951961E0	-5.960154533E-1	-1.310275316E0	-6.072007418E-1
1.702182576E0	-6.066681147E-1	-1.196824670E0	-5.486112237E-1
1.704193806E0	-6.162554622E-1	-1.079112887E0	-4.846953154E-1
1.705698191E0	-6.210491657E-1	-9.624664187E-1	-4.175836742E-1
1.708250999E0	-6.237123609E-1	-8.522115946E-1	-3.424825370E-1
1.710205345E0	-6.205165386E-1	-7.403587699E-1	-2.673813701E-1
1.712297153E0	-6.183860302E-1	-6.279733777E-1	-1.906823367E-1
1.713585499E0	-6.125270724E-1	-5.246427655E-1	-1.150485575E-1
1.716354614E0	-6.072007418E-1	-4.266384244E-1	-3.941478580E-2
1.718177999E0	-6.013417840E-1	-3.387540877E-1	3.675162420E-2
1.720385576E0	-5.949501991E-1	-2.657834888E-1	1.155811921E-1
1.721807730E0	-5.885586143E-1	-2.008023560E-1	1.917476058E-1
1.724380153E0	-5.811017752E-1	-1.523328125E-1	2.673813701E-1
1.726224614E0	-5.752428174E-1	-1.214401498E-1	3.488741219E-1
1.728376576E0	-5.720469952E-1	-1.081243455E-1	4.314320982E-1
1.729575230E0	-5.661880374E-1	-1.086569726E-1	5.187838078E-1
1.732433806E0	-5.672533512E-1	-1.374191195E-1	5.901564956E-1
1.734379614E0	-5.768406987E-1	-1.970739216E-1	6.567355394E-1
1.736479383E0	-5.858954787E-1	-2.684466541E-1	7.195861340E-1
1.737679961E0	-5.715143681E-1	-3.307646215E-1	7.829693556E-1
1.740307999E0	-4.846953154E-1	-2.977414131E-1	8.788431883E-1
1.742505614E0	-3.243730366E-1	-2.364887148E-1	9.875001311E-1
1.744274076E0	-1.699096859E-1	-1.608549356E-1	1.115331888E0
1.745836114E0	1.597896684E-3	-6.072007492E-2	1.246359468E0
1.748635383E0	1.661812514E-1	2.290318534E-2	1.385376453E0
1.750478076E0	2.929477394E-1	6.764429063E-2	1.522262931E0
1.752666999E0	3.776362538E-1	5.858954415E-2	1.637844086E0
1.754054384E0	4.133225977E-1	-1.597896684E-3	1.714010477E0
1.756724422E0	4.191815555E-1	-1.001348570E-1	1.760882139E0
1.758584614E0	4.037352204E-1	-2.093244642E-1	1.767806411E0
1.760771460E0	3.659183383E-1	-3.158509135E-1	1.748098969E0
1.762133537E0	3.211772442E-1	-4.197141826E-1	1.698031545E0
1.764767114E0	2.498045117E-1	-5.145227313E-1	1.629854560E0
1.766604422E0	1.491370201E-1	-6.450176239E-1	1.533448219E0
1.768762499E0	-1.864212751E-2	-8.815063238E-1	1.371528029E0
1.769983999E0	-2.519350350E-1	-1.245294094E0	1.146224499E0
1.772819922E0	-4.910869002E-1	-1.616006136E0	9.555422068E-1
1.774753461E0	-6.812366247E-1	-1.877528548E0	8.388957381E-1
1.776851306E0	-8.165252209E-1	-2.011219263E0	7.707188129E-1
1.778220768E0	-9.155948162E-1	-2.060221434E0	7.249124646E-1
1.780773422E0	-9.795106649E-1	-2.047971010E0	7.004113793E-1
1.782901191E0	-9.981527925E-1	-1.978728771E0	7.046724558E-1
1.784899461E0	-9.667274952E-1	-1.804558039E0	7.510114312E-1
1.786189460E0	-9.475527406E-1	-1.740642071E0	7.781757116E-1
1.789021191E0	-8.761799932E-1	-1.545698762E0	8.772453070E-1
1.790900960E0	-8.202536106E-1	-1.423725963E0	9.486179948E-1
1.793052229E0	-7.781757116E-1	-1.323591113E0	1.019458055E0
1.794361422E0	-7.424893379E-1	-1.249555230E0	1.083373904E0
1.797109460E0	-7.105314136E-1	-1.183508754E0	1.141430855E0
1.798968191E0	-6.817692518E-1	-1.121190786E0	1.200020432E0
1.801140152E0	-6.578007936E-1	-1.063666582E0	1.255414128E0
1.802513114E0	-6.301039457E-1	-1.015197039E0	1.304416299E0
1.805144345E0	-6.162554622E-1	-9.832391143E-1	1.349690080E0
1.806988268E0	-6.056028605E-1	-9.635316730E-1	1.388039589E0
1.809155075E0	-5.960154533E-1	-9.464874864E-1	1.411475420E0
1.810378691E0	-5.922870636E-1	-9.369000793E-1	1.416801691E0
1.813212537E0	-5.896238685E-1	-9.337043166E-1	1.406149030E0
1.815043768E0	-5.954828262E-1	-9.384979606E-1	1.380050063E0
1.817244306E0	-6.093312502E-1	-9.496832490E-1	1.348624825E0
1.818971614E0	-6.253102422E-1	-9.667274952E-1	1.304948926E0
1.821091691E0	-6.434197426E-1	-9.864348769E-1	1.265001535E0
1.823329921E0	-6.641923785E-1	-1.006674886E0	1.226652026E0
1.825109576E0	-6.870955825E-1	-1.026382327E0	1.178715110E0
1.826753076E0	-7.089334726E-1	-1.042893887E0	1.138235092E0
1.829401652E0	-7.286409140E-1	-1.056742311E0	1.096689701E0
1.831409153E0	-7.510114312E-1	-1.064731836E0	1.056742311E0
1.833447768E0	-7.701861858E-1	-1.066329718E0	1.017860174E0
1.834700384E0	-7.888283134E-1	-1.063133955E0	9.832391143E-1
1.837505691E0	-8.143946528E-1	-1.066329718E0	9.502158761E-1
1.839344191E0	-8.458199501E-1	-1.071123362E0	9.129316211E-1
1.841536767E0	-8.772453070E-1	-1.076449752E0	8.756473660E-1
1.843012230E0	-9.150621891E-1	-1.080710769E0	8.341020942E-1
1.845530729E0	-9.518138170E-1	-1.084971905E0	7.856325507E-1
1.847335807E0	-9.832391143E-1	-1.091896057E0	7.339671850E-1
1.849526921E0	-1.012533903E0	-1.085504532E0	6.791061163E-1
1.850751845E0	-1.035437107E0	-1.068992853E0	6.183860302E-1
1.853584575E0	-1.054079175E0	-1.046089649E0	5.603290796E-1
1.855513076E0	-1.064199209E0	-1.009338021E0	5.070658922E-1
1.857632152E0	-1.067394972E0	-9.709885716E-1	4.543353021E-1
1.858844730E0	-1.070058107E0	-9.273127317E-1	4.085289240E-1
1.861467422E0	-1.064731836E0	-8.708537221E-1	3.595267534E-1
1.863718614E0	-1.051948667E0	-8.005462289E-1	3.062635362E-1
1.865647960E0	-1.031708598E0	-7.233145833E-1	2.503371537E-1
1.866935230E0	-1.005609632E0	-6.359629035E-1	1.954760253E-1
1.869787652E0	-9.651296139E-1	-5.352953672E-1	1.470064968E-1
1.871764384E0	-9.193232059E-1	-4.346278906E-1	1.118527651E-1
1.873819114E0	-8.665926456E-1	-3.307646215E-1	8.788431436E-2
1.875296114E0	-8.133293986E-1	-2.316950262E-1	6.178534031E-2
1.877876113E0	-7.611314654E-1	-1.416801661E-1	4.687163606E-2
1.879726499E0	-7.084008455E-1	-6.231797114E-2	2.663161233E-2
1.881921152E0	-6.540724039E-1	1.491370238E-2	1.757686399E-2
1.883282422E0	-6.082659960E-1	6.977482140E-2	4.261057824E-3
1.885914575E0	-5.677859783E-1	1.118527651E-1	-1.012001187E-2
1.887787730E0	-5.347627401E-1	1.379517466E-1	-2.450108156E-2
1.889908537E0	-5.139901042E-1	1.454086006E-1	-4.527373984E-2
1.891116076E0	-5.044026971E-1	1.288969964E-1	-7.350324839E-2
1.893967152E0	-5.134574771E-1	7.829693705E-2	-1.155811921E-1
1.895797730E0	-5.241101384E-1	4.261057824E-2	-1.374191195E-1
1.898011767E0	-5.438175201E-1	-1.384843793E-2	-1.629854590E-1
1.899304537E0	-5.699164867E-1	-8.149272949E-2	-1.858886480E-1
1.901841730E0	-5.933523178E-1	-1.480717659E-1	-2.018676102E-1
1.904079422E0	-6.130596995E-1	-2.141181529E-1	-2.119876295E-1
1.905961345E0	-6.396912932E-1	-2.870887816E-1	-2.071939409E-1
1.907386576E0	-6.684534550E-1	-3.669835925E-1	-1.906823367E-1
1.910180344E0	-7.014766335E-1	-4.474110603E-1	-1.667138934E-1
1.912067268E0	-7.291735411E-1	-5.166532397E-1	-1.368864775E-1
1.914210844E0	-7.456851006E-1	-5.566006899E-1	-1.145159304E-1
1.915425191E0	-7.515440583E-1	-5.704491138E-1	-9.587380290E-2
1.918267613E0	-7.451524734E-1	-5.661880374E-1	-8.841694891E-2
1.920143268E0	-7.243798375E-1	-5.336974859E-1	-9.534116834E-2
1.922297959E0	-6.998787522E-1	-4.772384763E-1	-1.022653878E-1
1.923636076E0	-6.631271243E-1	-3.824299276E-1	-1.241033077E-1
1.926300729E0	-6.157228351E-1	-2.636529505E-1	-1.502022892E-1
1.928108883E0	-5.640575290E-1	-1.288969964E-1	-1.688444167E-1
1.930305845E0	-5.054680109E-1	1.651159860E-2	-1.741707325E-1
1.931508614E0	-4.490089715E-1	1.581917703E-1	-1.704423130E-1
1.934367113E0	-3.952131271E-1	2.950782478E-1	-1.587243974E-1
1.936199537E0	-3.403519988E-1	4.271710515E-1	-1.379517466E-1
1.938384537E0	-2.913498282E-1	5.613943934E-1	-1.278317273E-1
1.939607960E0	-2.306297570E-1	7.052050829E-1	-1.091896072E-1
1.942209230E0	-1.667138934E-1	8.665926456E-1	-7.723167539E-2
1.944409960E0	-1.145159304E-1	1.009870648E0	-4.846953228E-2
1.946320730E0	-8.149272949E-2	1.105744481E0	-2.290318534E-2
1.947758922E0	-7.563377917E-2	1.143561363E0	1.171790902E-2
1.950554344E0	-9.587380290E-2	1.131843448E0	5.645901710E-2
1.952473883E0	-1.416801661E-1	1.053546548E0	9.054747969E-2
1.954599959E0	-2.039981484E-1	9.294432402E-1	1.304948926E-1
1.955807076E0	-2.838929892E-1	7.707188129E-1	1.752360016E-1
1.958657036E0	-3.717772961E-1	5.858954787E-1	2.087918371E-1
1.960534922E0	-4.607268870E-1	3.978762627E-1	2.284992188E-1
1.962687844E0	-5.411543250E-1	2.237055302E-1	2.407497615E-1
1.964023768E0	-6.109291911E-1	7.243798673E-2	2.428802997E-1
1.966681152E0	-6.732471585E-1	-7.297061384E-2	2.316950262E-1
1.968602191E0	-7.403587699E-1	-2.258360684E-1	2.135855258E-1
1.970678113E0	-8.048073053E-1	-3.872236311E-1	1.917476058E-1
1.971910576E0	-8.719189763E-1	-5.523396134E-1	1.704423130E-1
1.974735190E0	-9.363674521E-1	-7.201187611E-1	1.523328125E-1
1.976622383E0	-9.944243431E-1	-8.783105612E-1	1.395496428E-1
1.978780536E0	-1.048220277E0	-1.017327547E0	1.406149119E-1
1.980127807E0	-1.080178142E0	-1.129180312E0	1.427454352E-1
1.982659191E0	-1.103613973E0	-1.210673094E0	1.544633508E-1
1.984829960E0	-1.109472990E0	-1.260740519E0	1.661812514E-1
1.986673576E0	-1.097222447E0	-1.277784705E0	1.800296903E-1
1.988121037E0	-1.081243396E0	-1.263936281E0	1.938781291E-1
1.990936113E0	-1.048220277E0	-1.219195127E0	2.119876295E-1
1.992819383E0	-9.928264618E-1	-1.116929770E0	2.482066154E-1
1.994967152E0	-9.480853677E-1	-1.023719192E0	2.700445354E-1
1.996247037E0	-8.948221207E-1	-9.166600704E-1	2.913498282E-1
1.999024998E0	-8.420915604E-1	-7.952198982E-1	3.099919558E-1
2.000899076E0	-7.909588814E-1	-6.695187092E-1	3.265035450E-1
2.003070921E0	-7.451524734E-1	-5.480785370E-1	3.430151641E-1
2.004459499E0	-6.998787522E-1	-4.324973822E-1	3.589941263E-1
2.007066382E0	-6.641923785E-1	-3.265035450E-1	3.749730885E-1
2.008970268E0	-6.364955306E-1	-2.327602804E-1	3.877562582E-1
2.011061921E0	-6.130596995E-1	-1.518001854E-1	4.021373391E-1
2.012313114E0	-5.949501991E-1	-8.468852192E-2	4.154531360E-1
2.015119575E0	-5.789712071E-1	-2.609897964E-2	4.245078862E-1
2.017090922E0	-5.688512325E-1	2.663161233E-2	4.314320982E-1
2.019150728E0	-5.635249019E-1	6.977482140E-2	4.378236830E-1
2.020406999E0	-5.592638254E-1	1.107875034E-1	4.388889670E-1
2.023038460E0	-5.677859783E-1	1.331580579E-1	4.500742257E-1
2.025231422E0	-5.741775632E-1	1.587243974E-1	4.687163532E-1
2.027264421E0	-5.816344023E-1	1.826928556E-1	4.830974340E-1
2.028608999E0	-5.890912414E-1	2.034655064E-1	4.932174385E-1
2.031321421E0	-5.970807076E-1	2.231729031E-1	4.958806038E-1
2.033242691E0	-5.992112756E-1	2.396845073E-1	5.038700700E-1
2.035351998E0	-5.970807076E-1	2.551308274E-1	5.033374429E-1
2.036575730E0	-5.928196907E-1	2.663161159E-1	5.038700700E-1
2.039408997E0	-5.779059529E-1	2.796319127E-1	5.070658922E-1
2.041273883E0	-5.587311983E-1	2.934803665E-1	5.102616549E-1
2.043440036E0	-5.326322317E-1	3.078614175E-1	5.187838078E-1
2.044796076E0	-5.012069345E-1	3.185140789E-1	5.326322317E-1
2.047443574E0	-4.745753109E-1	3.190467060E-1	5.640575290E-1
2.049288383E0	-4.383563101E-1	3.233077526E-1	6.109291911E-1
2.051455305E0	-3.978762627E-1	3.291667104E-1	6.524744630E-1
2.052670768E0	-3.568635881E-1	3.328951299E-1	6.982808709E-1
2.055512497E0	-3.195793331E-1	3.286340833E-1	7.488809228E-1
2.057362306E0	-2.849582434E-1	3.153182864E-1	8.074704409E-1
2.059543690E0	-2.514024079E-1	2.913498282E-1	8.660600185E-1
2.060788999E0	-2.205097377E-1	2.535329461E-1	9.379653335E-1
2.063468653E0	-1.933455020E-1	2.141181529E-1	1.010403395E0
2.065558037E0	-1.704423130E-1	1.667138934E-1	1.076449752E0
2.067378383E0	-1.475391239E-1	1.134506613E-1	1.149953008E0
2.068889806E0	-1.315601617E-1	6.072007492E-2	1.225054145E0
2.071701767E0	-1.097222418E-1	5.858954508E-3	1.286839485E0
2.073579806E0	-8.735168725E-2	-5.006742850E-2	1.348092198E0
2.075748267E0	-5.858954415E-2	-9.693906456E-2	1.396561742E0
2.077013537E0	-2.396845073E-2	-1.278317273E-1	1.441302776E0
2.079805420E0	1.651159860E-2	-1.384843737E-1	1.482315540E0
2.081645653E0	6.391586363E-2	-1.331580579E-1	1.516403913E0
2.083836267E0	1.166464612E-1	-1.123853996E-1	1.547296643E0
2.085184383E0	1.699096859E-1	-7.616640627E-2	1.573928237E0
2.087830920E0	2.242381722E-1	-3.781688958E-2	1.598429322E0
2.089625191E0	2.732403278E-1	1.225054078E-2	1.615473509E0
2.091826190E0	3.254382908E-1	7.030745596E-2	1.629321933E0
2.093161691E0	3.760383427E-1	1.257012039E-1	1.628256679E0
2.095882113E0	4.223773479E-1	1.778991669E-1	1.617604017E0
2.097816576E0	4.633900523E-1	2.253034264E-1	1.600559831E0
2.099926805E0	5.049353242E-1	2.695119083E-1	1.587244034E0
2.101211153E0	5.464806557E-1	3.201119602E-1	1.569667220E0
2.103845230E0	6.029396653E-1	4.026699662E-1	1.544633508E0
2.105963345E0	6.418218613E-1	4.612595141E-1	1.529187083E0
2.107920076E0	6.860303283E-1	5.347627401E-1	1.505751252E0
2.109383037E0	7.313040495E-1	6.072007418E-1	1.486043930E0
2.112079113E0	7.723167539E-1	6.785734296E-1	1.461542845E0
2.114107613E0	8.106662631E-1	7.414240837E-1	1.438639641E0
2.116109382E0	8.452873230E-1	7.941546440E-1	1.406681657E0
2.117376537E0	8.756473660E-1	8.399610519E-1	1.377386928E0
2.120166420E0	9.113337398E-1	8.788431883E-1	1.342765808E0
2.122159037E0	9.470201135E-1	9.081379771E-1	1.299622655E0
2.124211613E0	9.837717414E-1	9.337043166E-1	1.259675264E0
2.125646153E0	1.017327547E0	9.464874864E-1	1.208009839E0
2.128205151E0	1.051416039E0	9.560748339E-1	1.155811906E0
2.130181883E0	1.082308650E0	9.507485032E-1	1.096689701E0
2.132201959E0	1.105211854E0	9.246495366E-1	1.035969734E0
2.133508153E0	1.127582431E0	8.868326545E-1	9.725864530E-1
2.136258113E0	1.145159245E0	8.442220688E-1	9.001484513E-1
2.138211691E0	1.165399313E0	8.074704409E-1	8.234494328E-1
2.140288612E0	1.189367771E0	7.717841268E-1	7.355651259E-1
2.141565306E0	1.215466738E0	7.499461770E-1	6.487460732E-1
2.144203691E0	1.238902569E0	7.259777188E-1	5.566006899E-1
2.146359114E0	1.259142637E0	7.078682184E-1	4.703142643E-1
2.148154922E0	1.272458434E0	6.892260909E-1	3.771036267E-1
2.149683691E0	1.284176350E0	6.695187092E-1	2.817624509E-1
2.152456497E0	1.282578349E0	6.466155052E-1	1.890844405E-1
2.154410691E0	1.272458434E0	6.237123609E-1	1.107875034E-1
2.156486997E0	1.258077264E0	6.077333689E-1	4.314320907E-2
2.157796499E0	1.234108925E0	6.002765298E-1	-1.331580617E-2
2.160543074E0	1.209075212E0	6.034722924E-1	-6.391586363E-2
2.162474960E0	1.175519347E0	6.194512844E-1	-1.091896072E-1
2.164572382E0	1.143028736E0	6.471481323E-1	-1.443433315E-1
2.166005345E0	1.103613973E0	6.828345060E-1	-1.842907518E-1
2.168575074E0	1.061536074E0	7.291735411E-1	-2.247707993E-1
2.170432114E0	1.019458055E0	7.824367285E-1	-2.620550692E-1
2.172584574E0	9.763149023E-1	8.442220688E-1	-2.945456207E-1
2.173892729E0	9.353021979E-1	9.070726633E-1	-3.201119602E-1
2.176641035E0	8.937568665E-1	9.672601223E-1	-3.392867148E-1
2.178581845E0	8.522115946E-1	1.028512836E0	-3.515372574E-1
2.180671766E0	8.111988902E-1	1.080178142E0	-3.621899188E-1
2.181951268E0	7.696535587E-1	1.126517177E0	-3.675162494E-1
2.184562614E0	7.270429730E-1	1.159007788E0	-3.664509654E-1
2.186757112E0	6.860303283E-1	1.177117229E0	-3.621899188E-1
2.188753806E0	6.487460732E-1	1.187237263E0	-3.552657068E-1
2.190137076E0	6.072007418E-1	1.184041500E0	-3.536677957E-1
2.192825805E0	5.667206645E-1	1.165399313E0	-3.462109566E-1
2.194842460E0	5.278385282E-1	1.133973956E0	-3.387540877E-1
2.196871651E0	4.868258536E-1	1.092961311E0	-3.286340833E-1
2.198367614E0	4.394215941E-1	1.033839107E0	-3.190467060E-1
2.200928689E0	3.675162494E-1	9.305084944E-1	-3.025351167E-1
2.202908383E0	3.147856593E-1	8.394283652E-1	-2.950782478E-1
2.204958958E0	2.631203234E-1	7.424893379E-1	-2.934803665E-1
2.206393076E0	2.024002522E-1	6.412891746E-1	-2.908172011E-1
2.208951689E0	1.411475390E-1	5.368933082E-1	-2.870887816E-1
2.210845576E0	7.829693705E-2	4.245078862E-1	-2.892192900E-1
2.212946535E0	7.456851192E-3	3.062635362E-1	-2.886866629E-1
2.214200768E0	-7.297061384E-2	1.848233789E-1	-2.924150825E-1
2.217003420E0	-1.677791476E-1	5.326322466E-2	-3.036003709E-1
2.218943537E0	-2.657834888E-1	-8.096009493E-2	-3.158509135E-1
2.221049035E0	-3.701793849E-1	-2.130528986E-1	-3.344930410E-1
2.222398422E0	-4.729774296E-1	-3.350256681E-1	-3.515372574E-1
2.224943460E0	-5.736449361E-1	-4.463458061E-1	-3.648530841E-1
2.227134381E0	-6.705839634E-1	-5.502091050E-1	-3.723099232E-1
2.229001922E0	-7.643272281E-1	-6.572681665E-1	-3.712446690E-1
2.230567345E0	-8.633968234E-1	-7.733820081E-1	-3.723099232E-1
2.233203035E0	-9.608685374E-1	-8.873652816E-1	-3.744404614E-1
2.235231766E0	-1.050350785E0	-9.981527925E-1	-3.691141307E-1
2.237232881E0	-1.131843448E0	-1.095091820E0	-3.701793849E-1
2.238635191E0	-1.198422551E0	-1.181378245E0	-3.664509654E-1
2.241290151E0	-1.258610010E0	-1.263936281E0	-3.605920076E-1
2.243308999E0	-1.303883672E0	-1.336374283E0	-3.515372574E-1
2.245336727E0	-1.328917384E0	-1.382180691E0	-3.472762108E-1
2.247156845E0	-1.345429063E0	-1.429584861E0	-3.542004228E-1
2.249330766E0	-1.362473249E0	-1.486043930E0	-3.589941263E-1
2.251174345E0	-1.389637470E0	-1.549427152E0	-3.733751774E-1
2.253326727E0	-1.416269064E0	-1.611212492E0	-3.968110085E-1
2.254621922E0	-1.447161794E0	-1.668736815E0	-4.293015897E-1
2.257383843E0	-1.471130252E0	-1.712945223E0	-4.554005563E-1
2.259413074E0	-1.485511303E0	-1.741707444E0	-4.846953154E-1
2.261416112E0	-1.510012388E0	-1.782720089E0	-5.001416802E-1
2.262677306E0	-1.534513474E0	-1.842907548E0	-4.980111420E-1
2.265310691E0	-1.568069220E0	-1.907888651E0	-4.905542731E-1
2.267503574E0	-1.604288220E0	-1.984587669E0	-4.676510990E-1
2.269428499E0	-1.646898866E0	-2.067145586E0	-4.431500137E-1
2.270835345E0	-1.680454731E0	-2.142779350E0	-4.175836742E-1
2.273588650E0	-1.709749460E0	-2.207760572E0	-3.952131271E-1
2.275618381E0	-1.738511562E0	-2.259425879E0	-3.765709996E-1
2.277620458E0	-1.761414766E0	-2.303634405E0	-3.621899188E-1
2.278878576E0	-1.783785343E0	-2.332929134E0	-3.526025414E-1
2.281677612E0	-1.793372750E0	-2.345712423E0	-3.499393761E-1
2.283520306E0	-1.798699021E0	-2.337722778E0	-3.520699143E-1
2.285709150E0	-1.793905377E0	-2.313754320E0	-3.584614992E-1
2.287081883E0	-1.782720089E0	-2.279133320E0	-3.691141307E-1
2.289712343E0	-1.765675783E0	-2.236522675E0	-3.760383427E-1
2.291527845E0	-1.744370580E0	-2.183259487E0	-3.856257200E-1
2.293720268E0	-1.716673613E0	-2.112419367E0	-3.909520507E-1
2.294916114E0	-1.678324103E0	-2.028263569E0	-3.968110085E-1
2.297782650E0	-1.644768357E0	-1.945172906E0	-4.037352204E-1
2.299752229E0	-1.605353594E0	-1.863147497E0	-4.053331316E-1
2.301829304E0	-1.564340830E0	-1.777926326E0	-4.191815555E-1
2.303039076E0	-1.517469168E0	-1.694303155E0	-4.282363057E-1
2.305663191E0	-1.473260760E0	-1.617071390E0	-4.255731404E-1
2.307852576E0	-1.402953267E0	-1.510012388E0	-4.186489284E-1
2.309608922E0	-1.359277487E0	-1.446096539E0	-4.149205089E-1
2.311139960E0	-1.311340570E0	-1.384311199E0	-4.138552547E-1
2.313988573E0	-1.260740519E0	-1.326254249E0	-4.101268053E-1
2.315884922E0	-1.209075212E0	-1.268197298E0	-4.053331316E-1
2.318033650E0	-1.151550889E0	-1.209607840E0	-4.085289240E-1
2.319279729E0	-1.091363430E0	-1.156877160E0	-4.170510471E-1
2.322090881E0	-1.035969734E0	-1.105211854E0	-4.319647253E-1
2.323948422E0	-9.699232578E-1	-1.053546548E0	-4.484763443E-1
2.326122381E0	-9.108011127E-1	-1.006674886E0	-4.735100567E-1
2.327497883E0	-8.484831452E-1	-9.576727748E-1	-4.964132309E-1
2.330117189E0	-7.888283134E-1	-9.113337398E-1	-5.225121975E-1
2.331983768E0	-7.254450917E-1	-8.692557812E-1	-5.432848930E-1
2.334114381E0	-6.647250056E-1	-8.255799413E-1	-5.651227832E-1
2.335392037E0	-6.008091569E-1	-7.765777707E-1	-5.965480804E-1
2.338171689E0	-5.422195792E-1	-7.227819562E-1	-6.231797338E-1
2.340053845E0	-4.772384763E-1	-6.641923785E-1	-6.498113275E-1
2.342218227E0	-4.138552547E-1	-6.093312502E-1	-6.748450398E-1
2.343484499E0	-3.526025414E-1	-5.507417321E-1	-6.940197945E-1
2.346087075E0	-2.886866629E-1	-4.884237647E-1	-7.201187611E-1
2.348304381E0	-2.295644879E-1	-4.271710515E-1	-7.440872192E-1
2.350235499E0	-1.688444167E-1	-3.637878001E-1	-7.664577961E-1
2.351654614E0	-1.129180342E-1	-3.046656251E-1	-7.803062201E-1
2.354373381E0	-5.965480953E-2	-2.460760921E-1	-7.930893898E-1
2.356380422E0	-1.278317347E-2	-1.970739216E-1	-8.005462289E-1
2.358404958E0	2.982740477E-2	-1.613875628E-1	-7.962851524E-1
2.359738075E0	6.870955974E-2	-1.342233270E-1	-8.026767969E-1
2.362463189E0	9.693906456E-2	-1.150485575E-1	-8.000136018E-1
2.364405114E0	1.262338310E-1	-9.853696078E-2	-8.000136018E-1
2.366508573E0	1.523328125E-1	-8.575379103E-2	-7.909588814E-1
2.367865883E0	1.794970632E-1	-7.350324839E-2	-7.733820081E-1
2.370503881E0	2.093244642E-1	-5.965480953E-2	-7.499461770E-1
2.372355960E0	2.375539690E-1	-3.994741663E-2	-7.291735411E-1
2.374502727E0	2.636529505E-1	-2.183792181E-2	-6.918892860E-1
2.375854575E0	2.902845740E-1	-4.261057824E-3	-6.471481323E-1
2.378560381E0	3.158509135E-1	1.757686399E-2	-6.013417840E-1
2.380438806E0	3.440804183E-1	3.941478580E-2	-5.491438508E-1
2.382592612E0	3.584614992E-1	5.273059011E-2	-5.006743073E-1
2.383843575E0	3.744404614E-1	5.965480953E-2	-4.474110603E-1
2.386479268E0	3.818973005E-1	6.125270575E-2	-3.968110085E-1
2.388665883E0	3.904194236E-1	5.912217870E-2	-3.467435837E-1
2.390459999E0	3.957457542E-1	5.858954415E-2	-2.998719513E-1
2.392009422E0	3.962783813E-1	6.018744037E-2	-2.604571581E-1
2.394763727E0	3.936152160E-1	6.018744037E-2	-2.247707993E-1
2.396793112E0	3.952131271E-1	5.912217870E-2	-1.912149638E-1
2.398794804E0	3.930825889E-1	6.444849819E-2	-1.592570394E-1
2.400149729E0	3.946804702E-1	7.084008306E-2	-1.272991002E-1
2.402852304E0	3.936152160E-1	7.989483327E-2	-1.027980223E-1
2.404858345E0	4.037352204E-1	9.321063757E-2	-7.829693705E-2
2.406883227E0	4.197141826E-1	1.107875034E-1	-5.752427876E-2
2.408248268E0	4.378236830E-1	1.294296384E-1	-4.048004746E-2
2.410888419E0	4.612595141E-1	1.560612470E-1	-2.876213938E-2
2.412729999E0	4.783037305E-1	1.608549356E-1	-1.757686399E-2
2.414900188E0	4.873584807E-1	1.411475390E-1	-1.171790902E-2
2.416123114E0	4.921521842E-1	1.150485575E-1	1.065264456E-3
2.418957650E0	5.102616549E-1	8.042746782E-2	2.130528912E-2
2.420842460E0	5.230448246E-1	6.231797114E-2	3.408846259E-2
2.422988111E0	5.390238166E-1	4.474110901E-2	4.154531285E-2
2.424248345E0	5.544701219E-1	3.675162420E-2	4.633900523E-2
2.426829152E0	5.800365210E-1	2.503371425E-2	4.846953228E-2
2.428980652E0	5.986786485E-1	1.331580617E-2	4.420847446E-2
2.431021306E0	6.130596995E-1	-5.326322280E-3	3.195793182E-2
2.432318537E0	6.199839115E-1	-3.941478580E-2	1.331580617E-2
2.435143534E0	6.221144199E-1	-7.030745596E-2	-1.597896591E-2
2.437041652E0	6.183860302E-1	-1.017327532E-1	-5.166532472E-2
2.439190073E0	6.130596995E-1	-1.363538504E-1	-8.681905270E-2
2.440594575E0	5.954828262E-1	-1.757686287E-1	-1.294296384E-1
2.443246727E0	5.773733258E-1	-2.162486911E-1	-1.688444167E-1
2.445099037E0	5.523396134E-1	-2.535329461E-1	-2.050634027E-1
2.447277150E0	5.235774517E-1	-2.732403278E-1	-2.375539690E-1
2.448716845E0	5.022721887E-1	-2.817624509E-1	-2.615224123E-1
2.451271150E0	4.862932265E-1	-2.743056118E-1	-2.785666585E-1
2.453264996E0	4.724447727E-1	-2.567287385E-1	-2.844256163E-1
2.455267073E0	4.623247683E-1	-2.306297570E-1	-2.790992856E-1
2.456493460E0	4.532700181E-1	-1.890844405E-1	-2.615224123E-1
2.459323804E0	4.447479248E-1	-1.310275346E-1	-2.359560728E-1
2.461185614E0	4.356931746E-1	-6.018744037E-2	-2.045307755E-1
2.463369727E0	4.303668439E-1	4.261057824E-3	-1.613875628E-1
2.464624383E0	4.277036786E-1	9.054747969E-2	-1.193096191E-1
2.467426919E0	4.181163013E-1	1.704423130E-1	-7.243798673E-2
2.469455880E0	4.048005044E-1	2.439455539E-1	-2.876213938E-2
2.471168998E0	3.829625845E-1	3.025351167E-1	1.757686399E-2
2.472741075E0	3.547330499E-1	3.467435837E-1	5.858954415E-2
2.475525034E0	3.291667104E-1	3.914846778E-1	1.001348570E-1
2.477440922E0	2.961435318E-1	4.351605177E-1	1.352885813E-1
2.479556534E0	2.636529505E-1	4.777711034E-1	1.603222936E-1
2.480834575E0	2.311623842E-1	5.214469433E-1	1.805623323E-1
2.483614227E0	1.981391907E-1	5.651227832E-1	1.965412945E-1
2.485610845E0	1.672465205E-1	6.183860302E-1	2.082591951E-1
2.487659534E0	1.395496428E-1	6.684534550E-1	2.130528986E-1
2.489079960E0	1.070590764E-1	7.089334726E-1	2.183792144E-1
2.491654227E0	7.137271762E-2	7.392935157E-1	2.221076339E-1
2.493508960E0	3.515372798E-2	7.563377619E-1	2.215750068E-1
2.495650765E0	-5.858954508E-3	7.558051348E-1	2.205097377E-1
2.497038614E0	-4.687163606E-2	7.488809228E-1	2.157160491E-1
2.499707726E0	-8.894958347E-2	7.440872192E-1	2.119876295E-1
2.501557806E0	-1.235706806E-1	7.270429730E-1	2.093244642E-1
2.503739265E0	-1.592570394E-1	7.068029642E-1	2.093244642E-1
2.505114768E0	-1.906823367E-1	6.838997602E-1	2.082591951E-1
2.507602883E0	-2.167813182E-1	6.636597514E-1	2.151834220E-1
2.509825650E0	-2.428802997E-1	6.412891746E-1	2.237055302E-1
2.511647537E0	-2.668487430E-1	6.167881489E-1	2.322276533E-1
2.513097422E0	-2.940129936E-1	5.853627920E-1	2.418150306E-1
2.515908919E0	-3.371562064E-1	5.320996046E-1	2.471413612E-1
2.517805845E0	-3.717772961E-1	4.878911078E-1	2.514024079E-1
2.519938803E0	-4.138552547E-1	4.415521026E-1	2.567287385E-1
2.521228345E0	-4.687163532E-1	3.781688809E-1	2.588592768E-1
2.523995380E0	-5.384911895E-1	2.929477394E-1	2.540655732E-1
2.525865729E0	-6.317018270E-1	1.773665249E-1	2.455434501E-1
2.528025803E0	-7.403587699E-1	3.408846259E-2	2.359560728E-1
2.529413037E0	-8.564726114E-1	-1.161138266E-1	2.263686955E-1
2.532029842E0	-9.502158761E-1	-2.466087192E-1	2.135855258E-1
2.533994037E0	-1.022121191E0	-3.451456726E-1	2.055960447E-1
2.536040611E0	-1.075917125E0	-4.159857631E-1	1.960086524E-1
2.537390460E0	-1.112136126E0	-4.633900523E-1	1.901497096E-1
2.540097111E0	-1.130778193E0	-4.964132309E-1	1.842907518E-1
2.541959537E0	-1.141963482E0	-5.150553584E-1	1.789644361E-1
2.544127880E0	-1.140898228E0	-5.305017233E-1	1.768338978E-1
2.545376729E0	-1.137169838E0	-5.475459099E-1	1.848233789E-1
2.547982537E0	-1.121190786E0	-5.534048676E-1	1.965412945E-1
2.550150768E0	-1.090830803E0	-5.358279943E-1	2.087918371E-1
2.551923575E0	-1.051416039E0	-4.958806038E-1	2.284992188E-1
2.553454537E0	-1.007740140E0	-4.420847595E-1	2.460760921E-1
2.556283957E0	-9.582054019E-1	-3.888215125E-1	2.604571581E-1
2.558167614E0	-9.102684855E-1	-3.408846259E-1	2.727077007E-1
2.560329842E0	-8.612663150E-1	-3.041329980E-1	2.865561247E-1
2.561533768E0	-8.191883564E-1	-2.759034932E-1	3.036003709E-1
2.564387149E0	-7.765777707E-1	-2.572613657E-1	3.126551211E-1
2.566202037E0	-7.334345579E-1	-2.450108230E-1	3.265035450E-1
2.568417419E0	-6.913566589E-1	-2.300971150E-1	3.366235793E-1
2.569740037E0	-6.428871155E-1	-2.183792144E-1	3.462109566E-1
2.572411495E0	-5.976133347E-1	-2.103897333E-1	3.504720032E-1
2.574251960E0	-5.486112237E-1	-2.077265680E-1	3.557983339E-1
2.576408188E0	-4.996090233E-1	-2.061286718E-1	3.536677957E-1
2.577711152E0	-4.474110603E-1	-2.034655064E-1	3.494067490E-1
2.580465342E0	-3.898867965E-1	-1.928128600E-1	3.408846259E-1
2.582356498E0	-3.350256681E-1	-1.864212751E-1	3.286340833E-1
2.584510880E0	-2.838929892E-1	-1.869539171E-1	3.110572100E-1
2.585778268E0	-2.327602804E-1	-1.917476058E-1	2.902845740E-1
2.588465998E0	-1.837581247E-1	-1.981391907E-1	2.737729549E-1
2.590552768E0	-1.219727769E-1	-1.874865443E-1	2.482066154E-1
2.592448537E0	-5.060006306E-2	-1.422128081E-1	2.226402760E-1
2.593905614E0	2.343581803E-2	-8.202536404E-2	1.917476058E-1
2.596664380E0	9.693906456E-2	-1.331580617E-2	1.624528319E-1
2.598562883E0	1.715075821E-1	5.060006306E-2	1.390170157E-1
2.600694803E0	2.343581766E-1	1.049285457E-1	1.203748807E-1
2.601904345E0	2.886866629E-1	1.368864775E-1	1.065264493E-1
2.604751188E0	3.360909224E-1	1.576591432E-1	9.800432622E-2
2.606726075E0	3.765709996E-1	1.656486243E-1	9.693906456E-2
2.608796265E0	4.154531360E-1	1.773665249E-1	9.640643001E-2
2.610172575E0	4.538026452E-1	1.906823367E-1	9.427590668E-2
2.612790380E0	4.878911078E-1	2.061286718E-1	8.735168725E-2
2.614630114E0	5.251753926E-1	2.226402760E-1	8.415589482E-2
2.616785918E0	5.581985712E-1	2.471413612E-1	8.575379103E-2
2.618030768E0	5.933523178E-1	2.769687474E-1	9.267801046E-2
2.620842688E0	6.279733777E-1	3.147856593E-1	8.948221803E-2
2.622705537E0	6.556702852E-1	3.456783295E-1	6.391586363E-2
2.624873418E0	6.902913451E-1	3.834952116E-1	4.314320907E-2
2.626122806E0	7.249124646E-1	4.324973822E-1	1.757686399E-2
2.628760421E0	7.819041014E-1	5.193164349E-1	-2.716424316E-2
2.630914883E0	8.143946528E-1	5.773733258E-1	-6.338323653E-2
2.632714537E0	8.490157723E-1	6.311691999E-1	-1.006674916E-1
2.634236306E0	8.772453070E-1	6.764429212E-1	-1.432780623E-1
2.637042918E0	9.086706042E-1	7.153250575E-1	-1.816275865E-1
2.638973191E0	9.326390028E-1	7.542072535E-1	-2.210423797E-1
2.641073803E0	9.550095797E-1	7.914915085E-1	-2.583266199E-1
2.642326114E0	9.715211987E-1	8.223841786E-1	-3.009372056E-1
2.645131111E0	9.885654449E-1	8.506136537E-1	-3.387540877E-1
2.647067691E0	9.997506738E-1	8.799084425E-1	-3.733751774E-1
2.649161918E0	1.013599157E0	9.065400362E-1	-3.962783813E-1
2.650554998E0	1.015729666E0	9.305084944E-1	-4.101268053E-1
2.653167149E0	1.018392801E0	9.512811303E-1	-4.175836742E-1
2.655161572E0	1.016794920E0	9.683253765E-1	-4.239752591E-1
2.657178649E0	1.007207513E0	9.683253765E-1	-4.261057973E-1
2.658424421E0	9.880327582E-1	9.496832490E-1	-4.159857631E-1
2.661235264E0	9.619337916E-1	9.182579517E-1	-4.021373391E-1
2.663136344E0	9.278453588E-1	8.825715780E-1	-3.845604658E-1
2.665266034E0	8.985505700E-1	8.495483994E-1	-3.680488765E-1
2.666518652E0	8.729842305E-1	8.303736448E-1	-3.573962152E-1
2.669143037E0	8.527442217E-1	8.282431364E-1	-3.504720032E-1
2.671350880E0	8.383631110E-1	8.356999755E-1	-3.408846259E-1
2.673189229E0	8.207862377E-1	8.490157723E-1	-3.307646215E-1
2.674639691E0	8.096010089E-1	8.649947643E-1	-3.206445873E-1
2.677418880E0	7.957525253E-1	8.809736967E-1	-3.142530024E-1
2.679440421E0	7.824367285E-1	8.958874345E-1	-3.067961633E-1
2.681465149E0	7.744472623E-1	9.065400362E-1	-3.036003709E-1
2.682823037E0	7.574030161E-1	9.065400362E-1	-3.020024598E-1
2.685521880E0	7.392935157E-1	9.012137055E-1	-3.089267015E-1
2.687403498E0	7.206513882E-1	8.953547478E-1	-3.174487948E-1
2.689552418E0	7.046724558E-1	8.884305358E-1	-3.227751255E-1
2.691036883E0	6.881608367E-1	8.799084425E-1	-3.302319944E-1
2.693546380E0	6.689860821E-1	8.655273914E-1	-3.328951299E-1
2.695408998E0	6.450176239E-1	8.404936790E-1	-3.366235793E-1
2.697541649E0	6.146575809E-1	8.005462289E-1	-3.398193717E-1
2.698827421E0	5.826996565E-1	7.526093125E-1	-3.366235793E-1
2.701598418E0	5.475459099E-1	6.972155571E-1	-3.350256681E-1
2.703567268E0	5.060006380E-1	6.364955306E-1	-3.307646215E-1
2.705624341E0	4.703142643E-1	5.795038939E-1	-3.243730366E-1
2.706904575E0	4.303668439E-1	5.305017233E-1	-3.179814517E-1
2.709496883E0	3.989415467E-1	4.820321798E-1	-3.137203753E-1
2.711701537E0	3.685815036E-1	4.436826408E-1	-3.083940744E-1
2.713493152E0	3.451456726E-1	4.170510471E-1	-3.083940744E-1
2.715002460E0	3.201119602E-1	3.920173049E-1	-3.099919558E-1
2.717778533E0	3.009372056E-1	3.707120419E-1	-3.105245829E-1
2.719711537E0	2.801645398E-1	3.440804183E-1	-3.195793331E-1
2.721810610E0	2.540655732E-1	3.169161677E-1	-3.307646215E-1
2.723129537E0	2.258360684E-1	2.790992856E-1	-3.398193717E-1
2.725868303E0	1.933455020E-1	2.338255495E-1	-3.499393761E-1
2.727785768E0	1.352885813E-1	1.422128081E-1	-3.659183383E-1
2.729914764E0	9.267801046E-2	7.616640627E-2	-3.797667921E-1
2.731481268E0	4.953479767E-2	1.065264456E-3	-3.930825889E-1
2.733909803E0	-1.384843793E-2	-1.017327532E-1	-4.042678475E-1
2.735760960E0	-8.628641814E-2	-2.391518652E-1	-3.914846778E-1
2.737905841E0	-1.645833552E-1	-3.760383427E-1	-3.834952116E-1
2.739155883E0	-2.359560728E-1	-4.953479767E-1	-3.771036267E-1
2.741963264E0	-3.073287904E-1	-6.109291911E-1	-3.680488765E-1
2.743895268E0	-3.904194236E-1	-7.520766854E-1	-3.643204570E-1
2.745994072E0	-4.868258536E-1	-9.198558331E-1	-3.744404614E-1
2.747335498E0	-5.885586143E-1	-1.094026566E0	-3.552657068E-1
2.749905306E0	-6.615292430E-1	-1.211205721E0	-3.451456726E-1
2.752070806E0	-7.174556255E-1	-1.280447841E0	-3.430151641E-1
2.754107302E0	-7.621967196E-1	-1.324656367E0	-3.446130455E-1
2.755491421E0	-7.925567627E-1	-1.340635300E0	-3.515372574E-1
2.758164956E0	-8.287757635E-1	-1.361940622E0	-3.605920076E-1
2.760153037E0	-8.889631629E-1	-1.451955438E0	-3.637878001E-1
2.762197033E0	-9.528790712E-1	-1.547296643E0	-3.270362020E-1
2.763573267E0	-9.912285805E-1	-1.602690339E0	-3.030677438E-1
2.766254264E0	-1.024784446E0	-1.641572475E0	-2.961435318E-1
2.768187152E0	-1.062601328E0	-1.686313629E0	-2.785666585E-1
2.770285379E0	-1.096689701E0	-1.719869494E0	-2.721750736E-1
2.771798306E0	-1.162203550E0	-1.832787514E0	-2.535329461E-1
2.774290302E0	-1.220260382E0	-1.938781261E0	-1.763012707E-1
2.776284264E0	-1.252750993E0	-1.998968720E0	-1.161138266E-1
2.778301341E0	-1.275654197E0	-2.034122467E0	-6.498113275E-2
2.779567498E0	-1.286306858E0	-2.045307636E0	-2.130528912E-2
2.782358379E0	-1.294828892E0	-2.083124638E0	7.776430249E-2
2.784288191E0	-1.314536333E0	-2.142246723E0	1.960086524E-1
2.786389418E0	-1.309742689E0	-2.155030012E0	2.785666585E-1
2.787803883E0	-1.292165756E0	-2.150768995E0	3.669835925E-1
2.790305691E0	-1.280447841E0	-2.156627893E0	4.575310946E-1
2.792474998E0	-1.243163586E0	-2.123072147E0	4.969458580E-1
2.794284075E0	-1.219727755E0	-2.111886740E0	5.438175201E-1
2.795765229E0	-1.212803602E0	-2.132659435E0	5.661880374E-1
2.798547187E0	-1.188302517E0	-2.105495214E0	5.209143162E-1
2.800458844E0	-1.164334059E0	-2.095907927E0	5.091964006E-1
2.802593225E0	-1.139300346E0	-2.080994129E0	4.724447727E-1
2.803892344E0	-1.130245566E0	-2.065547705E0	4.117247164E-1
2.806650148E0	-1.121190786E0	-2.090048790E0	4.063983858E-1
2.808646614E0	-1.093493938E0	-2.075667858E0	3.637878001E-1
2.810681725E0	-1.086037159E0	-2.079928875E0	3.392867148E-1
2.812084844E0	-1.057274938E0	-2.079396248E0	3.494067490E-1
2.814676187E0	-1.018925428E0	-2.028263569E0	3.014698327E-1
2.816539883E0	-1.004011750E0	-2.036785603E0	3.249056637E-1
2.818671418E0	-9.667274952E-1	-1.995240331E0	2.801645398E-1
2.819963960E0	-9.454222322E-1	-1.959553957E0	2.354234457E-1
2.822727802E0	-9.171926975E-1	-1.935052872E0	2.540655732E-1
2.824683960E0	-8.724516034E-1	-1.841842294E0	1.832254827E-1
2.826773225E0	-8.586031795E-1	-1.809351683E0	1.928128600E-1
2.828027767E0	-8.191883564E-1	-1.751827359E0	1.949433982E-1
2.830636498E0	-7.856325507E-1	-1.643703103E0	1.299622655E-1
2.832858225E0	-7.648598552E-1	-1.600027204E0	1.837581247E-1
2.834775229E0	-7.323693037E-1	-1.485511303E0	1.187769845E-1
2.836154806E0	-7.313040495E-1	-1.471662879E0	1.171790883E-1
2.838925610E0	-7.121292949E-1	-1.402953267E0	1.613875628E-1
2.840831691E0	-6.833671331E-1	-1.290567875E0	9.800432622E-2
2.842957148E0	-6.849650741E-1	-1.271925807E0	1.677791476E-1
2.844190960E0	-6.631271243E-1	-1.191498280E0	1.379517466E-1
2.847014417E0	-6.668555737E-1	-1.168062449E0	1.661812514E-1
2.848956691E0	-6.492787004E-1	-1.100418210E0	1.651159972E-1
2.851059956E0	-6.482134461E-1	-1.052481294E0	1.619201899E-1
2.852482844E0	-6.263754964E-1	-9.752495885E-1	1.768338978E-1
2.855054494E0	-6.173207760E-1	-9.113337398E-1	1.475391239E-1
2.857048456E0	-5.992112756E-1	-8.351673484E-1	1.699096859E-1
2.859050302E0	-5.885586143E-1	-7.733820081E-1	1.336906850E-1
2.860335691E0	-5.651227832E-1	-6.902913451E-1	1.384843737E-1
2.863108302E0	-5.534048676E-1	-6.524744630E-1	1.320927888E-1
2.865002460E0	-5.246427655E-1	-5.656554103E-1	1.193096191E-1
2.867139264E0	-5.123922229E-1	-5.363606811E-1	1.533980817E-1
2.868467767E0	-4.692489803E-1	-4.612595141E-1	1.097222418E-1
2.871041383E0	-4.511395097E-1	-4.255731404E-1	1.624528319E-1
2.873218883E0	-4.170510471E-1	-3.813646734E-1	1.166464612E-1
2.874985883E0	-3.898867965E-1	-3.275688291E-1	1.411475390E-1
2.876525075E0	-3.637878001E-1	-3.169161677E-1	1.640507281E-1
2.879307494E0	-3.302319944E-1	-2.476739883E-1	9.054747969E-2
2.881184460E0	-3.115898669E-1	-2.290318608E-1	1.102548689E-1
2.883338571E0	-2.801645398E-1	-2.071939409E-1	6.977482140E-2
2.884723998E0	-2.668487430E-1	-2.125202566E-1	1.320927888E-1
2.887395340E0	-2.412824035E-1	-2.146507949E-1	1.059938148E-1
2.889424148E0	-2.146507949E-1	-1.901497096E-1	1.395496428E-1
2.891426187E0	-1.944107562E-1	-1.933455020E-1	1.858886480E-1
2.892918190E0	-1.560612470E-1	-1.502022892E-1	1.443433315E-1
2.895429917E0	-1.427454352E-1	-1.395496428E-1	1.842907518E-1
2.897324460E0	-1.203748807E-1	-1.422128081E-1	1.986718178E-1
2.899440879E0	-9.054747969E-2	-1.043959185E-1	1.603222936E-1
2.900869767E0	-8.415589482E-2	-1.038632840E-1	1.864212751E-1
2.903497956E0	-6.338323653E-2	-1.139832959E-1	1.954760253E-1
2.905517960E0	-3.941478580E-2	-8.735168725E-2	1.496696621E-1
2.907529763E0	-3.941478580E-2	-8.096009493E-2	1.651159972E-1
2.908801037E0	-2.609897964E-2	-9.480853379E-2	1.731054783E-1
2.911507921E0	-3.195793368E-3	-8.628641814E-2	1.491370201E-1
2.913583652E0	5.326322280E-3	-7.084008306E-2	1.342233270E-1
2.915507344E0	4.793690052E-3	-7.030745596E-2	1.129180342E-1
2.916899537E0	6.391586736E-3	-7.243798673E-2	1.091896072E-1
2.919686840E0	1.597896591E-2	-7.669904083E-2	1.043959185E-1
2.921716417E0	2.556634694E-2	-7.776430249E-2	1.027980223E-1
2.923733148E0	3.089267015E-2	-6.285060197E-2	7.989483327E-2
2.925104306E0	3.195793182E-2	-5.486112088E-2	6.977482140E-2
2.927790302E0	3.195793182E-2	-3.941478580E-2	2.450108156E-2
2.929677344E0	2.769687586E-2	-1.970739290E-2	1.225054078E-2
2.931821148E0	2.183792181E-2	-7.989482954E-3	-1.917476021E-2
2.933381844E0	1.651159860E-2	-1.651159860E-2	-2.663161233E-2
2.935815109E0	1.597896591E-2	-2.237055451E-2	-1.970739290E-2
2.937740575E0	1.757686399E-2	-1.597896591E-2	2.663161140E-3
2.939811225E0	2.183792181E-2	-4.261057824E-3	1.597896591E-2
2.941170883E0	2.450108156E-2	1.757686399E-2	1.491370238E-2
2.943868609E0	1.597896591E-2	4.154531285E-2	-1.065264456E-3
2.945783575E0	1.810949668E-2	5.805691332E-2	-2.663161140E-3
2.947914686E0	1.331580617E-2	8.309062570E-2	-1.544633508E-2
2.949190729E0	-5.326322280E-4	1.012001261E-1	-2.663161233E-2
2.951774614E0	-1.438106969E-2	1.171790883E-1	-4.101268202E-2
2.954000148E0	-2.609897964E-2	1.283643693E-1	-4.900216311E-2
2.955741767E0	-3.834952042E-2	1.384843737E-1	-5.539375171E-2
2.957315921E0	-6.125270575E-2	1.549959779E-1	-5.273059011E-2
2.960068494E0	-7.829693705E-2	1.699096859E-1	-7.563377917E-2
2.961972498E0	-9.640643001E-2	1.768338978E-1	-9.747169912E-2
2.964099571E0	-1.107875034E-1	1.768338978E-1	-7.137271762E-2
2.965431690E0	-1.193096191E-1	1.832254827E-1	-5.912217870E-2
2.968156379E0	-1.336906850E-1	1.826928556E-1	-4.527373984E-2
2.970096960E0	-1.384843737E-1	1.853560209E-1	-2.450108156E-2
2.972201955E0	-1.459412277E-1	1.794970632E-1	-2.503371425E-2
2.973622306E0	-1.512675583E-1	1.395496428E-1	-2.024002373E-2
2.976196340E0	-1.384843737E-1	1.022653878E-1	-1.065264456E-2
2.978089921E0	-1.326254308E-1	7.936219871E-2	1.438106969E-2
2.980191686E0	-1.241033077E-1	7.403588295E-2	2.609897964E-2
2.981468690E0	-1.006674916E-1	7.403588295E-2	4.474110901E-2
2.984247417E0	-8.255799860E-2	7.137271762E-2	5.805691332E-2
2.986143344E0	-7.137271762E-2	7.243798673E-2	4.527373984E-2
2.988276917E0	-6.178534031E-2	8.309062570E-2	2.237055451E-2
2.989568883E0	-5.858954415E-2	8.948221803E-2	2.556634694E-2
2.992196421E0	-5.486112088E-2	9.747169912E-2	4.314320907E-2
2.994361763E0	-4.527373984E-2	1.065264493E-1	5.060006306E-2
2.996210883E0	-3.728425503E-2	1.145159304E-1	7.882957160E-2
2.997676883E0	-2.396845073E-2	1.161138266E-1	1.432780623E-1
3.000444609E0	-1.278317347E-2	9.054747969E-2	1.880191714E-1
3.002359921E0	-2.130528912E-3	7.563377917E-2	1.949433982E-1
3.004475609E0	8.522115648E-3	8.255799860E-2	1.331580579E-1
3.005891344E0	6.391586736E-3	8.255799860E-2	4.633900523E-2
3.008531648E0	1.597896684E-3	7.030745596E-2	-5.006742850E-2
3.010490306E0	-2.556634694E-2	3.675162420E-2	-1.928128600E-1
3.012561878E0	-6.444849819E-2	-1.118527725E-2	-3.414172530E-1
3.014017960E0	-1.107875034E-1	-6.764429063E-2	-4.974785149E-1
3.016565109E0	-1.709749401E-1	-1.288969964E-1	-6.620618701E-1
3.018558725E0	-2.284992188E-1	-1.864212751E-1	-8.127967715E-1
3.020575801E0	-2.849582434E-1	-2.455434501E-1	-9.528790712E-1
3.021865844E0	-3.382214606E-1	-3.057309091E-1	-1.030643344E0
3.024631532E0	-3.771036267E-1	-3.467435837E-1	-1.022121191E0
3.026515729E0	-3.973436356E-1	-3.589941263E-1	-9.534116983E-1
3.028660878E0	-4.000068009E-1	-3.371562064E-1	-8.447546959E-1
3.030037306E0	-3.952131271E-1	-3.057309091E-1	-7.323693037E-1
3.032513998E0	-3.792341352E-1	-2.615224123E-1	-6.162554622E-1
3.034728037E0	-3.595267534E-1	-2.114549875E-1	-5.267732739E-1
3.036499960E0	-3.456783295E-1	-1.592570394E-1	-4.580637217E-1
3.038035921E0	-3.350256681E-1	-1.097222418E-1	-4.271710515E-1
3.040817148E0	-3.318298757E-1	-6.977482140E-2	-4.266384244E-1
3.042721690E0	-3.456783295E-1	-3.355583176E-2	-4.655205607E-1
3.044861571E0	-3.648530841E-1	-2.876213938E-2	-5.049353242E-1
3.046378344E0	-3.834952116E-1	-2.876213938E-2	-5.427522659E-1
3.048917686E0	-4.085289240E-1	-3.408846259E-2	-5.779059529E-1
3.050843344E0	-4.298342168E-1	-6.711166352E-2	-6.162554622E-1
3.052947224E0	-4.490089715E-1	-8.735168725E-2	-6.418218613E-1
3.054448729E0	-4.548679292E-1	-8.681905270E-2	-6.620618701E-1
3.056940340E0	-4.580637217E-1	-7.403588295E-2	-6.753776670E-1
3.058837998E0	-4.468784332E-1	-4.261057824E-2	-7.009440064E-1
3.060934147E0	-4.181163013E-1	1.491370238E-2	-7.579356432E-1
3.062232537E0	-3.893541694E-1	5.699164793E-2	-8.341020942E-1
3.064989378E0	-3.589941263E-1	7.456851006E-2	-8.479505181E-1
3.066948844E0	-3.296993375E-1	7.137271762E-2	-8.197209835E-1
3.069034186E0	-3.051982522E-1	5.060006306E-2	-7.760451436E-1
3.070295498E0	-2.764361203E-1	3.462109342E-2	-7.217166424E-1
3.072899460E0	-2.492718846E-1	1.810949668E-2	-6.668555737E-1
3.075092421E0	-2.183792144E-1	8.522115648E-3	-6.050702333E-1
3.076959767E0	-1.848233789E-1	8.522115648E-3	-5.475459099E-1
3.078409113E0	-1.486043930E-1	2.396845073E-2	-4.964132309E-1
3.081185032E0	-1.070590764E-1	5.113269389E-2	-4.569984376E-1
3.083105229E0	-6.498113275E-2	9.054747969E-2	-4.213120937E-1
3.085215532E0	-1.757686399E-2	1.347559541E-1	-3.946804702E-1
3.086507460E0	2.982740477E-2	1.858886480E-1	-3.723099232E-1
3.089271417E0	7.882957160E-2	2.354234457E-1	-3.526025414E-1
3.091299878E0	1.241033077E-1	2.902845740E-1	-3.259709179E-1
3.093316493E0	1.725728363E-1	3.371562064E-1	-3.041329980E-1
3.094836536E0	2.178465873E-1	3.893541694E-1	-2.806971967E-1
3.097310147E0	2.620550692E-1	4.404868484E-1	-2.556634545E-1
3.099303532E0	3.073287904E-1	4.926848114E-1	-2.269013226E-1
3.101304686E0	3.515372574E-1	5.475459099E-1	-2.045307755E-1
3.102583652E0	3.920173049E-1	6.024070382E-1	-1.794970632E-1
3.105360801E0	4.346278906E-1	6.615292430E-1	-1.576591432E-1
3.107389263E0	4.740426838E-1	7.227819562E-1	-1.390170157E-1
3.109405147E0	5.171858668E-1	7.861651778E-1	-1.219727769E-1
3.110679383E0	5.518069863E-1	8.495483994E-1	-1.102548689E-1
3.113425613E0	5.885586143E-1	9.182579517E-1	-1.006674916E-1
3.115489801E0	6.258428693E-1	9.869675040E-1	-8.575379103E-2
3.117272498E0	6.620618701E-1	1.061536074E0	-7.297061384E-2
3.118731536E0	7.036072016E-1	1.144093990E0	-5.858954415E-2
3.121571647E0	7.408914566E-1	1.221858382E0	-4.101268202E-2
3.123494344E0	7.797735929E-1	1.302285790E0	-2.503371425E-2
3.125602455E0	8.197209835E-1	1.383778572E0	-1.065264456E-2
3.126888460E0	8.591358066E-1	1.463673353E0	9.587380104E-3
3.129659070E0	9.017463326E-1	1.543035507E0	3.249056637E-2
3.131687686E0	9.486179948E-1	1.618136764E0	5.219795927E-2
3.133689455E0	9.954896569E-1	1.694303155E0	7.829693705E-2
3.135106883E0	1.047154903E0	1.766208410E0	1.081243455E-1
3.137691955E0	1.099352956E0	1.832254887E0	1.592570394E-1
3.139594190E0	1.159007788E0	1.904692888E0	2.125202566E-1
3.141701224E0	1.225586772E0	1.984587669E0	2.503371537E-1
3.142948075E0	1.303883672E0	2.065547705E0	2.908172011E-1
3.145756724E0	1.385909081E0	2.148638487E0	3.286340833E-1
3.147785186E0	1.472728133E0	2.230663776E0	3.685815036E-1
3.149786339E0	1.563808203E0	2.307362795E0	4.111920893E-1
3.151044229E0	1.652757764E0	2.385127068E0	4.490089715E-1
3.153655960E0	1.785383224E0	2.506034613E0	5.161206126E-1
3.155862960E0	1.875930667E0	2.583266258E0	5.619270205E-1
3.157722575E0	1.963814974E0	2.659965277E0	6.103965044E-1
3.159156536E0	2.054362535E0	2.734533787E0	6.599313021E-1
3.161938955E0	2.142779350E0	2.804308653E0	7.073355913E-1
3.163885190E0	2.225870132E0	2.867159367E0	7.574030161E-1
3.165983685E0	2.308428049E0	2.923085690E0	7.984157205E-1
3.167930536E0	2.388855457E0	2.977414131E0	8.362326026E-1
3.170039647E0	2.465021849E0	3.023753166E0	8.756473660E-1
3.171931844E0	2.532666206E0	3.056243658E0	9.054747820E-1
3.174069685E0	2.596049547E0	3.078614235E0	9.283779860E-1
3.175473498E0	2.653041124E0	3.094593287E0	9.512811303E-1
3.178064378E0	2.697782278E0	3.099386930E0	9.731190801E-1
3.180058339E0	2.736664295E0	3.089799643E0	9.960222840E-1
3.182060070E0	2.767024517E0	3.069559574E0	1.021588564E0
3.183364806E0	2.795253992E0	3.041330099E0	1.040230751E0
3.186116570E0	2.813896179E0	3.008306742E0	1.042361259E0
3.188145455E0	2.827211857E0	2.970489979E0	1.038100243E0
3.190162147E0	2.831472874E0	2.922553062E0	1.026382327E0
3.191472959E0	2.824016094E0	2.863430977E0	1.012001276E0
3.194030459E0	2.808037043E0	2.793656111E0	9.981527925E-1
3.196223113E0	2.783535957E0	2.715891838E0	9.805759192E-1
3.197995767E0	2.743056059E0	2.621083260E0	9.582054019E-1
3.199527190E0	2.697782278E0	2.521481037E0	9.353021979E-1
3.202316185E0	2.640257835E0	2.412823915E0	9.017463326E-1
3.204329998E0	2.578472614E0	2.291383743E0	8.692557812E-1
3.206347262E0	2.514556646E0	2.156095266E0	8.394283652E-1
3.207629536E0	2.444249392E0	2.006425619E0	8.127967715E-1
3.210404262E0	2.370213509E0	1.847168565E0	7.808388472E-1
3.212326575E0	2.292448997E0	1.683650494E0	7.430219650E-1
3.214449262E0	2.216815233E0	1.518001795E0	6.918892860E-1
3.215886190E0	2.135322571E0	1.361940622E0	6.332997084E-1
3.218442185E0	2.050101519E0	1.210140467E0	5.661880374E-1
3.220357036E0	1.960086584E0	1.066862345E0	4.958806038E-1
3.222437916E0	1.867408633E0	9.225190282E-1	4.245078862E-1
3.223764421E0	1.772600055E0	7.749798894E-1	3.526025414E-1
3.226494878E0	1.682585239E0	6.258428693E-1	2.775014043E-1
3.228383113E0	1.593103051E0	4.756405652E-1	1.997370869E-1
3.230524685E0	1.519067168E0	3.291667104E-1	1.171790883E-1
3.231798498E0	1.452488065E0	1.981391907E-1	2.982740477E-2
3.234379921E0	1.397626996E0	8.415589482E-2	-5.965480953E-2
3.236593229E0	1.355016351E0	-6.391586736E-3	-1.496696621E-1
3.238430536E0	1.319329977E0	-7.243798673E-2	-2.348908186E-1
3.239930306E0	1.291633129E0	-1.161138266E-1	-3.147856593E-1
3.242691878E0	1.263936281E0	-1.470064968E-1	-3.824299276E-1
3.244720454E0	1.243163586E0	-1.581917703E-1	-4.399542212E-1
3.246721954E0	1.224521518E0	-1.518001854E-1	-4.905542731E-1
3.248106267E0	1.203748822E0	-1.262338310E-1	-5.283711553E-1
3.250778377E0	1.184041500E0	-8.309062570E-2	-5.507417321E-1
3.252807224E0	1.165399313E0	-2.822950855E-2	-5.624596477E-1
3.254809454E0	1.140365601E0	4.367584363E-2	-5.603290796E-1
3.256348998E0	1.115864515E0	1.246359423E-1	-5.475459099E-1
3.258812301E0	1.068460226E0	2.641855776E-1	-5.070658922E-1
3.260744306E0	1.053013921E0	3.110572100E-1	-4.916195571E-1
3.262822339E0	1.019990683E0	4.117247164E-1	-4.559331834E-1
3.264088113E0	9.880327582E-1	5.139901042E-1	-4.213120937E-1
3.266878454E0	9.432916641E-1	6.679208279E-1	-3.595267534E-1
3.268768767E0	9.134642482E-1	7.590008974E-1	-3.233077526E-1
3.270907877E0	8.825715780E-1	8.415589333E-1	-2.950782478E-1
3.272242267E0	8.506136537E-1	9.161274433E-1	-2.732403278E-1
3.274785921E0	8.202536106E-1	9.837717414E-1	-2.519350350E-1
3.276992531E0	7.941546440E-1	1.040763378E0	-2.364887148E-1
3.278748344E0	7.707188129E-1	1.086037159E0	-2.242381722E-1
3.280379959E0	7.446198463E-1	1.127582431E0	-2.178465873E-1
3.283063493E0	7.249124646E-1	1.160605669E0	-2.173139453E-1
3.285072844E0	7.052050829E-1	1.185106754E0	-2.151834220E-1
3.287109339E0	6.908239722E-1	1.206411958E0	-2.151834220E-1
3.288461806E0	6.743124127E-1	1.219195127E0	-2.199771106E-1
3.291165608E0	6.647250056E-1	1.229315162E0	-2.231729031E-1
3.293115767E0	6.551376581E-1	1.234641552E0	-2.295644879E-1
3.295194877E0	6.519418359E-1	1.239435196E0	-2.332929224E-1
3.296882036E0	6.551376581E-1	1.243163586E0	-2.375539690E-1
3.299188300E0	6.556702852E-1	1.243163586E0	-2.375539690E-1
3.301005729E0	6.625944972E-1	1.247424722E0	-2.375539690E-1
3.303182800E0	6.769755483E-1	1.245294094E0	-2.348908186E-1
3.304460267E0	6.908239722E-1	1.246892095E0	-2.311623842E-1
3.307238877E0	7.062703371E-1	1.246892095E0	-2.263686955E-1
3.309177690E0	7.254450917E-1	1.250087857E0	-2.178465873E-1
3.311284685E0	7.472830415E-1	1.252218366E0	-2.077265680E-1
3.312546267E0	7.707188129E-1	1.250620484E0	-2.024002522E-1
3.315318690E0	7.968178391E-1	1.249022603E0	-1.933455020E-1
3.317357844E0	8.181231022E-1	1.249555230E0	-1.858886480E-1
3.319292729E0	8.415589333E-1	1.249022603E0	-1.821602285E-1
3.320661806E0	8.681905270E-1	1.244761467E0	-1.778991669E-1
3.323435531E0	8.921589851E-1	1.241033077E0	-1.757686287E-1
3.325340613E0	9.171926975E-1	1.233043551E0	-1.763012707E-1
3.327465993E0	9.363674521E-1	1.229315162E0	-1.810949594E-1
3.328757421E0	9.592706561E-1	1.225586772E0	-1.821602285E-1
3.331522531E0	9.784454107E-1	1.220793009E0	-1.874865443E-1
3.333444844E0	9.981527925E-1	1.213868856E0	-1.944107562E-1
3.335568608E0	1.014131784E0	1.206944585E0	-2.008023560E-1
3.337002882E0	1.029578090E0	1.202150941E0	-2.055960447E-1
3.339564339E0	1.045024395E0	1.197357297E0	-2.109223604E-1
3.341390767E0	1.055677056E0	1.192030907E0	-2.151834220E-1
3.343560608E0	1.067394972E0	1.187769890E0	-2.231729031E-1
3.344813344E0	1.075917125E0	1.183508754E0	-2.311623842E-1
3.347617492E0	1.080710769E0	1.176584601E0	-2.380866110E-1
3.349555767E0	1.091896057E0	1.170725584E0	-2.423476577E-1
3.351648839E0	1.097755075E0	1.165931940E0	-2.396845073E-1
3.353004882E0	1.108407617E0	1.157409787E0	-2.327602804E-1
3.355546806E0	1.115331888E0	1.149420381E0	-2.237055302E-1
3.357726075E0	1.125451922E0	1.135039330E0	-2.125202566E-1
3.359518229E0	1.133441329E0	1.118527651E0	-2.008023560E-1
3.361025690E0	1.140898228E0	1.098287702E0	-1.869539171E-1
3.363816762E0	1.151018262E0	1.066329718E0	-1.699096859E-1
3.365693575E0	1.155279279E0	1.043426514E0	-1.576591432E-1
3.367847569E0	1.160073042E0	1.018925428E0	-1.507349163E-1
3.369107344E0	1.164334059E0	9.922938347E-1	-1.432780623E-1
3.371904377E0	1.163268805E0	9.587380290E-1	-1.326254308E-1
3.373852190E0	1.165399313E0	9.257147908E-1	-1.262338310E-1
3.375933992E0	1.168062449E0	8.921589851E-1	-1.209075153E-1
3.377339113E0	1.166464567E0	8.580704927E-1	-1.177117229E-1
3.379936646E0	1.170192957E0	8.229168057E-1	-1.161138266E-1
3.381843036E0	1.168595076E0	7.898935676E-1	-1.118527651E-1
3.383945877E0	1.168595076E0	7.526093125E-1	-1.102548689E-1
3.385164767E0	1.163268805E0	7.211840153E-1	-1.081243455E-1
3.388001146E0	1.159540415E0	6.913566589E-1	-1.049285457E-1
3.389919536E0	1.152083516E0	6.657902598E-1	-9.853696078E-2
3.392031223E0	1.144626617E0	6.482134461E-1	-9.374327213E-2
3.393277382E0	1.137702465E0	6.375607848E-1	-9.054747969E-2
3.395839459E0	1.132376075E0	6.338323355E-1	-9.001484513E-2
3.398068190E0	1.125451922E0	6.317018270E-1	-9.001484513E-2
3.400041882E0	1.121723413E0	6.343649626E-1	-9.640643001E-2
3.401366767E0	1.116397142E0	6.285060048E-1	-1.049285457E-1
3.404181338E0	1.108407617E0	6.210491657E-1	-1.139832959E-1
3.406080690E0	1.103081346E0	6.082659960E-1	-1.257012039E-1
3.408226377E0	1.097755075E0	5.949501991E-1	-1.342233270E-1
3.409474652E0	1.087102413E0	5.779059529E-1	-1.406149119E-1
3.412281569E0	1.080178142E0	5.624596477E-1	-1.406149119E-1
3.414243152E0	1.067927599E0	5.523396134E-1	-1.422128081E-1
3.416310800E0	1.055677056E0	5.443501472E-1	-1.422128081E-1
3.417768267E0	1.043959141E0	5.347627401E-1	-1.427454352E-1
3.420304723E0	1.031708598E0	5.320996046E-1	-1.459412277E-1
3.422201113E0	1.017327547E0	5.315669775E-1	-1.459412277E-1
3.424300954E0	1.009870648E0	5.336974859E-1	-1.512675583E-1
3.425616844E0	9.986854196E-1	5.352953672E-1	-1.592570394E-1
3.428356954E0	9.869675040E-1	5.379585624E-1	-1.661812514E-1
3.430325152E0	9.779127836E-1	5.400890708E-1	-1.709749401E-1
3.432401108E0	9.645969868E-1	5.454154015E-1	-1.805623323E-1
3.433706229E0	9.528790712E-1	5.491438508E-1	-1.885518134E-1
3.436299152E0	9.342369437E-1	5.555354357E-1	-1.965412945E-1
3.438461113E0	9.246495366E-1	5.619270205E-1	-2.082591951E-1
3.440240190E0	9.097358584E-1	5.720469952E-1	-2.151834220E-1
3.441790959E0	8.974853158E-1	5.795038939E-1	-2.210423797E-1
3.444552377E0	8.820389509E-1	5.858954787E-1	-2.242381722E-1
3.446580492E0	8.671252728E-1	5.933523178E-1	-2.253034264E-1
3.448582146E0	8.554073572E-1	6.024070382E-1	-2.300971150E-1
3.449882959E0	8.458199501E-1	6.077333689E-1	-2.316950262E-1
3.452637761E0	8.341020942E-1	6.135923266E-1	-2.375539690E-1
3.454666607E0	8.250473142E-1	6.130596995E-1	-2.418150306E-1
3.456682761E0	8.154599667E-1	6.130596995E-1	-2.514024079E-1
3.458065921E0	8.058725595E-1	6.130596995E-1	-2.620550692E-1
3.460676531E0	7.989483476E-1	6.146575809E-1	-2.679139972E-1
3.462669915E0	7.930893898E-1	6.157228351E-1	-2.796319127E-1
3.464672261E0	7.872304320E-1	6.157228351E-1	-2.833603323E-1
3.465964229E0	7.808388472E-1	6.178534031E-1	-2.924150825E-1
3.468728492E0	7.744472623E-1	6.173207760E-1	-3.004045784E-1
3.470624652E0	7.648598552E-1	6.215817928E-1	-3.089267015E-1
3.472758338E0	7.590008974E-1	6.226470470E-1	-3.142530024E-1
3.474013998E0	7.456851006E-1	6.269081235E-1	-3.185140789E-1
3.476596152E0	7.329019308E-1	6.418218613E-1	-3.254382908E-1
3.478843338E0	7.201187611E-1	6.503439546E-1	-3.296993375E-1
3.480763652E0	7.115966678E-1	6.647250056E-1	-3.318298757E-1
3.482153498E0	7.036072016E-1	6.769755483E-1	-3.344930410E-1
3.484892146E0	6.977482438E-1	6.940197945E-1	-3.376888335E-1
3.486829075E0	6.881608367E-1	7.126619220E-1	-3.382214606E-1
3.488922223E0	6.844323874E-1	7.275756001E-1	-3.403519988E-1
3.490257267E0	6.828345060E-1	7.462177277E-1	-3.392867148E-1
3.492977415E0	6.796387434E-1	7.643272281E-1	-3.387540877E-1
3.494886421E0	6.812366247E-1	7.787083387E-1	-3.360909224E-1
3.497007146E0	6.844323874E-1	7.952198982E-1	-3.334277868E-1
3.498522498E0	6.833671331E-1	8.106662631E-1	-3.334277868E-1
3.501010530E0	6.865629554E-1	8.229168057E-1	-3.302319944E-1
3.502875613E0	6.918892860E-1	8.367652297E-1	-3.275688291E-1
3.505021338E0	6.966829300E-1	8.506136537E-1	-3.254382908E-1
3.506322844E0	6.998787522E-1	8.602010608E-1	-3.275688291E-1
3.509078453E0	7.052050829E-1	8.697884083E-1	-3.254382908E-1
3.510981498E0	7.158577442E-1	8.793758154E-1	-3.249056637E-1
3.513124146E0	7.233145833E-1	8.905611038E-1	-3.249056637E-1
3.514468305E0	7.318366766E-1	8.974853158E-1	-3.286340833E-1
3.516977036E0	7.392935157E-1	9.060074091E-1	-3.318298757E-1
3.519175882E0	7.483482957E-1	9.123989940E-1	-3.344930410E-1
3.520960882E0	7.611314654E-1	9.161274433E-1	-3.408846259E-1
3.522485344E0	7.701861858E-1	9.203884602E-1	-3.451456726E-1
3.525280992E0	7.803062201E-1	9.241169095E-1	-3.542004228E-1
3.527274998E0	7.925567627E-1	9.251821637E-1	-3.563309610E-1
3.529326107E0	8.026767969E-1	9.283779860E-1	-3.669835925E-1
3.530768959E0	8.111988902E-1	9.283779860E-1	-3.707120419E-1
3.533382799E0	8.229168057E-1	9.289106131E-1	-3.776362538E-1
3.535411415E0	8.319715261E-1	9.278453588E-1	-3.861583769E-1
3.537413376E0	8.415589333E-1	9.278453588E-1	-3.925499618E-1
3.538794152E0	8.527442217E-1	9.257147908E-1	-3.989415467E-1
3.541406684E0	8.644620776E-1	9.246495366E-1	-4.042678475E-1
3.543384498E0	8.719189763E-1	9.187905788E-1	-4.074636400E-1
3.545402146E0	8.825715780E-1	9.161274433E-1	-4.165183902E-1
3.546821767E0	8.889631629E-1	9.118663669E-1	-4.159857631E-1
3.549459069E0	8.969526887E-1	9.097358584E-1	-4.213120937E-1
3.551487684E0	9.049421549E-1	9.049421549E-1	-4.266384244E-1
3.553504453E0	9.145295620E-1	9.028116465E-1	-4.293015897E-1
3.554874382E0	9.203884602E-1	9.022790194E-1	-4.351605177E-1
3.557368190E0	9.315737486E-1	9.012137055E-1	-4.362258017E-1
3.559572344E0	9.358348250E-1	9.028116465E-1	-4.426173866E-1
3.561439844E0	9.406285286E-1	9.081379771E-1	-4.463458061E-1
3.562849190E0	9.464874864E-1	9.134642482E-1	-4.490089715E-1
3.565656838E0	9.518138170E-1	9.246495366E-1	-4.495415986E-1
3.567593728E0	9.566074610E-1	9.331716895E-1	-4.516721368E-1
3.569686530E0	9.592706561E-1	9.416937828E-1	-4.575310946E-1
3.571056228E0	9.603359103E-1	9.539443254E-1	-4.607268870E-1
3.573742415E0	9.672601223E-1	9.645969868E-1	-4.617921412E-1
3.575676690E0	9.677927494E-1	9.752495885E-1	-4.644553065E-1
3.577786492E0	9.699232578E-1	9.869675040E-1	-4.713795185E-1
3.579335344E0	9.709885716E-1	9.970875382E-1	-4.724447727E-1
3.581779992E0	9.747169614E-1	1.012533903E0	-4.804342687E-1
3.583643344E0	9.768475294E-1	1.017860174E0	-4.814995229E-1
3.585775107E0	9.800432920E-1	1.029578090E0	-4.852279723E-1
3.587069844E0	9.757822156E-1	1.040230751E0	-4.830974340E-1
3.589831068E0	9.725864530E-1	1.059405446E0	-4.878911078E-1
3.591763113E0	9.667274952E-1	1.074851871E0	-4.894890189E-1
3.593860453E0	9.619337916E-1	1.095091820E0	-4.910869002E-1
3.595302728E0	9.496832490E-1	1.115331888E0	-4.926848114E-1
3.597726036E0	9.374327064E-1	1.140365601E0	-4.921521842E-1
3.599927267E0	9.198558331E-1	1.161138296E0	-4.921521842E-1
3.601745728E0	9.022790194E-1	1.180312991E0	-4.857605994E-1
3.603335536E0	8.852347732E-1	1.204814076E0	-4.761732221E-1
3.606027684E0	8.655273914E-1	1.225586772E0	-4.681837261E-1
3.607917575E0	8.447546959E-1	1.249555230E0	-4.559331834E-1
3.610057684E0	8.218515515E-1	1.270860553E0	-4.436826408E-1
3.611493382E0	7.946872711E-1	1.290035248E0	-4.277036786E-1
3.614113145E0	7.637946010E-1	1.299090028E0	-4.101268053E-1
3.616027498E0	7.302387953E-1	1.302285790E0	-3.882888854E-1
3.618142799E0	6.961503029E-1	1.301220536E0	-3.659183383E-1
3.619739421E0	6.636597514E-1	1.297492146E0	-3.360909224E-1
3.622145761E0	6.253102422E-1	1.290567875E0	-3.142530024E-1
3.624099036E0	5.848301649E-1	1.281513095E0	-2.902845740E-1
3.626155607E0	5.422195792E-1	1.274588943E0	-2.705771625E-1
3.627439305E0	4.980111420E-1	1.268197298E0	-2.599245310E-1
3.630211645E0	4.554005563E-1	1.262871027E0	-2.428802997E-1
3.632175382E0	4.138552547E-1	1.251685739E0	-2.327602804E-1
3.634241684E0	3.787015080E-1	1.232510924E0	-2.263686955E-1
3.635490459E0	3.510046303E-1	1.211738348E0	-2.167813182E-1
3.638284421E0	3.328951299E-1	1.181378245E0	-2.077265680E-1
3.640307959E0	3.174487948E-1	1.148355126E0	-1.944107562E-1
3.642124190E0	3.099919558E-1	1.104679227E0	-1.736381054E-1
3.643715767E0	3.014698327E-1	1.057807565E0	-1.475391239E-1
3.646392376E0	2.940129936E-1	1.006142259E0	-1.219727769E-1
3.648324459E0	2.892192900E-1	9.512811303E-1	-9.108011425E-2
3.650436607E0	2.908172011E-1	8.926916122E-1	-6.125270575E-2
3.651791382E0	2.950782478E-1	8.303736448E-1	-3.834952042E-2
3.654492953E0	3.126551211E-1	7.643272281E-1	-2.183792181E-2
3.656521876E0	3.430151641E-1	7.014766335E-1	-1.171790902E-2
3.658523030E0	3.840278387E-1	6.492787004E-1	-1.065264456E-3
3.660070459E0	4.218447208E-1	6.066681147E-1	1.491370238E-2
3.662515491E0	4.580637217E-1	5.789712071E-1	3.781688958E-2
3.664369305E0	4.932174385E-1	5.603290796E-1	6.604639441E-2
3.666510299E0	5.203816891E-1	5.448827744E-1	1.033306494E-1
3.667771190E0	5.491438508E-1	5.315669775E-1	1.336906850E-1
3.670566645E0	5.709817410E-1	5.209143162E-1	1.693770438E-1
3.672595030E0	5.864281058E-1	5.145227313E-1	2.029328793E-1
3.674611991E0	5.954828262E-1	5.171858668E-1	2.300971150E-1
3.675880536E0	5.976133347E-1	5.203816891E-1	2.551308274E-1
3.678515267E0	5.949501991E-1	5.320996046E-1	2.759034932E-1
3.680646882E0	5.874933600E-1	5.544701219E-1	2.977414131E-1
3.682433344E0	5.768406987E-1	5.768406987E-1	3.169161677E-1
3.684346575E0	5.613943934E-1	6.087986231E-1	3.339604139E-1
3.686763453E0	5.438175201E-1	6.450176239E-1	3.472762108E-1
3.688791876E0	5.150553584E-1	7.115966678E-1	3.637878001E-1
3.690793145E0	4.900216460E-1	7.632619739E-1	3.680488765E-1
3.692522344E0	4.708468914E-1	8.207862377E-1	3.728425503E-1
3.694849414E0	4.543353021E-1	8.793758154E-1	3.707120419E-1
3.696877953E0	4.495415986E-1	9.422264099E-1	3.568635881E-1
3.698893876E0	4.527373910E-1	1.009338021E0	3.344930410E-1
3.700281959E0	4.633900523E-1	1.081776023E0	3.083940744E-1
3.702888607E0	4.607268870E-1	1.161670923E0	3.057309091E-1
3.704749498E0	4.495415986E-1	1.237837315E0	3.099919558E-1
3.706884491E0	4.250405133E-1	1.309210062E0	3.259709179E-1
3.708202190E0	4.010720551E-1	1.374191165E0	3.440804183E-1
3.710941568E0	3.728425503E-1	1.433313370E0	3.627225459E-1
3.712855728E0	3.430151641E-1	1.494033456E0	3.808320463E-1
3.714971222E0	3.099919558E-1	1.556351423E0	3.968110085E-1
3.716253075E0	2.743056118E-1	1.620267272E0	4.186489284E-1
3.718870267E0	2.332929224E-1	1.685781002E0	4.303668439E-1
3.721056337E0	1.922802329E-1	1.741707444E0	4.458131790E-1
3.722917882E0	1.470064968E-1	1.797101140E0	4.585963488E-1
3.724372998E0	9.587380290E-2	1.849299073E0	4.719121456E-1
3.727140645E0	4.953479767E-2	1.899899125E0	4.814995229E-1
3.729123574E0	-1.065264456E-3	1.939846516E0	4.852279723E-1
3.731171299E0	-4.900216311E-2	1.979794025E0	4.932174385E-1
3.732506267E0	-9.374327213E-2	2.021872044E0	4.958806038E-1
3.735228491E0	-1.347559541E-1	2.061819315E0	4.937500656E-1
3.737224805E0	-1.720402092E-1	2.102299452E0	4.900216460E-1
3.739260606E0	-2.024002522E-1	2.144910097E0	4.857605994E-1
3.740724421E0	-2.300971150E-1	2.189118385E0	4.820321798E-1
3.743265914E0	-2.492718846E-1	2.237055302E0	4.772384763E-1
3.745259876E0	-2.620550692E-1	2.285524845E0	4.735100567E-1
3.747287183E0	-2.663161159E-1	2.337190151E0	4.681837261E-1
3.748545921E0	-2.663161159E-1	2.388855457E0	4.628573954E-1
3.751335068E0	-2.577939928E-1	2.444782019E0	4.612595141E-1
3.753363760E0	-2.450108230E-1	2.501773596E0	4.601942301E-1
3.755365414E0	-2.269013226E-1	2.558765173E0	4.639226794E-1
3.756621382E0	-2.018676102E-1	2.620550632E0	4.671184719E-1
3.759420498E0	-1.773665249E-1	2.671683311E0	4.756405652E-1
3.761452145E0	-1.502022892E-1	2.718554974E0	4.878911078E-1
3.763466799E0	-1.262338310E-1	2.756904364E0	5.081311464E-1
3.764746382E0	-9.747169912E-2	2.781405449E0	5.230448246E-1
3.767523683E0	-7.456851006E-2	2.797917128E0	5.416869521E-1
3.769413690E0	-4.580637068E-2	2.798449755E0	5.645901561E-1
3.771570183E0	-2.982740477E-2	2.778742313E0	5.832322836E-1
3.772810767E0	-1.544633508E-2	2.744653940E0	6.045376062E-1
3.775627568E0	-1.065264456E-2	2.699380159E0	6.311691999E-1
3.777511151E0	-1.065264456E-2	2.642921209E0	6.546050310E-1
3.779659299E0	-1.757686399E-2	2.582201004E0	6.753776670E-1
3.781240767E0	-2.716424316E-2	2.519350529E0	6.934871674E-1
3.783654568E0	-4.474110901E-2	2.455434561E0	7.009440064E-1
3.785648106E0	-7.190535218E-2	2.391518593E0	7.046724558E-1
3.787649799E0	-1.081243455E-1	2.325472355E0	7.030745149E-1
3.789002074E0	-1.486043930E-1	2.257827997E0	6.913566589E-1
3.791706645E0	-2.071939409E-1	2.186455250E0	6.705839634E-1
3.793643421E0	-2.705771625E-1	2.118278265E0	6.476807594E-1
3.795752145E0	-3.435477912E-1	2.049568892E0	6.130596995E-1
3.797072074E0	-4.197141826E-1	1.982989788E0	5.773733258E-1
3.799632421E0	-5.406216979E-1	1.899366498E0	5.155879855E-1
3.801837183E0	-6.311691999E-1	1.853560209E0	4.751079381E-1
3.803735690E0	-7.217166424E-1	1.816275954E0	4.388889670E-1
3.805119074E0	-8.245146871E-1	1.784850597E0	4.026699662E-1
3.807905952E0	-9.310411215E-1	1.757153749E0	3.653857112E-1
3.809790844E0	-1.045024395E0	1.728391528E0	3.227751255E-1
3.811936683E0	-1.160073042E0	1.709216833E0	2.817624509E-1
3.813619036E0	-1.278849959E0	1.692705274E0	2.508697808E-1
3.815993721E0	-1.399757504E0	1.686846256E0	2.269013226E-1
3.817926921E0	-1.522262931E0	1.682585239E0	2.018676102E-1
3.820039721E0	-1.643703103E0	1.686846256E0	1.858886480E-1
3.821616113E0	-1.767806411E0	1.695901036E0	1.720402092E-1
3.824033183E0	-1.887648582E0	1.708151579E0	1.688444167E-1
3.826007305E0	-2.003229856E0	1.725728393E0	1.667138934E-1
3.828029375E0	-2.112419367E0	1.749696851E0	1.715075821E-1
3.829353074E0	-2.223206997E0	1.771002173E0	1.805623323E-1
3.832086337E0	-2.319613457E0	1.793372750E0	1.906823367E-1
3.834031190E0	-2.409628153E0	1.813080072E0	2.002697140E-1
3.836117683E0	-2.492718935E0	1.827993751E0	2.114549875E-1
3.837410190E0	-2.566222191E0	1.834385395E0	2.269013226E-1
3.840037459E0	-2.629605293E0	1.834918022E0	2.338255495E-1
3.842177497E0	-2.682868481E0	1.821069598E0	2.402171344E-1
3.843904613E0	-2.723348618E0	1.794970632E0	2.482066154E-1
3.845429344E0	-2.759034872E0	1.757153749E0	2.487392575E-1
3.848286644E0	-2.785133839E0	1.698564172E0	2.503371537E-1
3.850199997E0	-2.801645517E0	1.629854560E0	2.487392575E-1
3.852318144E0	-2.813363314E0	1.546231389E0	2.503371537E-1
3.853580690E0	-2.818157196E0	1.456749201E0	2.492718846E-1
3.856374644E0	-2.816559315E0	1.358212233E0	2.492718846E-1
3.858251882E0	-2.801112890E0	1.252750993E0	2.482066154E-1
3.860405029E0	-2.779807568E0	1.141963482E0	2.498045117E-1
3.861748228E0	-2.748914957E0	1.031708598E0	2.492718846E-1
3.864410221E0	-2.710565329E0	9.134642482E-1	2.508697808E-1
3.866273728E0	-2.666357040E0	7.930893898E-1	2.545982003E-1
3.868421221E0	-2.613093615E0	6.759102941E-1	2.593919039E-1
3.869675305E0	-2.549177885E0	5.624596477E-1	2.684466541E-1
3.872478567E0	-2.484729290E0	4.479437172E-1	2.775014043E-1
3.874403382E0	-2.409095526E0	3.382214606E-1	2.876214087E-1
3.876509952E0	-2.333461761E0	2.332929224E-1	3.030677438E-1
3.877773421E0	-2.251436472E0	1.299622655E-1	3.131877482E-1
3.880372190E0	-2.164617300E0	3.195793182E-2	3.291667104E-1
3.882551882E0	-2.075667858E0	-6.498113275E-2	3.440804183E-1
3.884429113E0	-1.986185551E0	-1.597896665E-1	3.542004228E-1
3.885877997E0	-1.896170735E0	-2.487392575E-1	3.680488765E-1
3.888663221E0	-1.803492665E0	-3.360909224E-1	3.818973005E-1
3.890561728E0	-1.709216833E0	-4.186489284E-1	3.898867965E-1
3.892709375E0	-1.611212492E0	-4.985437691E-1	3.968110085E-1
3.893972113E0	-1.513208151E0	-5.747101903E-1	3.989415467E-1
3.896766721E0	-1.364603758E0	-6.801713705E-1	3.994741738E-1
3.898795798E0	-1.266066790E0	-7.430219650E-1	3.978762627E-1
3.900797875E0	-1.164866686E0	-8.037420511E-1	3.893541694E-1
3.902185382E0	-1.071123362E0	-8.623315692E-1	3.787015080E-1
3.904792913E0	-9.731190801E-1	-9.171926975E-1	3.637878001E-1
3.906771882E0	-8.815063238E-1	-9.661948681E-1	3.414172530E-1
3.908789913E0	-7.888283134E-1	-1.013599157E0	3.201119602E-1
3.910044921E0	-6.998787522E-1	-1.059405446E0	2.945456207E-1
3.912848029E0	-6.173207760E-1	-1.100950837E0	2.679139972E-1
3.914728459E0	-5.352953672E-1	-1.137702465E0	2.396845073E-1
3.916875067E0	-4.548679292E-1	-1.168595076E0	2.098570913E-1
3.918133113E0	-3.802994192E-1	-1.194161415E0	1.763012707E-1
3.920731074E0	-3.083940744E-1	-1.214401484E0	1.432780623E-1
3.922897113E0	-2.386192381E-1	-1.228782535E0	1.113201380E-1
3.924655690E0	-1.752360016E-1	-1.237837315E0	7.403588295E-2
3.926197074E0	-1.155811921E-1	-1.243696213E0	3.941478580E-2
3.929033683E0	-5.645901710E-2	-1.242098331E0	1.012001187E-2
3.930868190E0	-2.130528912E-3	-1.232510924E0	-2.237055451E-2
3.933065836E0	4.740426689E-2	-1.215999365E0	-5.166532472E-2
3.934308728E0	9.374327213E-2	-1.190965652E0	-7.723167539E-2
3.937123990E0	1.379517466E-1	-1.156877160E0	-1.038632840E-1
3.938994036E0	1.778991669E-1	-1.121190786E0	-1.209075153E-1
3.941171259E0	2.189118415E-1	-1.072188616E0	-1.358212233E-1
3.942501882E0	2.540655732E-1	-1.025317073E0	-1.459412277E-1
3.945165836E0	2.849582434E-1	-9.677927494E-1	-1.533980817E-1
3.946973420E0	3.163835406E-1	-9.060074091E-1	-1.581917703E-1
3.949163259E0	3.430151641E-1	-8.399610519E-1	-1.507349163E-1
3.950389959E0	3.701793849E-1	-7.701861858E-1	-1.416801661E-1
3.953221298E0	3.930825889E-1	-6.977482438E-1	-1.294296384E-1
3.955092267E0	4.170510471E-1	-6.231797338E-1	-1.113201380E-1
3.957252990E0	4.383563101E-1	-5.518069863E-1	-9.054747969E-2
3.958466844E0	4.585963488E-1	-4.804342687E-1	-6.231797114E-2
3.961095190E0	4.767058492E-1	-4.063983858E-1	-3.355583176E-2
3.963283459E0	4.916195571E-1	-3.360909224E-1	-5.326322280E-3
3.965182036E0	5.091964006E-1	-2.700445354E-1	2.396845073E-2
3.966607344E0	5.214469433E-1	-2.087918371E-1	5.486112088E-2
3.969424529E0	5.331648588E-1	-1.507349163E-1	8.522115648E-2
3.971283882E0	5.454154015E-1	-1.017327532E-1	1.177117229E-1
3.973456105E0	5.555354357E-1	-5.912217870E-2	1.454086006E-1
3.974683613E0	5.608617067E-1	-2.716424316E-2	1.763012707E-1
3.977513259E0	5.699164867E-1	3.728425596E-3	2.034655064E-1
3.979411459E0	5.768406987E-1	2.822950855E-2	2.295644879E-1
3.981543798E0	5.832322836E-1	5.006742850E-2	2.556634545E-1
3.982899959E0	5.912217498E-1	7.084008306E-2	2.785666585E-1
3.985549798E0	5.986786485E-1	9.001484513E-2	3.030677438E-1
3.987407305E0	6.056028605E-1	1.134506613E-1	3.249056637E-1
3.989561336E0	6.146575809E-1	1.347559541E-1	3.414172530E-1
3.990793959E0	6.247776151E-1	1.502022892E-1	3.605920076E-1
3.993618221E0	6.322344542E-1	1.677791476E-1	3.808320463E-1
3.995470305E0	6.396912932E-1	1.853560209E-1	3.984089196E-1
3.997649298E0	6.503439546E-1	1.970739216E-1	4.170510471E-1
3.998860920E0	6.647250056E-1	2.109223604E-1	4.324973822E-1
4.001479497E0	6.737797856E-1	2.221076339E-1	4.516721368E-1
4.003676613E0	6.854977012E-1	2.343581766E-1	4.708468914E-1
4.005431920E0	7.078682184E-1	2.561961114E-1	4.996090233E-1
4.006971036E0	7.142598033E-1	2.641855776E-1	5.091964006E-1
4.009804644E0	7.360977530E-1	2.881540358E-1	5.400890708E-1
4.011727651E0	7.515440583E-1	3.089267015E-1	5.603290796E-1
4.013851028E0	7.712514400E-1	3.291667104E-1	5.826996565E-1
4.015155920E0	7.877630591E-1	3.557983339E-1	6.034722924E-1
4.017908644E0	8.032094240E-1	3.797667921E-1	6.247776151E-1
4.019773305E0	8.207862377E-1	4.101268053E-1	6.423544884E-1
4.021939528E0	8.415589333E-1	4.378236830E-1	6.578007936E-1
4.023331497E0	8.586031795E-1	4.692489803E-1	6.732471585E-1
4.025934490E0	8.772453070E-1	5.017395616E-1	6.870955825E-1
4.027761728E0	8.953547478E-1	5.336974859E-1	6.988134980E-1
4.029930798E0	9.113337398E-1	5.709817410E-1	7.099987864E-1
4.031166267E0	9.289106131E-1	6.061354876E-1	7.163903713E-1
4.033987951E0	9.491506219E-1	6.396912932E-1	7.233145833E-1
4.035849767E0	9.656622410E-1	6.727145314E-1	7.291735411E-1
4.038033451E0	9.805759192E-1	7.078682184E-1	7.313040495E-1
4.039412113E0	9.960222840E-1	7.302387953E-1	7.302387953E-1
4.041878036E0	1.010936022E0	7.542072535E-1	7.313040495E-1
4.044070882E0	1.021588564E0	7.707188129E-1	7.339671850E-1
4.045965843E0	1.032773852E0	7.882956862E-1	7.323693037E-1
4.047356997E0	1.043959141E0	7.962851524E-1	7.318366766E-1
4.050187374E0	1.051948667E0	8.021441102E-1	7.291735411E-1
4.052073228E0	1.058872819E0	8.069378138E-1	7.265103459E-1
4.054217721E0	1.066329718E0	8.058725595E-1	7.249124646E-1
4.055480074E0	1.073253989E0	8.026767969E-1	7.227819562E-1
4.058274144E0	1.079112887E0	7.957525253E-1	7.233145833E-1
4.060211036E0	1.085504532E0	7.835019827E-1	7.195861340E-1
4.062320028E0	1.091363430E0	7.680556774E-1	7.115966678E-1
4.063684382E0	1.094026566E0	7.520766854E-1	7.126619220E-1
4.066317759E0	1.098820329E0	7.334345579E-1	7.089334726E-1
4.068199997E0	1.103081346E0	7.147924304E-1	7.057377100E-1
4.070313451E0	1.106809735E0	6.961503029E-1	6.993461251E-1
4.071664536E0	1.111603498E0	6.727145314E-1	6.972155571E-1
