"Time (s)"	"Linear Acceleration x (m/s^2)"	"Linear Acceleration y (m/s^2)"	"Linear Acceleration z (m/s^2)"
2.837623600E-2	-1.316559315E-2	-1.088929176E-1	-1.802940369E-1
3.645150500E-2	-2.937781811E-2	-1.224789619E-1	1.587800980E-1
4.434807700E-2	-2.518435717E-1	3.643941879E-2	6.710700989E-1
5.265469700E-2	-4.613792598E-1	2.305731773E-1	1.020251274E0
6.074546700E-2	-6.080019474E-1	4.269876480E-1	1.317346573E0
6.878615900E-2	-6.112110615E-1	5.732474327E-1	1.589531898E0
7.683853900E-2	-3.546028435E-1	7.031245232E-1	1.714660645E0
8.467950000E-2	-1.613358557E-1	7.821860313E-1	1.788915634E0
9.303915900E-2	-5.367432535E-2	7.404785156E-1	2.282274246E0
1.011251970E-1	-2.952699363E-2	6.241340637E-1	2.269793510E0
1.091596970E-1	4.033837318E-1	-4.180846214E-1	1.637862206E0
1.172266970E-1	-1.145740390E0	2.616367340E-1	2.626794815E0
1.250953460E-1	-7.827979922E-1	6.695175171E-2	-1.628131866E-1
1.334146970E-1	-1.425488114E0	-8.729569912E-1	8.197975159E-2
1.415164660E-1	-1.879141212E0	-1.012516022E0	-1.013183594E-1
1.495406970E-1	-1.431401730E0	-6.939871311E-1	-8.386058807E-1
1.575931970E-1	-5.539057851E-1	-7.737727165E-1	-2.302185059E0
1.655076160E-1	-6.254515648E-1	-1.976555347E0	-2.648334026E0
1.737913510E-1	-1.194100261E0	-1.936809182E0	-9.041862488E-1
1.818779280E-1	-1.701708555E0	-7.486393452E-1	1.477257729E0
1.899166970E-1	-1.141037822E0	1.725058556E-1	2.749463081E0
1.979697350E-1	-3.590267897E-1	-1.248927116E-1	2.243803978E0
2.058043460E-1	1.551605463E-1	-6.637287140E-1	8.887138367E-1
2.141689660E-1	3.886395693E-1	-1.090076923E0	-3.710346222E-1
2.222558120E-1	4.815361500E-1	-1.155157089E0	-1.126771927E0
2.302885810E-1	5.403265953E-1	-8.269227743E-1	-1.340214729E0
2.383553120E-1	9.719252586E-3	-6.494528055E-1	-1.741029739E0
2.462274230E-1	-3.401609659E-1	-1.645230770E0	-2.082497597E0
2.545380430E-1	5.702716708E-1	-3.755494833E0	-2.634287357E0
2.626387350E-1	1.540661454E0	-7.001366615E0	-3.064584732E0
2.706611970E-1	-3.771676421E-1	-5.737178326E0	-3.927003860E0
2.787129270E-1	-2.985475063E0	-2.839011192E0	-7.413816452E-1
2.865524230E-1	-3.733262777E0	-3.530460596E-1	-5.040302277E-1
2.948881960E-1	-2.350689650E0	2.033841610E-1	2.069320679E-1
3.029747350E-1	-3.964305162E0	2.128820419E-1	9.880466461E-1
3.110125040E-1	-3.671868324E0	2.329642773E-1	1.670454025E0
3.190636580E-1	-2.003787994E0	-3.615858555E-1	1.572731018E0
3.269293460E-1	-8.354231715E-1	-1.192607641E0	1.148166656E0
3.352623500E-1	4.720582962E-1	-1.945517778E0	7.591104507E-1
3.433484650E-1	6.701253653E-1	-1.523738146E0	8.076505661E-1
3.513827350E-1	5.400170088E-1	-1.175954461E0	7.244329453E-1
3.594406920E-1	2.558124065E-1	-1.001064658E0	8.993721008E-1
3.675402730E-1	7.645151615E-1	-1.019993663E0	7.019233704E-1
3.756406190E-1	9.248845577E-1	-1.018982172E0	2.392177582E-1
3.837427730E-1	1.097473383E0	-1.082786798E0	-4.217910767E-1
3.917682730E-1	9.896857738E-1	-1.383233428E0	-1.321769714E0
3.998205420E-1	3.103222847E-1	-1.592477441E0	-1.739548206E0
4.077225770E-1	-2.577676773E-1	-2.014977694E0	-1.655498505E0
4.160208880E-1	-4.460911751E-1	-2.010025024E0	-1.204389572E0
4.241083110E-1	-6.004772186E-1	-1.535601497E0	-1.209972382E0
4.321490040E-1	-7.106046677E-1	-9.910182953E-1	-9.761080742E-1
4.402012730E-1	-5.075654984E-1	-9.623041153E-1	9.392833710E-2
4.480373460E-1	2.467603683E-1	-1.555693030E0	8.951406479E-1
4.563997730E-1	9.120988846E-1	-1.606230021E0	3.711700439E-3
4.644863110E-1	1.466157436E0	-1.479625463E0	-1.218608379E0
4.725203880E-1	1.084390640E0	-4.722230434E-1	-1.060924053E0
4.805895420E-1	-1.307997704E-1	6.961193085E-1	1.651296616E-1
4.884166540E-1	-4.148283005E-1	4.209113121E-1	1.148554325E0
4.967752730E-1	1.951456070E-1	-8.467764854E-1	1.713742256E0
5.048775420E-1	1.957955360E-1	-1.918487549E0	2.248900890E0
5.129013490E-1	1.574778557E-1	-2.254328966E0	2.568075657E0
5.209540030E-1	2.130002975E-1	-1.996011972E0	2.281923056E0
5.288470380E-1	8.718452454E-1	-1.336142063E0	1.501950741E0
5.371433110E-1	1.659581184E0	-6.031117439E-1	6.807739735E-1
5.452310030E-1	1.958452225E0	1.619462967E-1	1.405792236E-1
5.532698110E-1	1.858654022E0	3.211712837E-1	-1.668238640E-2
5.613218880E-1	1.406291962E0	-1.647462845E-1	-1.495792866E-1
5.691673080E-1	3.844490051E-1	-8.005099297E-1	-2.681851387E-1
5.775210030E-1	-2.802762985E-1	-1.363529682E0	-2.833241224E-1
5.856080410E-1	-9.614605904E-1	-1.560111761E0	-3.672472239E-1
5.936416570E-1	-1.160989285E0	-1.967350483E0	-9.167397022E-2
6.017083110E-1	-1.191647530E0	-1.879919052E0	1.808881760E-2
6.095440380E-1	-7.635092735E-1	-1.710535288E0	-2.052489519E-1
6.178970030E-1	-6.009187698E-1	-1.441526413E0	-3.036979437E-1
6.259999640E-1	-8.418984413E-1	-1.120862007E0	-3.963668346E-1
6.340238870E-1	-4.624762535E-1	-9.408388138E-1	-4.210217595E-1
6.420768490E-1	4.826669693E-1	-5.267620087E-3	-3.315117359E-1
6.499762310E-1	-4.932785034E-1	8.786201477E-3	-1.065833211E0
6.582770800E-1	1.773748398E-1	-1.890316010E-1	-4.065153599E-1
6.663650800E-1	3.258180618E-1	-4.260158539E-1	1.161066175E0
6.744049640E-1	1.238155365E-1	-1.003424168E0	1.815128088E0
6.824587720E-1	-6.032142639E-1	-1.783505201E0	1.951452017E0
6.903033070E-1	-8.556694984E-1	-2.278396845E0	1.667662621E0
6.986776560E-1	-6.990876198E-1	-2.285376310E0	1.328174591E0
7.067669260E-1	-5.512046814E-1	-2.021481752E0	1.454797983E0
7.148033870E-1	-4.455127716E-1	-1.655752182E0	1.784013391E0
7.228740030E-1	-7.840332985E-1	-1.259621859E0	1.794769526E0
7.307006920E-1	-6.800556183E-1	-1.047567368E0	1.412289977E0
7.390591950E-1	1.760253906E-1	-6.367943287E-1	1.595833659E0
7.471623490E-1	1.252518654E0	-3.143131733E-1	2.045377254E0
7.551875790E-1	1.889566422E0	-3.432910442E-1	2.017382145E0
7.632421560E-1	1.563669205E0	-8.446135521E-1	1.648148298E0
7.710845380E-1	9.174861908E-1	-1.360983849E0	1.283965111E0
7.794438870E-1	2.065343857E-1	-1.633737087E0	1.044484138E0
7.875324640E-1	-3.054485321E-1	-1.614769459E0	7.654947042E-1
7.955726180E-1	-4.568071365E-1	-1.442289829E0	3.321001530E-1
8.036282330E-1	1.866359711E-1	-1.100347996E0	1.627101898E-1
8.115681150E-1	1.095319748E0	-7.912895679E-1	5.995309353E-1
8.198326560E-1	1.611224174E0	-7.169954777E-1	1.123027802E0
8.279225020E-1	1.673943520E0	-7.011578083E-1	1.530414462E0
8.359585410E-1	1.679562569E0	-7.275800705E-1	1.404112935E0
8.440214610E-1	1.370244980E0	-7.309172153E-1	1.349125981E0
8.519105000E-1	7.465038300E-1	-6.050765514E-1	1.024358630E0
8.602168480E-1	1.592054367E-1	-4.647240639E-1	3.562039137E-1
8.683204630E-1	-2.935533524E-1	-4.218776226E-1	7.333755493E-3
8.763460020E-1	-5.355949402E-1	-4.269337654E-1	-7.331669331E-2
8.844000400E-1	-6.146764755E-1	-4.958634377E-1	5.348038673E-2
8.922955380E-1	-5.043783188E-1	-4.641150236E-1	6.750022173E-1
9.006023860E-1	3.047161102E-1	-2.919403315E-1	1.200763226E0
9.086923090E-1	9.574260712E-1	-6.226480007E-2	8.394013643E-1
9.167327710E-1	7.193260193E-1	1.920719147E-1	5.800449848E-2
9.247861170E-1	3.377685547E-1	4.344815016E-1	-3.613349199E-1
9.326201530E-1	1.246433258E-1	5.529223680E-1	-3.020677567E-1
9.409867710E-1	7.892990112E-2	4.299231768E-1	-3.411349058E-1
9.490741940E-1	4.506206512E-2	-8.410751820E-2	-4.297742844E-1
9.571073090E-1	2.370319366E-1	-7.113506794E-1	-5.123704672E-1
9.651703840E-1	7.370853424E-1	-9.569467902E-1	-5.294737220E-1
9.729953840E-1	7.062654495E-1	-9.432768822E-1	-4.312850237E-1
9.813591170E-1	7.612581253E-1	-5.705432892E-1	-3.973723650E-1
9.894623480E-1	1.242982864E0	1.648914814E-2	-6.389287114E-1
9.974856170E-1	1.160842896E0	5.201578140E-1	-4.088886380E-1
1.005538309E0	7.958564758E-1	1.224068522E0	1.244688034E-2
1.013403423E0	7.503023148E-1	2.576130629E0	-7.145690918E-2
1.021737194E0	3.859672546E-1	4.424428940E0	-6.559300423E-2
1.029825232E0	-2.459754944E-1	6.239874840E0	-6.522653103E-1
1.037893078E0	1.435928345E-1	8.371582031E0	-2.112597942E0
1.045944001E0	4.814214706E-1	9.415650368E0	-3.906563997E0
1.053786807E0	3.789310455E-1	8.975611687E0	-2.901400089E0
1.062142040E0	5.009365082E-2	6.103041649E0	-2.536439419E0
1.070228386E0	-3.257465363E-1	3.244270325E0	-1.211056948E0
1.078262886E0	-3.524303436E-2	1.322538614E0	-1.494828701E0
1.086330847E0	1.614467621E0	6.739950180E-1	-5.851724148E-1
1.094196807E0	2.386230469E0	1.184750497E-1	-7.613862753E-1
1.102533309E0	1.124453545E0	-8.224723339E-1	4.569379091E-1
1.110636347E0	-1.179647446E-1	-1.436983347E0	1.954326153E0
1.118659463E0	-9.550151825E-1	-2.161202192E0	2.050529003E0
1.126712309E0	-1.646520615E0	-2.449389219E0	1.728336215E0
1.134594269E0	-1.524942398E0	-2.440889597E0	1.201847911E0
1.142910039E0	-8.637199402E-1	-2.559517145E0	3.175355792E-1
1.150997962E0	-1.040389061E0	-2.625421762E0	3.644648790E-1
1.159036539E0	-9.773635864E-2	-2.951582909E0	6.156838536E-1
1.167089539E0	1.479941368E0	-3.222178698E0	6.544959545E-1
1.174943192E0	3.175601006E0	-3.529765129E0	1.135213524E-1
1.183289385E0	4.243233681E0	-3.677418709E0	-4.447458982E-1
1.191376347E0	4.755349159E0	-3.664682150E0	-1.044062972E0
1.199411539E0	4.515784264E0	-3.566263914E0	-1.211938024E0
1.207479462E0	3.399202347E0	-3.848306179E0	-9.540593028E-1
1.215420269E0	2.141144753E0	-4.013070583E0	-9.061642885E-1
1.223666539E0	1.422589302E0	-3.833585262E0	-8.022290468E-1
1.231769770E0	1.254451752E0	-2.800723553E0	-1.060005188E0
1.239795347E0	1.123461723E0	-1.624643445E0	-8.082446456E-1
1.247849270E0	1.496954918E0	-7.784588337E-1	-9.043939114E-1
1.255694076E0	1.467146873E0	6.863042712E-1	-1.147497535E0
1.264050885E0	1.100549698E0	2.211294174E0	-1.476712704E0
1.272140423E0	9.259901047E-1	3.012430191E0	-1.816767335E0
1.280180231E0	8.648691177E-1	3.157808781E0	-1.733259201E0
1.288233885E0	7.595968246E-1	1.964444637E0	-1.524838209E0
1.296088499E0	3.307962418E-1	-2.556725740E-1	-1.514899492E0
1.304437039E0	-1.517686844E-1	-1.336693764E0	-2.158257663E-1
1.312525500E0	9.542465210E-3	-1.277987838E0	1.448040128E0
1.320561154E0	5.580186844E-1	-2.124946117E0	7.544354796E-1
1.328630154E0	1.259000778E0	-3.035284281E0	-3.752940893E-2
1.336476269E0	2.117997169E0	-3.705690145E0	-7.135423422E-1
1.344821500E0	1.652348518E0	-3.567150116E0	-1.156889439E0
1.352924962E0	9.239339828E-1	-4.219013214E0	-1.455425739E0
1.360951500E0	1.121962547E0	-4.097658157E0	-1.699592113E0
1.369005346E0	1.124828339E0	-3.903272390E0	-1.274385452E0
1.376858422E0	-7.914342880E-1	-4.400260925E0	-1.200438738E0
1.385206231E0	-1.932354450E0	-4.402830124E0	-1.695177078E0
1.393294500E0	-2.328386784E0	-4.353786945E0	-2.552289009E0
1.401333500E0	-3.539674282E0	-4.195775032E0	-2.663991451E0
1.409386731E0	-4.136182785E0	-4.876219273E0	-1.693347454E0
1.417225961E0	-4.501664162E0	-4.992450714E0	-1.913463354E0
1.425565461E0	-1.339396286E1	2.272748947E-1	-3.070034504E0
1.433655846E0	-7.900097847E0	-7.096014023E-1	1.061829805E0
1.441691423E0	-1.005906296E1	1.035397053E0	-2.235241652E0
1.449760923E0	-3.990779638E0	-1.050032616E0	-2.146651983E0
1.457650692E0	3.363562107E0	-4.386221886E0	-1.837741137E0
1.465948154E0	5.549729824E0	-5.843681812E0	-4.131042957E-1
1.474053577E0	7.284379959E0	-8.112588882E0	2.069328547E0
1.482078884E0	2.971983433E0	-6.814695358E0	1.822875738E0
1.490133884E0	-5.807615757E0	-2.633545399E0	3.328285217E-1
1.497968807E0	-1.466033936E0	-2.430188179E0	-4.226708412E-2
1.506316269E0	4.271562099E0	-2.622990131E0	4.625778198E-1
1.514405923E0	7.268347740E-1	-1.971558571E0	-3.041744232E0
1.522446115E0	-1.565095901E0	-1.228170395E0	-3.411966801E0
1.530499846E0	-3.792243481E0	-2.050733566E-2	-3.266322613E0
1.538467961E0	-5.913504124E0	2.024702549E0	-3.993875027E0
1.546703461E0	-7.973292351E0	3.758305550E0	-3.438232660E0
1.554791961E0	-9.506902695E0	5.630966187E0	-1.888604999E0
1.562826461E0	-1.182618332E1	8.784199715E0	-1.682797670E-1
1.570885461E0	-1.431536961E1	1.224894142E1	1.562522173E0
1.578773345E0	-1.646323776E1	1.577276611E1	2.643880367E0
1.587074999E0	-1.744538307E1	1.862987137E1	2.609614611E0
1.595179115E0	-1.500237846E1	1.831220055E1	1.881632090E0
1.603227384E0	-1.163059998E1	1.529155445E1	1.815294623E0
1.611281691E0	-6.959202766E0	1.055801964E1	1.889164925E0
1.619114307E0	-1.915127754E0	6.736751556E0	1.461716771E0
1.627483576E0	2.362785816E0	3.461561203E0	7.021110058E-1
1.635572153E0	5.528462887E0	8.060541153E-1	-3.377106190E-1
1.643614807E0	8.098561287E0	-1.310215950E0	-1.311234593E0
1.651668845E0	9.307701111E0	-3.046945095E0	-1.902801514E0
1.659501114E0	5.442905426E0	-4.350411415E0	-1.084324241E0
1.667869422E0	1.523875237E0	-4.502275944E0	-2.459384918E0
1.675958576E0	4.636487961E-1	-4.084477425E0	-3.211532354E0
1.683994845E0	-7.778363228E-1	-2.493937016E0	-3.807212353E0
1.692053345E0	-3.679065704E-1	-1.773676872E0	-3.807813883E0
1.699912730E0	-3.670835495E-1	-1.131409168E0	-2.943855286E0
1.708250999E0	-5.005793571E-1	-7.933993340E-1	-2.301589012E0
1.716354614E0	-4.708356857E-1	-7.535877228E-1	-1.524132490E0
1.724380153E0	-2.451572418E-1	-9.832606316E-1	-8.895189762E-1
1.732409614E0	-4.444646835E-1	-1.435119152E0	-3.342432380E-1
1.740280884E0	4.241991043E-1	-2.306309223E0	1.805759668E-1
1.748620614E0	-1.261741638E0	-8.047596931E0	6.221270561E0
1.756718153E0	-1.804785728E-1	-5.852078438E0	2.465627670E0
1.764767114E0	4.572285652E0	-3.506292820E0	-1.317523718E0
1.772807768E0	1.151710320E1	-2.620113850E0	-7.118187428E0
1.780648499E0	4.847490788E0	2.386269569E-1	-4.632159233E0
1.789021191E0	9.984607697E-1	8.230719566E-1	-8.303660154E-2
1.797109460E0	-7.942676544E-1	1.586720943E0	3.956148028E-1
1.805144345E0	-9.117603302E-1	2.053080559E0	9.375697374E-2
1.813191614E0	-2.225589752E-2	2.365380764E0	-4.232215285E-1
1.821066114E0	1.309084415E0	2.198114872E0	-9.412719011E-1
1.829401652E0	1.030997276E0	1.902270317E0	-9.861277342E-1
1.837505691E0	3.228602409E-1	1.972043037E0	-7.712227702E-1
1.845530729E0	-4.137468338E-2	2.559794903E0	-1.070595503E0
1.853584575E0	1.146254539E-1	3.061594009E0	-5.768603683E-1
1.861432960E0	-6.467909813E-1	2.848224163E0	1.696837544E-1
1.869787652E0	-6.022086143E-1	2.296142578E0	9.587680697E-1
1.877876113E0	-1.681954861E0	1.008572578E0	1.793078661E0
1.885914575E0	-1.652693748E0	1.243019104E-1	1.362672329E0
1.893951691E0	-8.502173424E-1	1.839985847E-1	2.082365751E-2
1.901806345E0	-8.199648857E-1	6.234173775E-1	-1.213711023E0
1.910180344E0	-1.631166935E0	1.747379303E-1	-1.532083750E0
1.918267613E0	-1.194140911E0	-5.781836510E-1	-1.042382121E0
1.926300729E0	6.869344711E-1	-4.510879517E-4	2.439486980E-2
1.934352960E0	4.537477493E-1	-2.294096947E-1	5.197378397E-1
1.942180191E0	6.129693985E-2	4.631805420E-2	4.689809084E-1
1.950554344E0	-5.140490532E-1	-1.882362366E-1	-6.097461581E-1
1.958657036E0	-1.188103199E0	-3.848838806E-1	-2.972496748E0
1.966681152E0	-2.724361420E-2	-7.702198029E-1	-2.886174679E0
1.974735190E0	1.334893703E0	-1.372169971E0	-2.590026379E0
1.982624768E0	1.173101902E0	-1.624375343E0	-1.689227939E0
1.990936113E0	1.095303059E0	-1.462868690E0	4.831874371E-2
1.999024153E0	7.030115128E-1	-9.916334152E-1	8.655172586E-1
2.007066382E0	6.671819687E-1	-1.463479042E0	5.811727047E-1
2.015119575E0	6.357941628E-1	-2.035214424E0	-3.791019320E-1
2.022966922E0	9.365930557E-1	-2.503601551E0	-9.787046909E-1
2.031321421E0	8.728861809E-1	-2.928754330E0	-1.423258305E0
2.039408997E0	1.427551746E0	-2.734535694E0	-9.347755909E-1
2.047443574E0	1.033872128E0	-2.408682823E0	-1.835823059E-1
2.055512497E0	-3.561177254E-1	-1.186086655E0	2.640694380E-1
2.063439191E0	-1.537829876E0	2.326049805E-1	-1.490240097E-1
2.071701767E0	-2.240443707E0	1.038427830E0	-4.682376385E-1
2.079805420E0	-1.965425014E0	2.042827129E0	4.542863369E-2
2.087830920E0	-2.092476845E0	2.172894955E0	4.780226946E-1
2.095882113E0	-1.688034534E0	2.362244606E0	1.007878780E-2
2.103746999E0	-1.478411674E0	2.873993397E0	-6.610024571E-1
2.112079113E0	-1.561053753E0	2.878064156E0	-8.547254205E-1
2.120166420E0	-1.499948978E0	3.190454960E0	-1.127542734E0
2.128205151E0	-1.131741524E0	3.844141483E0	-6.699512601E-1
2.136258113E0	-6.810150146E-1	3.946482182E0	-5.127851367E-1
2.144158653E0	7.288599014E-2	3.709437847E0	2.672913074E-1
2.152456497E0	6.723194122E-1	3.755516529E0	3.500334024E-1
2.160543074E0	-8.065605164E-2	2.563122272E0	-6.516325474E-2
2.168575074E0	-4.151158333E-1	2.680726051E0	-3.300608993E-1
2.176641035E0	-8.052697182E-1	3.134491920E0	-2.136610746E-1
2.184518999E0	-1.796199322E0	3.220582008E0	6.775820255E-2
2.192825805E0	-2.291324615E0	2.945874691E0	4.927463531E-1
2.200928689E0	-2.431129456E0	2.362882614E0	7.617881298E-1
2.208951689E0	-2.258255482E0	1.863980770E0	8.633301258E-1
2.217003420E0	-1.939822674E0	7.939934731E-1	6.075882912E-1
2.224881229E0	-9.178795815E-1	-1.249235153E0	-4.315546155E-1
2.233203035E0	-1.524378300E0	-1.181218147E0	-2.349672318E-1
2.241290151E0	-1.357680321E0	-9.533104897E-1	3.085702658E-1
2.249330766E0	-4.793806076E-1	-1.169848442E0	1.487655163E0
2.257383843E0	2.052161694E0	-2.497339725E0	4.894371033E-1
2.265256537E0	1.355094433E0	-1.062087536E0	-1.337666512E-1
2.273588650E0	3.338489532E-1	2.315926552E-1	-1.017550945E0
2.281677612E0	1.103798389E0	1.783890724E-1	-1.180579424E0
2.289712343E0	1.958801746E0	1.071372032E-1	-9.209029675E-1
2.297782650E0	1.864006996E0	2.781200409E-2	-7.856547236E-1
2.305634114E0	1.589909554E0	4.593849182E-1	-8.793525100E-1
2.313988573E0	7.530779839E-1	6.285662651E-1	-1.074232340E0
2.322090881E0	8.076667786E-1	5.749177933E-1	-8.275454640E-1
2.330117189E0	1.287981987E0	2.272672653E-1	-7.444256544E-1
2.338171689E0	1.058757305E0	3.566660881E-1	-6.316387653E-1
2.346047268E0	4.338426590E-1	5.679073334E-1	-3.407590389E-1
2.354373381E0	7.734298706E-2	4.581031799E-1	-1.807316542E-1
2.362463189E0	-5.389652252E-1	8.871650696E-2	-2.728489637E-1
2.370503881E0	-1.110518456E0	-3.661594391E-1	1.530849934E-2
2.378552806E0	-2.033713341E0	-6.560320854E-1	5.647276640E-1
2.386438460E0	-2.281102180E0	-1.008803844E0	7.014970183E-1
2.394763727E0	-1.793156147E0	-9.523162842E-1	7.266793847E-1
2.402852304E0	-1.152822971E0	-9.017457962E-1	8.240978122E-1
2.410888419E0	-4.882049561E-1	-9.275670052E-1	1.255568504E0
2.418957650E0	1.410894394E-1	-1.444336891E0	7.954331040E-1
2.426788691E0	1.020682335E0	-2.143124580E0	8.319655061E-1
2.435143534E0	2.392846584E0	-2.289003372E0	3.822832704E-1
2.443246727E0	3.578411579E0	-1.949593067E0	-4.637702107E-1
2.445087306E0	3.679935932E0	-1.794754505E0	-6.461854577E-1
2.447277150E0	3.627263546E0	-1.603218555E0	-8.257505894E-1
2.448692575E0	3.459668636E0	-1.385345936E0	-9.167302251E-1
2.451271150E0	3.222643375E0	-1.150714397E0	-9.143360257E-1
2.459323804E0	1.550978661E0	-2.797737122E-1	-6.576410532E-1
2.467393729E0	4.556093216E-1	-8.446884155E-2	-7.904300690E-1
2.475525034E0	-1.596703529E-1	-3.079299927E-1	-1.329559207E0
2.483614227E0	-3.093719482E-2	-5.247979164E-1	-1.526258469E0
2.491654227E0	1.531462669E-1	-4.779214859E-1	-1.386992574E0
2.499707726E0	1.691913605E-2	-1.808819771E-1	-1.447952986E0
2.507565383E0	-4.579887390E-1	1.187663078E-1	-1.007390261E0
2.515908919E0	-8.225569725E-1	1.889772415E-1	-5.993362069E-1
2.523995380E0	-4.759073257E-1	1.345696449E-1	-1.048722625E0
2.532029842E0	5.622024536E-1	-5.563526154E-1	-2.855814457E0
2.540097111E0	4.962162971E-1	-1.245832443E-1	-4.243381023E-1
2.547951575E0	2.327251434E-2	2.926282883E-1	1.012165070E0
2.556283957E0	-8.516802788E-1	6.592402458E-1	1.992017508E0
2.564371268E0	-1.192521572E0	1.057065010E0	1.932740450E0
2.572411495E0	-1.535792351E0	1.277545452E0	1.800929785E0
2.580465342E0	-1.395389080E0	1.096780300E0	1.646713376E0
2.588424421E0	-9.744739532E-1	7.645773888E-1	1.215278625E0
2.596664380E0	-3.897004128E-1	2.087898254E-1	1.294894576E0
2.604751188E0	-6.168541908E-1	-2.183828354E-1	4.136146307E-1
2.612790380E0	-1.160247326E0	6.623854637E-1	-1.999013424E-1
2.620842688E0	-1.657307625E0	1.466918945E0	-2.478845119E-1
2.628687306E0	1.436805725E-1	1.572732925E-1	-1.514738202E-1
2.637042918E0	1.196895123E0	5.981063843E-2	-8.475029469E-2
2.645131111E0	1.733519077E0	2.379240990E-1	-2.723531127E-1
2.653167149E0	1.484982967E0	2.922797203E-1	-5.032325387E-1
2.661235264E0	8.350753784E-1	3.031630516E-1	-9.532095790E-1
2.669089460E0	7.512278557E-1	-1.124286652E-2	-1.025418997E0
2.677418880E0	7.319149971E-1	-6.972837448E-2	-4.455249906E-1
2.685521880E0	7.977890968E-1	-1.264877319E-1	-3.264192343E-1
2.693546380E0	4.731106758E-1	4.618978500E-1	-2.116705775E-1
2.701598418E0	-2.611947060E-1	6.985888481E-1	-4.738616943E-1
2.709446114E0	-6.062216759E-1	2.798833847E-1	-4.709743857E-1
2.717778533E0	-1.663045883E-1	-1.841139793E-1	-2.482742071E-2
2.725868303E0	2.773075104E-1	-4.222655296E-1	-1.741255522E-1
2.733909803E0	4.932975769E-1	-5.993981361E-1	-6.243323684E-1
2.741963264E0	1.445484161E-2	-1.258665562E0	-1.576644421E0
2.749814768E0	6.695442200E-1	-1.883497715E0	-2.118430376E0
2.758164956E0	8.748517036E-1	-1.015848637E0	-3.328319192E-1
2.766254264E0	-4.438838959E-1	-7.924003601E-1	-5.040049553E-1
2.774290302E0	-4.758992195E-1	-1.667332649E-1	-4.138796628E-1
2.782358379E0	-2.166657925E0	6.225333214E-1	8.727992177E-1
2.790252383E0	-4.072802544E0	9.141130447E-1	1.895392418E0
2.798547187E0	-1.596541882E0	3.800086975E-1	1.843828917E0
2.806650148E0	1.458164692E0	-1.647653580E-1	1.672215223E0
2.814676187E0	6.004810333E-2	9.020805359E-3	1.275381327E0
2.822727802E0	1.441224098E0	1.792359352E-1	1.180977106E0
2.830593191E0	1.797862053E-1	1.341471672E-1	4.348430037E-1
2.838925610E0	6.296710968E-1	8.916668892E-1	-4.403996468E-2
2.847014417E0	-4.914917946E-1	1.012024879E0	-5.983955264E-1
2.855054494E0	-6.652173996E-1	6.692137718E-1	-8.311856985E-1
2.863108302E0	5.572032928E-2	1.572527885E-1	-7.678604722E-1
2.871002575E0	8.320331573E-3	-7.944965363E-2	-3.390378952E-1
2.879307494E0	-2.341046333E-1	-2.337422371E-1	-1.811984926E-1
2.887395340E0	-7.060441971E-1	6.906843185E-2	-2.253458500E-1
2.895429917E0	-2.992739677E-1	1.992135048E-1	1.332541108E-1
2.903497956E0	-9.634017944E-2	-3.434181213E-3	1.034960151E-1
2.911466190E0	-2.439069748E-2	-2.741189003E-1	2.098537385E-1
2.919686840E0	5.426878929E-1	-3.338894844E-1	2.799796760E-1
2.927790302E0	3.725790977E-1	-3.412070274E-1	3.310915530E-1
2.935815109E0	4.293103218E-1	-9.854269028E-2	2.352010906E-1
2.943868609E0	-2.988767624E-1	-2.103734016E-1	3.897170424E-1
2.951729767E0	4.418988228E-1	-3.066062927E-1	5.270034075E-2
2.960068494E0	4.066801071E-1	-3.842782974E-2	-4.466776550E-1
2.968156379E0	-2.398838997E-1	3.674907684E-1	-4.281822443E-1
2.976196340E0	9.325504303E-3	7.277059555E-1	1.153790951E-2
2.984247417E0	-6.664228439E-1	3.294191360E-1	6.284857392E-1
2.992096537E0	2.375068665E-1	-1.309628487E-1	2.025606632E-1
3.000444609E0	-2.153158665E0	-6.535878181E-1	3.330891132E-1
3.008531648E0	2.629229546E0	-9.659857750E-1	1.775068045E-1
3.016565109E0	5.595070362E0	1.824639797E0	-1.070809484E0
3.024631532E0	3.485974789E0	4.678353310E0	-1.257929921E0
3.032471460E0	-4.186048985E0	3.325317860E0	3.707332611E-1
3.040817148E0	-1.068509579E0	7.110080719E-1	1.355702281E-1
3.048917686E0	1.792273998E0	-1.373529434E-1	-1.006100893E0
3.056940340E0	9.446492195E-1	2.578182220E-1	-8.602623940E-1
3.064989378E0	2.853324890E0	1.459031105E-1	2.008798122E-1
3.072851575E0	-1.710347176E0	-3.136510849E-1	1.497922540E-1
3.081185032E0	-1.742057323E0	-1.071536541E0	1.055271029E-1
3.089271417E0	-3.949465752E-1	-2.007712841E0	-3.536820412E-3
3.097310147E0	-2.682051659E-1	-2.459000587E0	-3.535488248E-1
3.105360801E0	-3.629851341E-1	-2.938537598E0	-7.555673122E-1
3.113382152E0	-7.067394257E-2	-3.436642170E0	-1.131030798E0
3.121571647E0	-3.211541176E-1	-3.774791002E0	-1.386703610E0
3.129659070E0	-6.738629341E-1	-3.761241674E0	-1.424295187E0
3.137691955E0	-1.010279655E0	-3.268126965E0	-1.108824968E0
3.145756724E0	-1.203159332E0	-3.137320518E0	-2.623272538E-1
3.153611498E0	-1.173433304E0	-2.373070240E0	4.491088390E-1
3.161938955E0	-1.346762180E0	-1.857612133E0	7.541444302E-1
3.170039647E0	-1.023924351E0	-1.564865112E0	9.848605990E-1
3.178064378E0	-4.257240295E-1	-1.337870598E0	6.357493401E-1
3.186116570E0	-4.251418114E-1	-1.343033314E0	-1.003198624E-1
3.193982536E0	5.966253281E-1	-1.103970051E0	-9.966293573E-1
3.202316185E0	6.075596809E-1	-2.998070717E-1	-2.175877571E0
3.210404262E0	6.886391640E-1	4.171109200E-1	-2.610574722E0
3.218442185E0	2.063578606E0	3.516249657E-1	-2.601088762E0
3.226494878E0	3.277738094E0	8.016481400E-1	-2.696326017E0
3.234345075E0	4.531564713E0	1.320188046E0	-1.144569635E0
3.242691878E0	5.216656685E0	1.436450958E0	4.048657417E-1
3.250778377E0	4.279969692E0	1.517391205E0	8.880215883E-1
3.258812301E0	2.529381752E0	1.509601116E0	5.044323206E-1
3.266878454E0	1.084625721E0	1.116255760E0	2.511188388E-2
3.274767075E0	7.800722122E-1	4.886255264E-1	-8.704532683E-2
3.283063493E0	7.608771324E-1	-1.077308655E-1	3.555530310E-2
3.291165608E0	7.266607285E-1	-6.310381889E-1	1.820975840E-1
3.299188300E0	5.722527504E-1	-1.059842110E0	3.561015427E-1
3.307238877E0	1.219415665E-1	-1.321836948E0	5.155687332E-1
3.323435531E0	4.071807861E-2	-1.496987343E0	3.836665452E-1
3.331522531E0	2.632989883E-1	-1.358593941E0	9.004810452E-2
3.339564339E0	4.305787086E-1	-1.155667782E0	-2.695890367E-1
3.347617492E0	5.773196220E-1	-7.887268066E-1	-6.591764688E-1
3.355514306E0	1.377468109E-1	-5.509843826E-1	-7.600064278E-1
3.363816762E0	-1.624155045E-1	-3.974800110E-1	-7.495105267E-1
3.371904377E0	1.363277435E-3	-2.387013435E-1	-8.228386641E-1
3.379936646E0	7.190322876E-2	-1.998438835E-1	-8.100312948E-1
3.388001146E0	1.697978973E-1	-2.146315575E-1	-7.795475721E-1
3.395813536E0	4.368066788E-2	-1.080231667E-1	-8.692095280E-1
3.404181338E0	4.420824051E-1	-1.616072655E-1	-5.408537388E-1
3.412281569E0	2.954030037E-1	-3.014516830E-1	-3.249270320E-1
3.420304723E0	-8.239746094E-4	-3.175015450E-1	-3.151265681E-1
3.428356954E0	1.349077225E-1	-2.670655251E-1	-9.787161648E-2
3.436223036E0	1.917052269E-1	-2.786226273E-1	-1.020628586E-1
3.444552377E0	1.040201187E-1	-2.915372849E-1	-1.410422772E-1
3.452637761E0	-2.262115479E-3	-4.054384232E-1	-2.046835050E-2
3.460676531E0	2.976050377E-1	-4.825634956E-1	2.997735515E-2
3.468728492E0	3.930497169E-1	-5.276598930E-1	-2.315588295E-3
3.476555959E0	3.909497261E-1	-5.733327866E-1	-3.194159567E-1
3.484892146E0	4.226245880E-1	-5.426397324E-1	-5.166867971E-1
3.492977415E0	4.891557693E-1	-5.946950912E-1	-5.170889497E-1
3.501010530E0	4.418835640E-1	-6.407032013E-1	-4.217142761E-1
3.509078453E0	4.942841530E-1	-6.451172829E-1	-3.796217442E-1
3.516936267E0	5.866060257E-1	-7.109742165E-1	-2.981716394E-1
3.525280992E0	7.359809875E-1	-8.002610207E-1	-2.180072218E-1
3.533382799E0	8.247399330E-1	-8.719196320E-1	-1.477935761E-1
3.541406684E0	7.802162170E-1	-9.178900719E-1	-6.308043003E-2
3.549459069E0	7.158007622E-1	-9.342365265E-1	7.271453738E-3
3.557323344E0	6.785368919E-1	-9.632501602E-1	3.282830119E-3
3.565656838E0	6.242561340E-1	-9.510440826E-1	-9.306977689E-2
3.573742415E0	6.271419525E-1	-9.863691330E-1	-1.975179762E-1
3.581779992E0	7.183728218E-1	-9.423241615E-1	-2.361852825E-1
3.589831068E0	6.930408478E-1	-7.982230186E-1	-3.846266866E-1
3.597678728E0	8.437819481E-1	-5.403552055E-1	-7.615036964E-1
3.606027684E0	6.805586815E-1	-8.092498779E-2	-1.207072973E0
3.614113145E0	4.710855484E-1	2.756962776E-1	-1.495021582E0
3.622145761E0	-6.858778000E-2	4.856500626E-1	-1.495624065E0
3.630211645E0	5.825805664E-2	4.935774803E-1	-1.635592580E0
3.638076805E0	2.322287560E-1	3.197579384E-1	-8.767216206E-1
3.646392376E0	-5.283613205E-1	4.602689743E-1	2.637374401E-1
3.654492953E0	-7.551012039E-1	3.432884216E-1	9.149017334E-1
3.662515491E0	-2.959337234E-1	-6.368875504E-2	2.361239910E0
3.670566645E0	-1.129013538E0	6.020283699E-1	1.862885952E0
3.678428844E0	-1.078548431E0	5.453286171E-1	1.258595586E0
3.686763453E0	-1.119110107E0	4.917650223E-1	7.816097140E-1
3.694849414E0	-8.320226669E-1	4.385232925E-1	6.413521767E-1
3.702888607E0	2.224259377E-1	-1.188755035E-3	1.593993664E0
3.718823459E0	-1.402210236E0	1.053534985E0	5.572443008E-1
3.727140645E0	-1.414141178E0	1.144123077E0	3.310565650E-1
3.735228491E0	-1.241098881E0	9.758033752E-1	5.274040699E-1
3.743265914E0	-1.044282913E0	8.163414001E-1	1.179820299E0
3.751335068E0	-8.690452576E-1	8.413558006E-1	2.077592134E0
3.767523683E0	-7.128076553E-1	2.108069420E0	3.220386028E0
3.775627568E0	-4.148635864E-1	3.450705051E0	3.050792694E0
3.783654568E0	-6.979274750E-2	4.883913994E0	2.130959034E0
3.791706645E0	6.574411392E-1	6.010646820E0	6.903693676E-1
3.799590651E0	1.198098660E0	6.838586330E0	-7.199703455E-1
3.807905952E0	7.195796967E-1	7.384263039E0	-1.760862947E0
3.815993721E0	1.592564583E-1	8.135872841E0	-2.564451694E0
3.824033183E0	-1.112242222E0	8.315841675E0	-2.530552387E0
3.832086337E0	-3.078701973E0	7.212682247E0	-2.223733902E0
3.839982497E0	-4.754131317E0	5.523267746E0	-1.922124863E0
3.848286644E0	-5.542335510E0	3.998930931E0	-1.575655818E0
3.856374644E0	-5.910260677E0	2.764108658E0	-1.490926504E0
3.864410221E0	-5.753129005E0	1.957982063E0	-1.209749937E0
3.872478567E0	-5.285933495E0	1.569211483E0	-8.881003857E-1
3.880327767E0	-4.517947674E0	1.338362217E0	-6.908710003E-1
3.888663221E0	-3.631953716E0	1.083978176E0	-7.475068569E-1
3.893923805E0	-2.961494923E0	8.537487984E-1	-8.017067909E-1
3.896766721E0	-2.702920914E0	7.388272285E-1	-8.352258205E-1
3.904792913E0	-1.908470154E0	1.859049797E-1	-1.036427021E0
3.912848029E0	-1.175685406E0	-4.027876854E-1	-1.309780359E0
3.920691151E0	-6.928734779E-1	-9.967164993E-1	-1.547376871E0
3.929033683E0	-4.285879135E-1	-1.422632694E0	-1.706366658E0
3.937123990E0	-2.250022888E-1	-1.615966797E0	-1.727447987E0
3.945165836E0	-1.233720779E-1	-1.575868130E0	-1.571581721E0
3.953221298E0	-1.687765121E-1	-1.308179855E0	-1.417645097E0
3.961070074E0	-1.155128479E-1	-1.102858067E0	-1.175758123E0
3.969424529E0	9.958744049E-3	-9.768891335E-1	-9.733183384E-1
3.977513259E0	4.782886505E-1	-9.813523293E-1	-6.983714104E-1
3.985549798E0	6.764326096E-1	-1.056467056E0	-5.392341614E-1
3.993618221E0	6.906094551E-1	-1.051841736E0	-3.736398220E-1
4.001444920E0	7.417669296E-1	-1.076874256E0	-1.940705776E-1
4.009804644E0	5.367517471E-1	-1.131986618E0	-4.697060585E-2
4.017908644E0	-3.885746002E-3	-1.092628956E0	2.711367607E-2
4.025934490E0	-5.467805862E-1	-9.229850769E-1	-5.507946014E-3
4.033987951E0	-9.876966476E-1	-7.370896339E-1	-5.572986603E-2
4.041847651E0	-1.375599384E0	-5.272274017E-1	-7.175779343E-2
4.050187374E0	-1.760504246E0	-3.575420380E-1	-8.194875717E-2
4.058274144E0	-2.065584660E0	-2.293057442E-1	8.456492424E-2
4.066317759E0	-2.315865993E0	-1.235365868E-1	3.517458439E-1
4.074369759E0	-2.435098648E0	-5.530977249E-2	7.074201107E-1
4.082203536E0	-2.527033806E0	-2.635335922E-2	9.680302143E-1
4.090568528E0	-2.434076309E0	-3.132581711E-2	1.231881618E0
4.098656374E0	-2.277443409E0	-5.834770203E-2	1.513742685E0
4.106690951E0	-1.975396633E0	3.896045685E-2	1.735622168E0
4.114758797E0	-1.475054741E0	2.262229919E-1	1.928317308E0
4.122561920E0	-1.056521893E0	3.924283981E-1	1.846767902E0
4.130945566E0	-7.990174294E-1	5.095939636E-1	1.340724230E0
4.139050489E0	-6.494011879E-1	5.465235710E-1	6.005618572E-1
4.147076489E0	-6.650500298E-1	4.310493469E-1	-1.036889553E-1
4.155129489E0	-8.742747307E-1	1.553559303E-1	-5.336475372E-1
4.162993997E0	-1.120050907E0	-1.193938255E-1	-7.647094727E-1
4.171328566E0	-1.087641239E0	-1.004166603E-1	-1.170492053E0
4.179415374E0	-5.629711151E-1	4.364085197E-1	-1.634966731E0
4.187454989E0	7.964000702E-1	1.554916859E0	-2.015824556E0
4.195507258E0	2.556469440E0	3.235414028E0	-2.846110106E0
4.203432074E0	3.762666225E0	5.078923702E0	-3.719648838E0
4.211705682E0	3.425280571E0	6.439251423E0	-4.269213676E0
4.219791951E0	2.598788261E0	7.449560642E0	-4.402343750E0
4.227825797E0	5.435733795E-1	7.733938694E0	-3.812480211E0
4.235892835E0	-2.246276379E0	7.331703186E0	-3.362365723E0
4.243723536E0	-5.263558388E0	6.838845253E0	-3.049969435E0
4.252080912E0	-7.249796867E0	6.099269390E0	-3.134784222E0
4.260183797E0	-8.518063545E0	5.200811863E0	-3.490538120E0
4.268208181E0	-9.047499657E0	4.352182388E0	-3.413878202E0
4.276261143E0	-8.764348984E0	3.675235748E0	-2.750211716E0
4.284132651E0	-7.791485786E0	3.210775375E0	-1.928145409E0
4.292460874E0	-7.019477844E0	2.850601673E0	-1.399794579E0
4.300548643E0	-6.232789516E0	2.578309059E0	-1.246793985E0
4.308590720E0	-5.109189987E0	2.111333370E0	-1.343368769E0
4.316643796E0	-4.316034794E0	1.537567616E0	-1.511311531E0
4.324491420E0	-3.684608698E0	1.152552128E0	-1.828393221E0
4.332860143E0	-3.083599567E0	1.001058578E0	-2.058052540E0
4.340946258E0	-2.208216190E0	1.080445290E0	-2.440242290E0
4.348982143E0	-1.414696217E0	1.134092808E0	-2.769328594E0
4.357051066E0	-8.243970871E-1	1.072916031E0	-3.278433800E0
4.364959459E0	-2.633624077E-1	1.006354809E0	-3.674406052E0
4.373237719E0	-5.678520203E-1	2.202610970E-1	-4.379575729E0
4.381342450E0	-5.153388977E-1	-7.915067673E-2	-4.657528877E0
4.389366719E0	-5.968151093E-1	-2.844185829E-1	-4.721611500E0
4.397413920E0	-7.375030518E-1	-2.295408249E-1	-4.542145252E0
4.405240228E0	-7.330837250E-1	-1.040163040E-1	-4.223565102E0
4.413599112E0	-2.744612694E-1	4.612398148E-2	-3.760066748E0
4.421702181E0	1.019067764E-1	2.875242233E-1	-3.149142504E0
4.429743488E0	6.878333092E-1	7.301635742E-1	-2.262052059E0
4.437796296E0	1.416303158E0	1.460837364E0	-1.196693659E0
4.445636497E0	2.190118313E0	2.390469551E0	-4.070901871E-2
4.453995373E0	2.341987133E0	2.479280472E0	6.836326122E-1
4.462081027E0	1.542274475E0	1.678693771E0	1.076322079E0
4.470113950E0	-2.431249619E-2	7.536406517E-1	1.375841379E0
4.478163997E0	-1.494376183E0	6.883335114E-2	1.379551411E0
4.485986189E0	-2.554474354E0	-3.796176910E-1	9.169650078E-1
4.494371219E0	-3.360147476E0	-6.932551861E-1	1.854181290E-1
4.502477450E0	-3.927329063E0	-8.726255894E-1	-3.285198212E-1
4.510502834E0	-4.300595284E0	-8.680660725E-1	-6.861698627E-1
4.518550189E0	-4.537416458E0	-7.372989655E-1	-9.091207981E-1
4.526453035E0	-4.463888168E0	-4.304647446E-1	-9.875047207E-1
4.534764574E0	-4.087946415E0	1.497268677E-4	-1.163487434E0
4.542854642E0	-3.382139683E0	7.506158352E-1	-1.395592451E0
4.550895142E0	-2.469927311E0	1.633061647E0	-1.324296474E0
4.558949372E0	-1.475800037E0	2.580853462E0	-1.162470102E0
4.566770459E0	-3.123474121E-1	3.414163113E0	-8.849773407E-1
4.575150449E0	8.247022629E-1	3.837164402E0	-7.813687325E-1
4.583239257E0	1.495214462E0	4.028151512E0	-1.069507122E0
4.591275103E0	1.594034195E0	4.057460785E0	-1.614172935E0
4.599344834E0	1.372133255E0	3.652777672E0	-2.188093185E0
4.607157035E0	7.506179810E-1	2.546529531E0	-2.277324438E0
4.615528642E0	-2.327995300E-1	1.694059134E0	-2.023339510E0
4.623625035E0	-1.359889984E0	1.065211773E0	-1.686091900E0
4.631659141E0	-2.285656929E0	4.965718985E-1	-1.462208271E0
4.639711257E0	-2.988926888E0	-2.796185017E-2	-1.321951866E0
4.647546343E0	-3.390913486E0	-4.963184595E-1	-9.548974037E-1
4.655912526E0	-3.619750500E0	-9.571768045E-1	-4.437704086E-1
4.664001564E0	-3.506427765E0	-1.180077076E0	9.112787247E-2
4.672042257E0	-2.973541260E0	-1.056640625E0	7.683186531E-1
4.680096141E0	-2.278125286E0	-7.678812742E-1	1.543428898E0
4.687914766E0	-1.622769356E0	-2.559379339E-1	2.044266701E0
4.696295872E0	-1.171875000E0	3.704187870E-1	1.887226105E0
4.704383987E0	-9.307212830E-1	9.533571601E-1	1.163929939E0
4.712419833E0	-5.073037148E-1	1.322187901E0	3.059606552E-1
4.720489372E0	1.414961815E-1	1.412530184E0	-2.756881714E-1
4.728348035E0	7.659487724E-1	1.339835167E0	-3.562064171E-1
4.736694487E0	1.315950871E0	1.030674219E0	1.208357811E-1
4.744800064E0	1.554558754E0	6.921043992E-1	8.936038017E-1
4.752826064E0	1.467778683E0	5.451627374E-1	1.993261814E0
4.760878718E0	1.261022091E0	7.022818923E-1	2.745995998E0
4.768714074E0	7.504720688E-1	1.130241752E0	2.991437912E0
4.777070843E0	3.154826164E-1	1.505801082E0	2.763000011E0
4.785163487E0	-2.100992203E-2	1.729851246E0	2.166529179E0
4.793202179E0	-4.334063530E-1	1.815993667E0	1.400722504E0
4.801255410E0	-9.118266106E-1	1.758262753E0	8.418598175E-1
4.809091304E0	-9.839301109E-1	6.688915491E-1	5.667490959E-1
4.817445910E0	-2.908576012E0	1.362511635E0	6.258149147E-1
4.825535064E0	-3.531836033E0	1.596258879E0	3.271589279E-1
4.833580910E0	-3.221935749E0	1.419030070E0	4.889788628E-1
4.841650064E0	-2.550861359E0	1.358936191E0	9.241542816E-1
4.849475535E0	-1.545447350E0	1.186196089E0	1.440925598E0
4.857836833E0	-5.972871780E-1	1.198366404E0	2.264227867E0
4.865940487E0	-1.747436523E-1	1.332815170E0	2.433248043E0
4.873966833E0	-2.515344620E-1	1.589299321E0	2.390221119E0
4.882020140E0	-7.122006416E-1	1.827070951E0	2.251126289E0
4.889881804E0	-1.122384548E0	2.003462791E0	2.079959393E0
4.898216497E0	-9.554805756E-1	1.930913091E0	1.869471073E0
4.906307987E0	-9.771847725E-1	1.861523151E0	1.572396755E0
4.914350563E0	-7.797803879E-1	1.632533550E0	1.205680847E0
4.922390727E0	-5.041837692E-1	1.499396682E0	1.002355576E0
4.930223343E0	-2.235536575E-1	1.319370508E0	9.829216003E-1
4.938594535E0	1.863479614E-2	1.117564678E0	1.064282894E0
4.946689717E0	-1.038303375E-1	9.159352779E-1	1.096773148E0
4.954724140E0	1.471972466E-1	5.764440298E-1	9.362416267E-1
4.962791563E0	1.831784248E-1	4.428702593E-1	1.143683434E0
4.970638381E0	-2.516036034E-1	4.668437243E-1	1.272074223E0
4.978977486E0	-6.222391129E-1	6.226933002E-1	1.347163677E0
4.987080486E0	-1.167490959E0	1.562292576E-1	1.377998829E0
4.995104871E0	-1.169660568E0	-1.901605129E-1	1.183392525E0
5.003157294E0	-1.963847637E0	-3.964686394E-2	6.915979385E-1
5.010990843E0	-1.953145504E0	-2.851374149E-1	7.837152481E-2
5.019355563E0	-1.504103184E0	-5.607550144E-1	-1.980586052E-1
5.027444101E0	-8.401403427E-1	-9.836435318E-1	-9.799528122E-2
5.035487025E0	-1.635956764E-1	-1.463467360E0	3.779554367E-2
5.043540640E0	7.016038895E-2	-1.509756804E0	1.495332718E-1
5.051371189E0	2.191224098E-1	-1.413152933E0	4.122505188E-1
5.059740255E0	3.019418716E-1	-1.396385670E0	4.900264740E-1
5.067824266E0	4.421000481E-1	-1.382154942E0	4.341878891E-1
5.075859601E0	5.953755379E-1	-1.387478590E0	3.075380325E-1
5.083928678E0	7.172584534E-1	-1.316390276E0	1.726455688E-1
5.091741650E0	1.061810017E0	-1.273923874E0	-1.436238289E-1
5.100115063E0	1.316976070E0	-1.120841026E0	-1.094336510E-1
5.108218486E0	1.451410294E0	-8.860416412E-1	1.184306145E-1
5.116244986E0	1.589852810E0	-6.354403496E-1	2.767491341E-1
5.124297486E0	1.433783054E0	-3.330168724E-1	5.651931763E-1
5.132135150E0	1.589229107E0	-3.812980652E-1	7.531952858E-1
5.140481255E0	1.428012848E0	-5.414333344E-1	1.119938374E0
5.148569755E0	1.164291382E0	-8.182697296E-1	1.253625393E0
5.156612216E0	9.357180595E-1	-1.171821117E0	1.306815624E0
5.164666409E0	7.694005966E-1	-1.646994114E0	1.085509777E0
5.172494881E0	8.580241203E-1	-2.147898674E0	7.590723038E-1
5.180865216E0	9.314656258E-1	-2.614473820E0	2.713055611E-1
5.188953024E0	1.018526554E0	-2.697302818E0	1.657247543E-2
5.196985909E0	1.013789654E0	-2.333168983E0	-2.008461952E-1
5.205054562E0	1.119255066E0	-1.688540459E0	-3.183917999E-1
5.212905650E0	1.325883389E0	-1.092723846E0	-2.238798141E-2
5.221244985E0	1.607597351E0	-7.291555405E-1	6.019492149E-1
5.229349062E0	1.803285122E0	-6.143655777E-1	1.093973637E0
5.237374831E0	1.708492279E0	-4.716553688E-1	1.290956497E0
5.245428216E0	1.878974438E0	-3.373837471E-1	1.155754089E0
5.253275612E0	1.739002705E0	-2.093186378E-1	8.970222473E-1
5.261630447E0	1.542228222E0	-7.638931274E-4	5.290937424E-1
5.269719408E0	1.585834026E0	1.334862709E-1	1.610565186E-2
5.277760293E0	1.280442715E0	3.657946587E-1	-4.453392029E-1
5.285812947E0	9.431123734E-1	6.333737373E-1	-8.663282394E-1
5.293629112E0	5.816302299E-1	8.947114944E-1	-9.631376266E-1
5.302004958E0	4.578104019E-1	1.022897243E0	-8.807110786E-1
5.310096177E0	2.868595123E-1	1.107502460E0	-6.581745148E-1
5.318127100E0	1.509652138E-1	1.178769588E0	-4.713044167E-1
5.326193985E0	1.855235100E-1	1.099199772E0	-4.011778831E-1
5.334014573E0	3.101048470E-1	1.023219109E0	-4.063606262E-1
5.342378523E0	5.495786667E-1	8.666424751E-1	-4.046654701E-1
5.350482908E0	7.059869766E-1	6.893539429E-1	-5.098123550E-1
5.358507600E0	5.562453270E-1	6.567740440E-1	-5.088591576E-1
5.366559677E0	8.599910736E-1	4.409527779E-1	-4.890446663E-1
5.374389381E0	6.195964813E-1	3.304781914E-1	-6.268668175E-1
5.382750535E0	4.868350029E-1	2.121691704E-1	-8.995361328E-1
5.390841869E0	3.209786415E-1	1.037297249E-1	-1.108417034E0
5.398881562E0	3.475389481E-1	2.086496353E-2	-1.300472975E0
5.406934023E0	4.188694954E-1	-1.455116272E-2	-1.533107281E0
5.414837612E0	5.295715332E-1	-1.284294128E-1	-1.692327738E0
5.423129419E0	4.425377846E-1	-2.028846741E-1	-1.695142984E0
5.431218946E0	3.883199692E-1	-3.062062263E-1	-1.658808470E0
5.439251061E0	4.388217926E-1	-4.044017792E-1	-1.682491064E0
5.447317984E0	1.515870094E-1	-4.791460037E-1	-1.747323275E0
5.455144996E0	-7.426023483E-2	-5.762763023E-1	-1.808245182E0
5.463506984E0	-4.517216682E-1	-7.073302269E-1	-1.758245468E0
5.471610715E0	-6.728816032E-1	-8.368663788E-1	-1.624492407E0
5.479636561E0	-9.383955002E-1	-8.167023659E-1	-1.474779367E0
5.487683342E0	-7.619538307E-1	-9.752936363E-1	-1.527162075E0
5.495595996E0	-9.956793785E-1	-1.083948135E0	-1.417052507E0
5.503889677E0	-8.223323822E-1	-1.278759480E0	-1.249853373E0
5.511978215E0	-4.830579758E-1	-1.969544411E0	-1.266321898E0
5.520019715E0	2.569293976E-2	-2.614422798E0	-1.132035017E0
5.528070035E0	9.004316330E-1	-3.505727768E0	-1.389504433E0
5.535913650E0	1.661809921E0	-4.202976704E0	-2.319174767E0
5.544286689E0	2.556620121E0	-4.844736099E0	-3.584862947E0
5.552376215E0	3.799030781E0	-5.335473537E0	-4.148255348E0
5.560407946E0	3.902064323E0	-4.868402481E0	-3.681093216E0
5.568475176E0	4.133348465E0	-4.271811008E0	-2.704470634E0
5.576408727E0	3.705803394E0	-3.287326336E0	-1.502575636E0
5.584658099E0	3.959944725E0	-2.411832333E0	-4.237477779E-1
5.592759830E0	3.571173668E0	-1.196411133E0	-3.438181877E-1
5.600784638E0	2.486413956E0	-4.903197289E-2	-7.014775276E-1
5.608835868E0	1.016344070E0	1.178478718E0	-1.036683559E0
5.616690150E0	3.495740891E-1	2.171310425E0	-9.528529644E-1
5.625037138E0	9.116172791E-3	2.912005186E0	-8.283545971E-1
5.633125445E0	-1.871957779E-1	3.384595633E0	-5.827035904E-1
5.641167638E0	1.245555878E-1	3.502422333E0	-4.096696377E-1
5.649219253E0	6.647090912E-1	3.335803509E0	-4.837291241E-1
5.657102881E0	1.297150612E0	2.753907442E0	-6.723372936E-1
5.665420368E0	1.810523987E0	1.579768062E0	-1.403137803E0
5.673507753E0	1.909923553E0	4.308152199E-2	-2.276655674E0
5.681528753E0	2.324102402E0	-2.399124384E0	-3.441855907E0
5.689581996E0	2.844434738E0	-5.559574604E0	-4.175506115E0
5.697403150E0	3.427240372E0	-7.854479790E0	-3.939382792E0
5.705777804E0	3.519776344E0	-6.920271873E0	-5.865328312E-1
5.713890253E0	3.256890297E0	-4.163038731E0	2.163630724E0
5.721917522E0	2.340175629E0	-1.972179890E0	2.036467552E0
5.729971599E0	1.567808151E0	-1.392178535E0	7.870414257E-1
5.737795765E0	9.642000198E-1	-1.496878386E0	-2.733149529E-1
5.746171637E0	3.729095459E-1	-1.194886923E0	-5.327255726E-1
5.754230727E0	-4.418468475E-2	-8.109958172E-1	-5.851557255E-1
5.762302868E0	-3.149852753E-1	-6.028635502E-1	-6.651315689E-1
5.770352150E0	-4.055404663E-1	-4.906387329E-1	-6.655533314E-1
5.778175419E0	-4.048771858E-1	-3.858640194E-1	-7.078850269E-1
5.786547842E0	-3.596792221E-1	-3.898720741E-1	-6.707763672E-1
5.794649906E0	-2.542295456E-1	-3.407578468E-1	-6.977400780E-1
5.802691329E0	2.318096161E-2	-3.076581955E-1	-7.140274048E-1
5.810754073E0	3.246555328E-1	-3.404440880E-1	-9.184126854E-1
5.818758419E0	4.764490128E-1	-2.800102234E-1	-1.269256353E0
5.826950727E0	5.819540024E-1	-3.258728981E-1	-1.587973714E0
5.835055329E0	6.840429306E-1	-4.359812737E-1	-1.643410921E0
5.843081868E0	8.030176163E-1	-4.666500092E-1	-1.548252702E0
5.851127342E0	9.234056473E-1	-5.014891624E-1	-1.349335432E0
5.858966765E0	1.126275063E0	-4.698419571E-1	-9.786417484E-1
5.867326842E0	1.308096409E0	-5.333027840E-1	-2.944643497E-1
5.875417496E0	1.369414806E0	-5.032348633E-1	2.870385647E-1
5.883467098E0	1.267485619E0	-5.856013298E-1	6.054465771E-1
5.891521214E0	1.020161152E0	-6.392536163E-1	7.715682983E-1
5.899373111E0	8.195133209E-1	-6.817636490E-1	7.424867153E-1
5.907724906E0	7.544164658E-1	-7.008738518E-1	6.812682152E-1
5.915813290E0	7.951674461E-1	-6.292757988E-1	6.649696827E-1
5.923844406E0	7.596035004E-1	-4.663057327E-1	7.551364899E-1
5.931912829E0	6.343903542E-1	-2.338266373E-1	8.413841724E-1
5.939754919E0	4.087867737E-1	8.179998398E-2	8.913247585E-1
5.948118790E0	7.920932770E-2	3.783483505E-1	9.683673382E-1
5.956223290E0	-1.689820290E-1	6.720118523E-1	1.030133009E0
5.964249829E0	-2.047705650E-1	8.738703728E-1	1.148415327E0
5.980212188E0	-7.908391953E-2	1.108896732E0	1.179637432E0
5.988510790E0	7.319736481E-2	9.946103096E-1	1.080129623E0
5.996599444E0	3.028311729E-1	7.930774689E-1	9.832992554E-1
6.012696752E0	2.761034966E-1	1.422739029E-1	1.110695839E0
6.020527611E0	4.677104950E-2	-2.451190948E-1	1.302193165E0
6.028900482E0	-8.468008041E-2	-5.763597488E-1	1.417970419E0
6.036991213E0	-1.762461662E-1	-8.575892448E-1	1.444484949E0
6.045024828E0	-3.300204277E-1	-1.016302109E0	1.424649715E0
6.053094213E0	-5.098094940E-1	-1.078268051E0	1.244285107E0
6.060913496E0	-7.493524551E-1	-1.113601685E0	9.762687683E-1
6.069283905E0	-9.863548279E-1	-1.091384411E0	6.035163403E-1
6.077388559E0	-1.197508812E0	-1.023035526E0	2.349438667E-1
6.085416944E0	-1.391529560E0	-9.180283546E-1	-1.583340168E-1
6.093471751E0	-1.541443825E0	-8.122682571E-1	-4.512770176E-1
6.101325304E0	-1.714520931E0	-6.567797661E-1	-6.655557156E-1
6.109677367E0	-1.973975182E0	-4.905290604E-1	-7.820646763E-1
6.117767867E0	-2.261676311E0	-3.523855209E-1	-8.351538181E-1
6.125812367E0	-2.342426062E0	-4.536747932E-1	-8.590509892E-1
6.133844727E0	-2.468900681E0	-5.948004723E-1	-8.633534908E-1
6.141664380E0	-2.403156519E0	-8.703856468E-1	-8.579502106E-1
6.150037957E0	-2.348757505E0	-1.208795547E0	-7.896993160E-1
6.158146443E0	-2.212097406E0	-1.551862717E0	-6.320765018E-1
6.166176289E0	-2.167379618E0	-1.818233967E0	-4.538495541E-1
6.174225765E0	-2.272885323E0	-1.988523006E0	-2.908928394E-1
6.182041034E0	-2.183933258E0	-2.262303352E0	-1.681089401E-1
6.190425866E0	-2.108732462E0	-2.404777050E0	-4.047203064E-2
6.198525905E0	-2.045122385E0	-2.693844795E0	9.417533875E-4
6.206550905E0	-2.071991682E0	-2.800614357E0	-4.494333267E-2
6.214603289E0	-2.038668156E0	-2.840061188E0	-2.265331745E-1
6.222479919E0	-1.833055735E0	-2.671992302E0	-4.552333355E-1
6.230800034E0	-1.458179474E0	-2.424732685E0	-6.678576469E-1
6.238889905E0	-1.009752989E0	-2.004389286E0	-7.344417572E-1
6.246932520E0	-6.141312122E-1	-1.510925293E0	-6.616854668E-1
6.254985597E0	-2.810101509E-1	-9.843850136E-1	-5.002243519E-1
6.263042457E0	-9.968423843E-2	-3.915004730E-1	-3.071117401E-1
6.271181520E0	-4.128932953E-3	1.199407578E-1	-1.547002792E-1
6.279268597E0	-2.312254906E-2	5.684108734E-1	-3.888750076E-2
6.287299135E0	-9.896755219E-3	9.476704597E-1	1.174092293E-1
6.295366250E0	-1.240890026E-1	1.278405190E0	2.621932030E-1
6.303289034E0	-3.945178986E-1	1.566451073E0	3.348503113E-1
6.311549712E0	-8.823740482E-1	1.775597095E0	3.072495461E-1
6.319652097E0	-1.383225918E0	1.909035683E0	1.324768066E-1
6.327677827E0	-1.866260886E0	1.891408443E0	-1.356053352E-1
6.335731250E0	-2.182598829E0	1.680763245E0	-4.296379089E-1
6.343550226E0	-2.151868582E0	1.420046329E0	-7.079510689E-1
6.351909996E0	-1.905173302E0	1.149771214E0	-9.038534164E-1
6.359999673E0	-1.561928272E0	8.730826378E-1	-1.027201653E0
6.368041250E0	-1.270986557E0	7.287821770E-1	-1.014486790E0
6.376094866E0	-1.138211489E0	6.702980995E-1	-8.694233894E-1
6.384183481E0	-1.070558071E0	7.146167755E-1	-6.887335777E-1
6.392293342E0	-1.036250830E0	8.012742996E-1	-5.767455101E-1
6.400386404E0	-9.336435795E-1	8.744201660E-1	-6.014637947E-1
6.408420442E0	-7.574338913E-1	8.874506950E-1	-6.274747849E-1
6.416490365E0	-4.715955257E-1	8.240385056E-1	-5.735306740E-1
6.424320457E0	-2.251923084E-1	7.070264816E-1	-4.432182312E-1
6.432680365E0	9.060215950E-2	4.961504936E-1	-2.270283699E-1
6.440784865E0	3.458347321E-1	2.371335030E-1	6.148958206E-2
6.448811711E0	5.086517334E-1	-8.290243149E-2	2.797183990E-1
6.456865634E0	6.121687889E-1	-4.530463219E-1	4.815077782E-1
6.464710957E0	5.165181160E-1	-7.709040642E-1	6.043362617E-1
6.473067904E0	3.659005165E-1	-9.264068604E-1	7.225847244E-1
6.481156827E0	3.449623585E-1	-6.809763908E-1	8.681807518E-1
6.489198904E0	5.502059460E-1	-3.199763298E-1	9.972438812E-1
6.497254173E0	9.586651325E-1	-7.766914368E-2	1.207073689E0
6.505073765E0	1.408108234E0	-7.946491241E-2	1.460608959E0
6.513457942E0	1.800229311E0	-2.202601433E-1	1.581686020E0
6.521537803E0	1.808004618E0	-3.118400574E-1	1.465894699E0
6.529582288E0	1.334662914E0	-2.969751358E-1	1.164187431E0
6.537650326E0	8.440353870E-1	-1.449146271E-1	8.082227707E-1
6.545483842E0	5.208868980E-1	2.143392563E-1	4.364438057E-1
6.553837365E0	2.917807102E-1	4.878640175E-1	1.530518532E-1
6.561940826E0	1.530861855E-2	6.146574020E-1	-8.695411682E-2
6.569966980E0	-2.169804573E-1	6.874604225E-1	-2.585930824E-1
6.578020980E0	-4.609551430E-1	4.508719444E-1	-3.594765663E-1
6.585870342E0	-7.470715046E-1	1.354050636E-1	-4.421205521E-1
6.594218803E0	-8.543338776E-1	-1.536893845E-1	-5.024762154E-1
6.602313942E0	-9.476137161E-1	-6.076264381E-1	-5.547347069E-1
6.610356134E0	-8.114509583E-1	-9.441852570E-1	-5.746431351E-1
6.618407942E0	-5.762336254E-1	-1.300943375E0	-5.604920387E-1
6.626273611E0	-3.142316341E-1	-1.593951702E0	-5.587863922E-1
6.634604711E0	-1.108894348E-1	-1.869616985E0	-5.073814392E-1
6.642693172E0	1.082105637E-1	-2.016432762E0	-3.743686676E-1
6.650722903E0	2.075133324E-1	-2.021059513E0	-2.791428566E-1
6.658790711E0	3.720972538E-1	-1.962976933E0	-2.612261772E-1
6.666642457E0	5.334222317E-1	-1.800438404E0	-3.213829994E-1
6.674980634E0	7.135121822E-1	-1.543304920E0	-3.963460922E-1
6.683083711E0	8.635857105E-1	-1.158810616E0	-4.584803581E-1
6.691109057E0	8.352732658E-1	-6.756849289E-1	-4.015374184E-1
6.699160441E0	8.763682842E-1	-2.637491226E-1	-3.258967400E-1
6.707016880E0	8.349423409E-1	8.378171921E-2	-2.505168915E-1
6.715359633E0	7.693715096E-1	3.070645332E-1	-2.178297043E-1
6.723445633E0	5.532371998E-1	4.661622047E-1	-1.785378456E-1
6.731486672E0	3.066504002E-1	4.499459267E-1	-1.343274117E-1
6.739540364E0	2.512049675E-2	4.298377037E-1	-1.394486427E-1
6.747394418E0	-3.744795322E-1	3.646368980E-1	-1.492266655E-1
6.755754941E0	-6.516890526E-1	2.700953484E-1	-1.080160141E-1
6.763843979E0	-8.309936523E-1	2.926397324E-1	-1.179027557E-1
6.771876749E0	-1.081795216E0	4.313635826E-1	-1.676759720E-1
6.779944172E0	-1.325508833E0	6.429538727E-1	-1.931552887E-1
6.787975842E0	-1.431797266E0	8.087916374E-1	-2.092742920E-1
6.796128441E0	-1.413649321E0	9.104557037E-1	-3.294763565E-1
6.804231902E0	-1.392277718E0	1.026867390E0	-5.176305771E-1
6.812257864E0	-1.362245560E0	1.151188374E0	-7.430229187E-1
6.820309748E0	-1.233852148E0	1.264616489E0	-8.822517395E-1
6.828186111E0	-1.082459927E0	1.345103741E0	-1.016654015E0
6.836509287E0	-9.574410915E-1	1.384296894E0	-1.140365362E0
6.844597056E0	-8.376247883E-1	1.386264801E0	-1.196462870E0
6.852638479E0	-6.475348473E-1	1.305756092E0	-1.231220245E0
6.860692171E0	-4.520695210E-1	1.166082382E0	-1.159999371E0
6.868543111E0	-2.626390457E-1	1.034025669E0	-1.009107590E0
6.876891902E0	-1.347126961E-1	9.334235191E-1	-8.175389767E-1
6.884981556E0	-9.651017189E-2	8.962531090E-1	-4.956264496E-1
6.893015941E0	5.003404617E-2	8.867812157E-1	-1.064543724E-1
6.901084402E0	-4.955005646E-2	9.242558479E-1	2.485303879E-1
6.908929457E0	3.490281105E-2	9.341654778E-1	4.881265163E-1
6.917274633E0	1.195950508E-1	9.400534630E-1	6.882905960E-1
6.925378287E0	2.026963234E-1	9.442744255E-1	9.436814785E-1
6.933406825E0	3.344321251E-1	9.242644310E-1	1.284735441E0
6.941460633E0	4.665288925E-1	9.874329567E-1	1.557267427E0
6.949313418E0	6.367440224E-1	1.107210159E0	1.729868174E0
6.957661918E0	7.901163101E-1	1.286731243E0	1.863755226E0
6.965754825E0	8.349375725E-1	1.387881756E0	2.001421690E0
6.973797671E0	1.116047859E0	1.422730446E0	2.172054291E0
6.981853209E0	1.334104061E0	1.462049961E0	2.206910610E0
6.989741572E0	1.541617870E0	1.412874699E0	2.116367817E0
6.998056863E0	1.698106766E0	1.349989891E0	1.958101034E0
7.006147748E0	1.831467628E0	1.354160786E0	1.813746452E0
7.014182171E0	1.856163979E0	1.382621765E0	1.784978151E0
7.022251709E0	1.690982342E0	1.390902996E0	1.686871290E0
7.030076457E0	1.435269833E0	1.359005928E0	1.489511490E0
7.038441940E0	1.077964306E0	1.126288414E0	1.227003098E0
7.046543111E0	7.172021866E-1	8.657574654E-1	1.006823540E0
7.054573863E0	3.062415123E-1	4.465198517E-1	9.395236969E-1
7.062628709E0	-2.087211609E-1	-7.586860657E-2	1.045382500E0
7.070469072E0	-6.374611855E-1	-5.688719749E-1	1.136858940E0
7.078832363E0	-1.038197041E0	-9.635210037E-1	1.183802128E0
7.086920671E0	-1.321783304E0	-1.277307510E0	1.157469273E0
7.094961709E0	-1.373155594E0	-1.515008450E0	9.871444702E-1
7.103015478E0	-1.267120838E0	-1.709587097E0	7.491087914E-1
7.110919341E0	-1.057062387E0	-1.982494354E0	5.828876495E-1
7.119219670E0	-7.303090096E-1	-2.431558609E0	5.388064384E-1
7.127309363E0	-4.166007042E-1	-3.035016537E0	6.846179962E-1
7.135342517E0	1.249871254E-1	-4.107632160E0	4.458904266E-1
7.143412363E0	3.387258053E-1	-4.984667301E0	1.389884949E-2
7.151297495E0	1.897501945E-1	-5.233259201E0	-7.006688118E-1
7.159602863E0	-2.563564777E-1	-4.896755219E0	-8.794894218E-1
7.167705209E0	-6.266558170E-1	-3.966358662E0	-8.847694397E-1
7.175731170E0	-7.042350769E-1	-2.608390808E0	-1.014268398E0
7.183785786E0	-5.571665764E-1	-1.434948921E0	-1.260713100E0
7.191649610E0	-2.608251572E-1	-4.491796494E-1	-1.771439314E0
7.199985072E0	9.160971642E-2	5.692758560E-1	-2.209420681E0
7.216122632E0	4.008626938E-1	2.568514347E0	-2.937519312E0
7.224175901E0	1.387381554E-1	3.112740040E0	-3.279122114E0
7.232024380E0	1.240525246E-1	3.003995419E0	-3.380901575E0
7.240376708E0	-1.050541401E-1	2.550350666E0	-2.979318619E0
7.248466247E0	-5.997140408E-1	1.798990250E0	-2.424650431E0
7.256500170E0	-1.189454317E0	6.273641586E-1	-1.915300608E0
7.264568208E0	-1.630327702E0	-6.189303398E-1	-1.522332668E0
7.272445687E0	-1.952958107E0	-1.861238956E0	-1.153750420E0
7.280746264E0	-1.987844706E0	-2.685507774E0	-8.623895645E-1
7.288853170E0	-1.783867478E0	-3.214904785E0	-6.828022003E-1
7.296880901E0	-1.549430609E0	-3.329736233E0	-7.101497650E-1
7.304935054E0	-1.253226519E0	-3.001880646E0	-7.604012489E-1
7.312871495E0	-9.217884541E-1	-2.658293724E0	-8.151788712E-1
7.321136323E0	-7.329905033E-1	-2.363688469E0	-8.508477211E-1
7.329220687E0	-6.138160229E-1	-2.115736485E0	-8.410325050E-1
7.337268554E0	-5.050776005E-1	-1.948236942E0	-8.060660362E-1
7.345323516E0	-3.794364929E-1	-1.803411007E0	-7.243809700E-1
7.353205533E0	-2.659335136E-1	-1.630593777E0	-7.337007523E-1
7.361525246E0	-1.127517223E-1	-1.440059662E0	-8.136568069E-1
7.369613823E0	1.386775970E-1	-1.224850655E0	-8.588819504E-1
7.377646631E0	3.624622822E-1	-1.031526566E0	-7.866139412E-1
7.385714054E0	4.330990314E-1	-7.834110260E-1	-7.016673088E-1
7.393547418E0	3.322942257E-1	-5.774016380E-1	-6.955156326E-1
7.401899169E0	1.023056507E-1	-3.713011742E-1	-7.753906250E-1
7.410002323E0	-1.984374523E-1	-2.325067520E-1	-8.977975845E-1
7.418029900E0	-4.685645103E-1	-1.438612938E-1	-1.023361683E0
7.426082515E0	-6.770842075E-1	-3.876686096E-2	-1.132292271E0
7.433920033E0	-7.962794304E-1	1.420068741E-2	-1.148180962E0
7.442281092E0	-8.417882919E-1	-1.020050049E-2	-9.937443733E-1
7.450369477E0	-7.859904766E-1	2.740573883E-2	-8.600325584E-1
7.458410246E0	-5.613496304E-1	2.127089500E-1	-7.730021477E-1
7.466464131E0	-3.077845573E-1	5.442357063E-1	-5.638713837E-1
7.474297149E0	-3.216099739E-2	7.278151512E-1	-7.640552521E-2
7.482663977E0	2.477471828E-1	8.956875801E-1	4.999575615E-1
7.490752207E0	5.875363350E-1	1.044832706E0	9.614524841E-1
7.498785361E0	8.977231979E-1	1.061887264E0	1.393232346E0
7.506855207E0	1.075055122E0	8.577790260E-1	1.812151432E0
7.514687110E0	1.190757513E0	6.188488007E-1	2.078519344E0
7.523043900E0	1.300672770E0	4.562215805E-1	2.162070274E0
7.531149015E0	1.400760412E0	3.595862389E-1	2.116832256E0
7.539183669E0	1.446506262E0	3.549556732E-1	1.941612244E0
7.547235207E0	1.427540779E0	4.021310806E-1	1.673424244E0
7.552489841E0	1.420070887E0	4.262599945E-1	1.349421501E0
7.555086303E0	1.412888288E0	4.406251907E-1	1.263230324E0
7.563409687E0	1.367855310E0	4.236173630E-1	8.669323921E-1
7.571496187E0	1.193119526E0	3.806667328E-1	5.434122086E-1
7.579544938E0	9.405186176E-1	3.421902657E-1	2.291951180E-1
7.587598207E0	6.833679676E-1	3.390674591E-1	-2.589893341E-2
7.595422649E0	4.968369007E-1	4.065837860E-1	-9.946680069E-2
7.603797092E0	3.640463352E-1	4.862160683E-1	-7.384967804E-2
7.611858379E0	2.320132256E-1	5.604300499E-1	2.588081360E-2
7.619868707E0	8.048224449E-2	5.953502655E-1	1.657381058E-1
7.627937592E0	-3.220820427E-2	6.177368164E-1	3.346261978E-1
7.635757379E0	-6.496524811E-2	6.211133003E-1	4.679446220E-1
7.644126438E0	-9.149694443E-2	5.791220665E-1	5.300703049E-1
7.652228668E0	-9.901380539E-2	4.883093834E-1	5.501966476E-1
7.660255630E0	-1.578168869E-1	4.365081787E-1	5.589022636E-1
7.668305264E0	-2.294199467E-1	3.774080276E-1	5.660066605E-1
7.676152802E0	-3.566625118E-1	3.590154648E-1	5.666918755E-1
7.684507187E0	-5.466296673E-1	3.595633507E-1	5.135354996E-1
7.692595437E0	-8.032875061E-1	3.342623711E-1	3.380999565E-1
7.700635322E0	-9.880118370E-1	2.213931084E-1	1.009879112E-1
7.708689707E0	-1.099217176E0	6.742000580E-2	-1.195707321E-1
7.716545187E0	-1.076717854E0	-8.611345291E-2	-3.740906715E-1
7.724890630E0	-9.991550446E-1	-2.004332542E-1	-5.545392036E-1
7.732980476E0	-9.034297466E-1	-3.140039444E-1	-7.118840218E-1
7.741013283E0	-8.017683029E-1	-3.314218521E-1	-7.841734886E-1
7.749081937E0	-6.763017178E-1	-3.655686378E-1	-7.628479004E-1
7.756913456E0	-5.974602699E-1	-2.821722031E-1	-6.403837204E-1
7.765265129E0	-5.118496418E-1	-2.245225906E-1	-5.042366982E-1
7.773366053E0	-4.147758484E-1	-1.719331741E-1	-3.904967308E-1
7.781389206E0	-3.627498150E-1	-1.390795708E-1	-3.144521713E-1
7.789439437E0	-2.672607899E-1	-8.837366104E-2	-2.759842873E-1
7.797281149E0	5.171854496E-1	-4.241747856E-1	-8.688449860E-1
7.805639283E0	2.632758617E0	-1.788772583E0	-3.143461704E0
7.813727245E0	3.988680840E0	-2.306894779E0	-4.122455120E0
7.821770091E0	3.861778736E0	-2.001593590E0	-2.526301146E0
7.829824552E0	2.717420101E0	-1.241407871E0	3.334484100E-1
7.837789648E0	1.413765430E0	-6.465702057E-1	2.717905998E0
7.846026052E0	1.018908501E0	-6.363539696E-1	2.194023609E0
7.854106033E0	1.717734814E0	1.523890495E-1	2.576451302E-1
7.862146091E0	5.026044846E-1	5.975484848E-1	1.691341877E0
7.870213418E0	-1.668017149E0	1.663660049E0	2.976496220E0
7.878046572E0	-1.442080021E0	1.439741611E0	1.711095572E0
7.886401629E0	-5.432834625E-1	1.270301819E0	5.686125755E-1
7.894501937E0	-6.386322975E-1	1.327422619E0	-3.743076324E-2
7.902525206E0	-8.911066055E-1	1.000679970E0	-5.187306404E-1
7.910576475E0	-1.266366482E0	8.500728607E-1	-7.517430782E-1
7.918418648E0	-1.422454119E0	9.146261215E-1	-5.588905811E-1
7.926773513E0	-1.354257822E0	8.999066353E-1	-2.955715656E-1
7.934861129E0	-1.131283760E0	7.920742035E-1	-1.411106586E-1
7.942903475E0	-8.929567337E-1	6.333184242E-1	-2.189159393E-3
7.950957013E0	-6.731243134E-1	3.168258667E-1	1.527786255E-1
7.958798725E0	-6.443805695E-1	1.855373383E-3	3.416647911E-1
7.967171975E0	2.404270172E-1	-4.078140259E-1	3.325438499E-1
7.975259359E0	-6.143102646E-1	-7.734398842E-1	1.050639153E-1
7.983290629E0	-2.651166916E-1	-1.034940720E0	1.368141174E-2
7.991357936E0	1.242175102E-1	-1.363542080E0	-3.228087425E-1
7.999307648E0	5.120439529E-1	-1.435417652E0	-5.056424141E-1
8.007541821E0	5.617699623E-1	-1.573398590E0	-5.320029259E-1
8.015644744E0	4.266657829E-1	-1.430974960E0	-4.603772163E-1
8.023671821E0	3.211050034E-1	-1.240828514E0	-4.294276237E-1
8.031725205E0	2.526488304E-1	-9.923911095E-1	-3.126516342E-1
8.039540341E0	3.060865402E-2	-5.338935852E-1	-2.693486214E-1
8.047922590E0	-1.889929771E-1	-9.059762955E-2	-4.249618053E-1
8.056009475E0	-2.664737701E-1	3.419437408E-1	-5.436348915E-1
8.064051244E0	9.278264046E-1	6.028733253E-1	-5.303773880E-1
8.072105359E0	-5.247669220E-1	8.876690865E-1	-6.603138447E-1
8.079921918E0	-1.159601688E0	1.064970493E0	-6.139378548E-1
8.088306321E0	-6.689853668E-1	1.026347160E0	-7.064950466E-1
8.096396205E0	-1.946554184E-1	8.898925781E-1	-8.118398190E-1
8.104430436E0	1.376759529E0	6.369900703E-1	-8.019158840E-1
8.112499974E0	5.320000648E-1	3.635139465E-1	-8.144228458E-1
8.120327879E0	-1.877970695E-1	2.114429474E-1	-7.443401814E-1
8.128687705E0	-1.668486595E-1	9.085035324E-2	-4.093444347E-1
8.136789551E0	-4.435787201E-1	-1.153178215E-1	-8.393287659E-2
8.144816820E0	-5.257902145E-1	-4.768800735E-1	2.706949711E-1
8.152868071E0	-1.087093353E-1	-8.541193008E-1	5.152857304E-1
8.160712033E0	5.130319595E-1	-1.248557091E0	5.475709438E-1
8.169068359E0	9.269533157E-1	-1.573886395E0	4.390599728E-1
8.177154474E0	9.973049164E-1	-1.569725037E0	3.964877129E-1
8.185195205E0	9.386482239E-1	-1.236083508E0	4.880318642E-1
8.193246628E0	6.624026299E-1	-7.209830284E-1	6.045739651E-1
8.197277820E0	4.370770454E-1	-5.144462585E-1	6.685576439E-1
8.198494225E0	3.365201950E-1	-4.234666824E-1	6.733460426E-1
8.201095417E0	2.551174164E-1	-3.372755051E-1	6.709518433E-1
8.209448012E0	-1.881780624E-1	-9.630918503E-2	5.981128216E-1
8.217538974E0	-3.497867584E-1	1.312494278E-2	3.199489117E-1
8.225571012E0	-2.440648079E-1	-7.985496521E-2	-1.013295650E-1
8.233640974E0	8.540391922E-2	-1.763420105E-1	-5.516383648E-1
8.241562379E0	5.284667015E-1	-1.595797539E-1	-7.800219059E-1
8.249830089E0	3.707156181E-1	2.025871277E-1	-1.000959396E0
8.257935089E0	5.572080612E-1	2.953577042E-1	-1.036039114E0
8.265962781E0	5.451421738E-1	5.601944923E-1	-1.204254866E0
8.274017974E0	3.609037399E-1	7.030177116E-1	-1.382364273E0
8.281901494E0	6.112194061E-2	6.795949936E-1	-1.427694678E0
8.290218743E0	-1.597719193E-1	5.816159248E-1	-1.296012402E0
8.298303879E0	3.496298790E-1	4.480586052E-1	-1.043396354E0
8.306349474E0	-9.349098206E-1	1.598258018E-1	-9.254088402E-1
8.314400204E0	-2.791776657E-1	-1.681489944E-1	-6.301293373E-1
8.322234917E0	7.429456711E-2	-3.354187012E-1	-4.632656574E-1
8.330598781E0	3.458323479E-1	-3.335380554E-1	-6.947779655E-2
8.338687781E0	4.012851715E-1	-2.379164696E-1	3.234360218E-1
8.346720320E0	3.925356865E-1	-3.248863220E-1	5.646500587E-1
8.354789281E0	1.319780350E-1	-2.993354797E-1	6.406359673E-1
8.362789571E0	-8.721718788E-1	-5.505571365E-1	6.248211861E-1
8.370992819E0	-9.815578461E-1	-7.600173950E-1	5.597105026E-1
8.379087533E0	-9.994022846E-1	-9.502239227E-1	5.245685577E-1
8.387126550E0	-7.466750145E-1	-8.458137512E-1	4.088954926E-1
8.395179089E0	-5.845217705E-1	-9.757452011E-1	2.848014832E-1
8.403020033E0	-9.339683056E-1	-1.459721565E0	1.638555527E-1
8.411378165E0	-6.788628101E-1	-1.437001228E0	-1.893806458E-2
8.419450494E0	-3.770594597E-1	-1.225151062E0	-1.772644520E-1
8.427505973E0	1.224803925E-2	-1.090383530E0	-3.942253590E-1
8.435557935E0	3.646435738E-1	-8.893747330E-1	-5.002279282E-1
8.443395187E0	7.399125099E-1	-7.258481979E-1	-5.615506172E-1
8.451755281E0	1.127781391E0	-4.084224701E-1	-5.400221348E-1
8.459829686E0	1.228501797E0	-3.907566071E-1	-5.136826038E-1
8.467874665E0	1.035314798E0	-5.161333084E-1	-4.449596405E-1
8.475940934E0	8.463428020E-1	-6.124496460E-1	-3.201782703E-1
8.483827456E0	5.146431923E-1	-7.605791092E-1	-2.275702953E-1
8.492125396E0	3.869693279E-1	-8.292808533E-1	-7.437109947E-2
8.500228511E0	4.633679390E-1	-8.331394196E-1	2.871394157E-2
8.508253088E0	6.192893982E-1	-7.302951813E-1	1.242558956E-1
8.516299494E0	7.158277035E-1	-7.325286865E-1	2.555284500E-1
8.524176494E0	8.465983868E-1	-6.621055603E-1	2.976834774E-1
8.532498571E0	7.632703781E-1	-5.161447525E-1	3.190331459E-1
8.540595396E0	6.372692585E-1	-4.209918976E-1	2.835855484E-1
8.548637357E0	3.758647442E-1	-1.218147278E-1	1.713852882E-1
8.556690511E0	8.541297913E-2	1.460304260E-1	8.489608765E-3
8.564589225E0	-3.050088882E-1	4.938850403E-1	-2.146651745E-1
8.572707648E0	-6.350510120E-1	8.762893677E-1	-4.168477058E-1
8.580905417E0	-9.209513664E-1	1.163795471E0	-5.796482563E-1
8.589009511E0	-1.157532692E0	1.383327007E0	-6.820302010E-1
8.597035186E0	-1.381057382E0	1.428100586E0	-7.156283855E-1
8.605166549E0	-1.519585013E0	1.325475693E0	-7.653892040E-1
8.613254725E0	-1.611882567E0	1.116236687E0	-8.228330612E-1
8.621372742E0	-1.653280139E0	8.378953934E-1	-7.823767662E-1
8.629399511E0	-1.564428568E0	5.736989975E-1	-5.993640423E-1
8.637452011E0	-1.444023132E0	2.581014633E-1	-2.795927525E-1
8.645305302E0	-1.252098083E0	-1.034126282E-1	1.284687519E-1
8.653490994E0	-1.081810594E0	-4.466686249E-1	4.766669273E-1
8.661573340E0	-1.152863145E0	-7.278947830E-1	8.204693794E-1
8.669730494E0	-1.234722972E0	-9.468851089E-1	9.727768898E-1
8.677738379E0	-1.365319729E0	-1.013752937E0	8.315365314E-1
8.685821379E0	-1.232311249E0	-8.003787994E-1	6.392943859E-1
8.694025934E0	-1.884679317E0	-9.295177460E-1	2.959179878E-1
8.702112511E0	-2.005537987E0	-6.853246689E-1	-8.834505081E-2
8.710141203E0	-2.012254715E0	-5.564880371E-1	-6.144790649E-1
8.718206549E0	-1.835621357E0	-4.230356216E-1	-1.168449402E0
8.726021763E0	-1.734373093E0	-9.273338318E-2	-1.773612738E0
8.734206148E0	-1.630454421E0	-1.143264771E-2	-2.324982643E0
8.742312840E0	-1.419402599E0	1.030807495E-1	-2.842317581E0
8.750517818E0	-1.232446671E0	2.630443573E-1	-3.176597595E0
8.758512648E0	-1.109860897E0	6.792259216E-1	-3.444097757E0
8.766561494E0	-1.214295864E0	1.227756500E0	-3.639744759E0
8.774748956E0	-1.286967158E0	1.597862720E0	-3.674923897E0
8.782839279E0	-1.235242367E0	1.646274567E0	-3.473791838E0
8.790878241E0	-1.044886589E0	1.234231472E0	-2.913634539E0
8.798927664E0	-5.510460138E-1	4.876470566E-1	-1.923820257E0
8.806749032E0	-2.311515808E-1	-2.246332169E-1	-9.477970600E-1
8.814958648E0	5.228328705E-2	-6.518211365E-1	1.052272320E-1
8.823079225E0	1.313366890E-1	-6.993083954E-1	8.142476082E-1
8.831228840E0	-2.106589079E-2	-4.040460587E-1	1.285307407E0
8.839314048E0	-1.041559577E0	-3.333702087E-1	1.243126631E0
8.847337994E0	-1.322781086E0	-2.337007523E-1	1.695458412E0
8.855503433E0	-1.254880905E0	-1.716852188E-1	1.565120459E0
8.863607587E0	-1.145125628E0	9.999847412E-2	1.361946106E0
8.871635394E0	-5.415011048E-1	5.161724091E-1	1.014823437E0
8.879689894E0	-1.821253896E-1	5.674362183E-1	7.694735527E-1
8.887522609E0	4.037571549E-1	5.109329224E-1	3.351821899E-1
8.895739994E0	9.470831156E-1	1.850299835E-1	-2.455699444E-1
8.903831494E0	1.549771667E0	-2.095432281E-1	-5.593481064E-1
8.912026548E0	2.099697590E0	-5.129499435E-1	-9.512639046E-2
8.920011225E0	2.487950087E0	-6.652040482E-1	5.622587204E-1
8.928081263E0	2.486403227E0	-7.228155136E-1	1.034929514E0
8.936284163E0	2.085341692E0	-6.903257370E-1	1.182002544E0
8.944373548E0	1.414327979E0	-5.299835205E-1	1.097662687E0
8.952406240E0	6.724085808E-1	-2.939586639E-1	8.743760586E-1
8.960472378E0	1.592761278E-2	-2.709484100E-2	6.328489780E-1
8.968342532E0	-1.719700098E-1	-1.024723053E-2	4.438321590E-1
8.976574878E0	-9.226840734E-2	-1.287832260E-1	2.752494812E-1
8.984687763E0	1.281656027E-1	-2.181777954E-1	1.685509682E-1
8.992788817E0	4.371644258E-1	-2.784690857E-1	7.614350319E-2
9.000836225E0	7.659850121E-1	-2.858819962E-1	6.502866745E-2
9.008882340E0	1.028714538E0	-2.502975464E-1	9.187412262E-2
9.017046586E0	1.240815282E0	-1.840324402E-1	1.633148193E-1
9.025135317E0	1.297635198E0	-1.492147446E-1	2.340006828E-1
9.033178548E0	1.319348454E0	-1.171817780E-1	3.275215626E-1
9.041231471E0	1.290678144E0	-1.426200867E-1	4.332661629E-1
9.049068648E0	1.192810297E0	-1.942539215E-1	5.195670128E-1
9.057286109E0	1.051315069E0	-2.292861938E-1	6.130237579E-1
9.065400494E0	8.421227932E-1	-2.188205719E-1	6.941254139E-1
9.073523725E0	6.560328007E-1	-2.134685516E-1	7.476744652E-1
9.081577071E0	4.587336779E-1	-1.893796921E-1	7.808904648E-1
9.089629340E0	2.688306570E-1	-2.020063400E-1	7.969093323E-1
9.097806071E0	1.430716515E-1	-2.226037979E-1	7.338025570E-1
9.105908778E0	2.938473225E-2	-2.128887177E-1	6.416158676E-1
9.113933663E0	-7.015836239E-2	-1.393833160E-1	4.964728355E-1
9.121985278E0	-1.543830633E-1	-2.556991577E-2	3.215830326E-1
9.129815032E0	-2.623369694E-1	1.166343689E-1	1.404500008E-1
9.138016301E0	-3.118412495E-1	2.434902191E-1	-5.480360985E-2
9.146090801E0	-3.655311465E-1	3.386497498E-1	-2.511386871E-1
9.154310778E0	-4.247828722E-1	3.634719849E-1	-4.729344845E-1
9.162276994E0	-4.605777860E-1	3.131303787E-1	-6.717338562E-1
9.170413417E0	-5.143514872E-1	1.891460419E-1	-8.612782955E-1
9.178580701E0	-5.291296244E-1	7.087898254E-2	-9.877836704E-1
9.186668663E0	-5.013931990E-1	-1.570320129E-2	-1.056475401E0
9.194705124E0	-4.669842720E-1	-3.654479980E-2	-1.078116179E0
9.202771263E0	-3.929501772E-1	-2.803421021E-2	-1.060690880E0
9.210606840E0	-3.120347857E-1	4.443931580E-2	-9.755547047E-1
9.218783340E0	-2.565007210E-1	1.162614822E-1	-8.540086746E-1
9.226910224E0	-2.240444422E-1	1.574296951E-1	-7.230224609E-1
9.235085763E0	-1.494945288E-1	1.437959671E-1	-5.305542946E-1
9.243080840E0	-8.257794380E-2	1.027021408E-1	-3.258614540E-1
9.251247316E0	5.451440811E-4	4.415321350E-2	-1.270208359E-1
9.259348008E0	6.475913525E-2	-4.408073425E-2	7.129597664E-2
9.267437085E0	1.484557390E-1	-1.229619980E-1	2.779793739E-1
9.275477047E0	1.949084997E-1	-1.559495926E-1	4.176917076E-1
9.283530701E0	2.077687979E-1	-1.831703186E-1	5.058219433E-1
9.291352724E0	1.971976757E-1	-2.311611176E-1	5.415267944E-1
9.299572186E0	1.294175386E-1	-2.832937241E-1	5.148973465E-1
9.307643994E0	4.145050049E-2	-3.007364273E-1	4.484813213E-1
9.315854047E0	-3.697764874E-2	-2.949428558E-1	3.361403942E-1
9.323854609E0	-9.529697895E-2	-2.678012848E-1	2.220060825E-1
9.331937340E0	-6.171882153E-2	-2.429666519E-1	1.356348991E-1
9.340116277E0	-1.075279713E-2	-2.059926987E-1	5.104994774E-2
9.348220893E0	3.080487251E-2	-1.927833557E-1	-1.718163490E-2
9.356249008E0	6.723558903E-2	-1.842451096E-1	-8.815050125E-2
9.364303046E0	1.331388950E-1	-1.782131195E-1	-1.668143272E-1
9.372200532E0	1.618316174E-1	-2.033653259E-1	-2.028436661E-1
9.380477340E0	7.753813267E-2	-2.380418777E-1	-2.696113586E-1
9.388465763E0	8.648777008E-2	-2.342853546E-1	-2.616810799E-1
9.396610570E0	7.872617245E-2	-1.921405792E-1	-2.175478935E-1
9.404636801E0	8.343100548E-2	-1.525716782E-1	-2.019581795E-1
9.412777931E0	8.271729946E-2	-1.013841629E-1	-1.487708092E-1
9.420891277E0	5.920958519E-2	-6.280612946E-2	-1.016917229E-1
9.428979008E0	2.696347237E-2	1.326084137E-2	-5.873274803E-2
9.437013931E0	-2.352881432E-2	8.348751068E-2	-2.296996117E-2
9.452918417E0	-2.155762315E-1	1.870317459E-1	-2.856659889E-2
9.461084147E0	-3.547700047E-1	1.316184998E-1	-7.506728172E-2
9.469326917E0	-5.243964195E-1	3.262519836E-2	-1.222872734E-1
9.477395224E0	-7.453321218E-1	8.763027191E-2	-1.940863132E-1
9.485385493E0	-9.982336164E-1	3.517284393E-1	-2.830336094E-1
9.493442686E0	-1.145070672E0	5.681552887E-1	-3.473482132E-1
9.501608854E0	-1.138029814E0	6.128892899E-1	-3.227324486E-1
9.509697084E0	-1.014418006E0	5.384740829E-1	-2.258305550E-1
9.517738161E0	-8.059490323E-1	4.257049561E-1	-8.431148529E-2
9.525791777E0	-6.173695326E-1	2.968368530E-1	5.406665802E-2
9.533646032E0	-4.215051830E-1	1.674814224E-1	1.459107399E-1
9.541817570E0	-2.584060431E-1	7.746219635E-2	1.813974380E-1
9.549899993E0	-1.706588864E-1	-7.293701172E-3	1.235017776E-1
9.558071493E0	-1.056364179E-1	-3.865528107E-2	4.226160049E-2
9.566107455E0	-5.533707142E-2	-6.627941132E-2	-9.800624847E-2
9.574211032E0	1.015681028E-2	-1.012001038E-1	-2.112216949E-1
9.582385123E0	1.007180214E-1	-1.861667633E-1	-2.821710110E-1
9.590487699E0	1.697309613E-1	-2.869815826E-1	-2.924766541E-1
9.598513353E0	2.629302144E-1	-3.676366806E-1	-2.011966705E-1
9.606567161E0	3.797475696E-1	-3.833246231E-1	-6.758713722E-2
9.614481993E0	5.156848431E-1	-3.645877838E-1	1.195752621E-1
9.622588993E0	6.825828552E-1	-2.692079544E-1	3.368539810E-1
9.630732455E0	8.413382173E-1	-2.588396072E-1	5.191776752E-1
9.638891661E0	9.759356380E-1	-3.370628357E-1	6.635575294E-1
9.646868763E0	1.079409122E0	-4.217472076E-1	8.086521626E-1
9.654987993E0	1.170248866E0	-4.740638733E-1	8.693704605E-1
9.663144468E0	1.246096253E0	-4.507455826E-1	8.958129883E-1
9.671231430E0	1.301799655E0	-4.234151840E-1	8.927443027E-1
9.679266738E0	1.317825317E0	-4.541339874E-1	8.983533382E-1
9.687332161E0	1.289972544E0	-5.860595703E-1	9.026460648E-1
9.695264339E0	1.283494830E0	-8.877506256E-1	9.096801281E-1
9.703337032E0	1.273527026E0	-1.072476387E0	8.749473095E-1
9.711539455E0	1.135693550E0	-1.107645035E0	7.055172920E-1
9.719632416E0	9.724874496E-1	-9.965810776E-1	4.259819984E-1
9.727622955E0	8.605358601E-1	-7.445344925E-1	7.240748405E-2
9.735691647E0	7.739025950E-1	-4.542884827E-1	-2.983400822E-1
9.743574993E0	6.905419827E-1	-1.321964264E-1	-6.112496853E-1
9.751712224E0	6.042539477E-1	1.823835373E-1	-8.448312283E-1
9.759911147E0	4.832279682E-1	4.549446106E-1	-1.004607201E0
9.767796032E0	3.088088036E-1	6.491756439E-1	-1.097806931E0
9.776115224E0	1.049741507E-1	6.766986847E-1	-1.087860823E0
9.784248968E0	-1.763783097E-1	5.959815979E-1	-1.054187059E0
9.792328686E0	-4.817032218E-1	4.813661575E-1	-1.020838737E0
9.800372237E0	-9.080125093E-1	3.802576065E-1	-9.745640755E-1
9.808438814E0	-1.529832125E0	1.076555252E-1	-9.640812874E-1
9.816281262E0	-2.259296894E0	-2.628564835E-1	-1.004227400E0
9.824392916E0	-2.926602125E0	-1.042909622E-1	-9.759213924E-1
9.832563032E0	-3.464547157E0	9.988384247E-1	-8.657240868E-1
9.840598532E0	-3.613660812E0	1.793200016E0	-4.212534428E-1
9.848657532E0	-3.604161739E0	1.865170956E0	3.360841274E-1
9.856650993E0	-3.108286381E0	1.052652359E0	1.044957399E0
9.865002621E0	-2.199095964E0	-1.754655838E-1	1.515988111E0
9.873090737E0	-1.268887281E0	-1.085891724E0	1.666795731E0
9.881129660E0	-4.588493705E-1	-1.329960823E0	1.611644983E0
9.889180391E0	1.056023836E-1	-8.456420898E-1	1.378148794E0
9.897098301E0	3.647243977E-1	-1.272640228E-1	1.027818203E0
9.905121070E0	4.361801147E-1	4.532613754E-1	6.074008942E-1
9.913290993E0	3.383644819E-1	6.810884476E-1	3.016207218E-1
9.921368916E0	3.192771673E-1	7.017297745E-1	-7.715225220E-3
9.929396032E0	3.587522507E-1	6.245470047E-1	-2.276113033E-1
9.937470570E0	4.966002703E-1	5.336456299E-1	-2.970931530E-1
9.945745198E0	6.308783293E-1	3.977136612E-1	-2.382364273E-1
9.953846006E0	6.653288603E-1	2.379655838E-1	-6.170749664E-2
9.961871390E0	5.858874321E-1	4.229450226E-2	1.917610168E-1
9.969924852E0	4.268997908E-1	-1.625661850E-1	4.332954884E-1
9.977750608E0	2.525445223E-1	-3.096265793E-1	6.310703754E-1
9.985859801E0	1.047610044E-1	-3.871507645E-1	7.354991436E-1
9.994005070E0	6.668567657E-4	-3.745365143E-1	7.258088589E-1
1.000212992E1	-3.031980991E-2	-2.811479568E-1	6.526851654E-1
1.001012596E1	-2.157592773E-2	-1.639518738E-1	4.950959682E-1
1.001811961E1	6.233704090E-2	-1.083917618E-1	2.839322090E-1
1.002648585E1	1.030943394E-1	-1.260776520E-1	8.430504799E-2
1.003457450E1	1.810625792E-1	-2.163486481E-1	-1.097307205E-1
1.004261093E1	3.088475466E-1	-2.984933853E-1	-2.595920563E-1
1.005067970E1	4.796223640E-1	-3.970994949E-1	-3.791210651E-1
1.005853111E1	6.657578945E-1	-4.693412781E-1	-4.605975151E-1
1.006661218E1	8.257583380E-1	-4.904546738E-1	-4.999175072E-1
1.007481765E1	8.930138350E-1	-4.720621109E-1	-5.289957523E-1
1.008287907E1	8.084883690E-1	-4.481239319E-1	-5.309014320E-1
1.009088019E1	5.941013098E-1	-4.086971283E-1	-5.047388077E-1
1.009898780E1	2.756540775E-1	-3.631801605E-1	-4.745693207E-1
1.010725620E1	-4.440784454E-2	-2.872610092E-1	-4.160943031E-1
1.011533068E1	-3.561211228E-1	-2.051553726E-1	-3.525948524E-1
1.012338447E1	-7.044309378E-1	-6.246376038E-2	-2.654740810E-1
1.013143839E1	-9.421709776E-1	5.667877197E-2	-1.848690510E-1
1.013927034E1	-1.141355276E0	1.984148026E-1	-1.074655056E-1
1.014737068E1	-1.278642178E0	3.196754456E-1	-5.866384506E-2
1.015556284E1	-1.324484229E0	4.254093170E-1	-3.725218773E-2
1.016366803E1	-1.334769607E0	4.940433502E-1	-4.916477203E-2
1.017167930E1	-1.275807858E0	5.162591934E-1	-9.517002106E-2
1.017968457E1	-1.187650323E0	4.972820282E-1	-1.638221741E-1
1.018800995E1	-1.081901312E0	4.543333054E-1	-1.892962456E-1
1.019611607E1	-9.760550857E-1	3.874111176E-1	-2.136592865E-1
1.020415066E1	-8.482267857E-1	3.351650238E-1	-2.050108910E-1
1.021220312E1	-7.175286412E-1	3.023309708E-1	-1.994779110E-1
1.022003957E1	-5.616744161E-1	2.842216492E-1	-1.867752075E-1
1.022812049E1	-4.028844237E-1	2.185897827E-1	-1.698343754E-1
1.023636445E1	-2.630445361E-1	1.556663513E-1	-1.631019115E-1
1.024441645E1	-1.289721131E-1	9.049415588E-2	-1.763491631E-1
1.025240411E1	2.851337194E-2	4.429244995E-2	-2.011060715E-1
1.026042057E1	1.705272794E-1	-7.174491882E-3	-1.943893433E-1
1.026878189E1	3.049794436E-1	-4.020690918E-2	-2.026655674E-1
1.027685053E1	4.389521480E-1	-6.682014465E-2	-2.147195339E-1
1.028490662E1	5.555726290E-1	-6.512546539E-2	-2.158288956E-1
1.029297466E1	6.373417377E-1	-7.321643829E-2	-2.051854134E-1
1.030079899E1	7.008934617E-1	-7.896614075E-2	-1.720955372E-1
1.030890849E1	7.192254066E-1	-7.537269592E-2	-1.330413818E-1
1.031710392E1	6.894751191E-1	-1.082086563E-1	-5.753755569E-2
1.032517719E1	6.399027109E-1	-1.176776886E-1	1.144647598E-3
1.033319938E1	5.734516978E-1	-1.110525131E-1	6.593418121E-2
1.034118392E1	5.014145374E-1	-1.309747696E-1	9.942436218E-2
1.034954758E1	4.122909307E-1	-1.821002960E-1	1.186568737E-1
1.035763184E1	3.193245530E-1	-2.041692734E-1	1.284918785E-1
1.036567539E1	2.813386321E-1	-2.018795013E-1	1.198954582E-1
1.037372870E1	2.575258613E-1	-1.757001877E-1	1.153800488E-1
1.038166907E1	2.808368206E-1	-1.351776123E-1	1.319401264E-1
1.038967718E1	3.286037445E-1	-5.917167664E-2	1.327543259E-1
1.039789061E1	3.924241066E-1	-8.468627930E-4	1.765606403E-1
1.040593249E1	4.460546970E-1	4.926776886E-2	1.815724373E-1
1.041400084E1	5.003464222E-1	6.457042694E-2	1.952648163E-1
1.042212772E1	5.431895256E-1	4.281234741E-2	1.966032982E-1
1.043033511E1	5.425871611E-1	3.698539734E-2	1.836655140E-1
1.043844008E1	5.191202164E-1	-1.468849182E-2	1.645662785E-1
1.044646839E1	5.042561293E-1	-5.452537537E-2	1.398544312E-1
1.045452270E1	4.736260176E-1	-8.485221863E-2	9.312081337E-2
1.046247865E1	4.419045448E-1	-1.125497818E-1	3.472757339E-2
1.047045503E1	3.757590055E-1	-1.280117035E-1	-1.856613159E-2
1.047864280E1	8.016157150E-2	-1.329507828E-1	-2.067041397E-2
1.048672945E1	-2.938306928E-1	-5.700874329E-2	-4.647064209E-2
1.049476211E1	-2.918410897E-1	-1.281366348E-1	-1.879000664E-2
1.050272280E1	-2.971715331E-1	-2.511501312E-1	-6.765842438E-2
1.051111034E1	-2.540151477E-1	-3.404607773E-1	-1.631271839E-1
1.051919770E1	-1.259452105E-1	-3.771095276E-1	-2.533254623E-1
1.052723385E1	-9.090352058E-2	-3.322849274E-1	-3.123083115E-1
1.053530012E1	-1.114439964E-1	-2.440805435E-1	-3.017220497E-1
1.054311976E1	-2.299656868E-1	-1.197786331E-1	-1.742522717E-1
1.055128618E1	-3.601691723E-1	-6.221961975E-2	-4.454398155E-2
1.055940149E1	-1.890819073E-1	-9.129714966E-2	1.845202446E-1
1.056750165E1	1.982796192E-1	-2.724246979E-1	2.423620224E-1
1.057567020E1	-4.958464503E-1	-9.442520142E-2	-4.134893417E-3
1.058351884E1	-6.186229587E-1	-6.156635284E-2	-1.807975769E-2
1.059187004E1	-6.726443768E-1	-8.654594421E-3	9.898781776E-2
1.059995750E1	-7.712807655E-1	-4.631137848E-2	2.167308331E-1
1.060799739E1	-8.141652942E-1	-1.270761490E-1	3.493354321E-1
1.061605046E1	-8.016095161E-1	-1.483726501E-1	3.994834423E-1
1.062387488E1	-7.242255211E-1	-1.939840317E-1	4.016618729E-1
1.063198118E1	-5.052313209E-1	-2.452535629E-1	4.978466034E-1
1.064019076E1	3.870558739E-2	-3.339910507E-1	5.106651783E-1
1.064824518E1	2.878280878E-1	-2.996501923E-1	4.961626530E-1
1.065629526E1	3.313782215E-1	-2.544345856E-1	5.141096115E-1
1.066436630E1	3.932194710E-1	-2.055816650E-1	5.775158405E-1
1.067262443E1	3.543632030E-1	-1.771507263E-1	5.485486984E-1
1.068072292E1	4.542707205E-1	-2.476091385E-1	4.480528831E-1
1.068875250E1	4.844623804E-1	-2.730741501E-1	3.965425491E-1
1.069680408E1	4.776109457E-1	-2.557468414E-1	3.541934490E-1
1.070469003E1	4.120351076E-1	-1.908140182E-1	3.163449764E-1
1.071277630E1	3.923932314E-1	-1.335983276E-1	2.968571186E-1
1.072080738E1	1.458499432E-1	-6.183910370E-2	1.773114204E-1
1.072886388E1	-2.621603012E-2	3.475189209E-3	2.805829048E-2
1.073686476E1	1.204848289E-2	4.586029053E-2	-3.979897499E-2
1.074496661E1	5.310869217E-2	5.033588409E-2	-1.089553833E-1
1.074933546E1	8.623290062E-2	6.940078735E-2	-1.436300278E-1
1.075067018E1	8.383870125E-2	8.137226105E-2	-1.532068253E-1
1.075339316E1	6.229090691E-2	1.029195786E-1	-1.699662209E-1
1.076148193E1	1.811504364E-3	1.488933563E-1	-2.268056870E-1
1.076951835E1	-3.978431225E-2	1.926431656E-1	-3.117563725E-1
1.077758134E1	-9.974598885E-2	2.090511322E-1	-3.522672653E-1
1.078541265E1	-1.727818251E-1	2.070217133E-1	-4.103050232E-1
1.079333853E1	-1.605225205E-1	1.680269241E-1	-4.386897087E-1
1.080161438E1	7.387173176E-2	1.156873703E-1	-3.682394028E-1
1.080975257E1	1.481497288E-2	6.167030334E-2	-3.958585262E-1
1.081762088E1	-1.967648268E-1	4.232788086E-2	-4.587247372E-1
1.082571557E1	-2.958040237E-1	4.598236084E-2	-4.224691391E-1
1.083416643E1	-3.798522353E-1	8.213710785E-2	-4.071710110E-1
1.084224326E1	-4.329857826E-1	8.313083649E-2	-3.855671883E-1
1.085028831E1	-3.984346986E-1	9.448051453E-2	-4.099879265E-1
1.085833908E1	-4.270945787E-1	8.246898651E-2	-3.995459080E-1
1.086616222E1	-4.561190009E-1	2.319335938E-2	-4.141280651E-1
1.087409745E1	-5.109077692E-1	2.694416046E-2	-4.607131481E-1
1.088235588E1	-5.356436968E-1	4.854679108E-2	-5.433008671E-1
1.089033442E1	-5.532537699E-1	6.123828888E-2	-5.716402531E-1
1.089842634E1	-4.759918749E-1	1.368103027E-1	-5.646359921E-1
1.090646792E1	-5.479832292E-1	1.818971634E-1	-5.916373730E-1
1.091490481E1	-3.558829427E-1	1.580934525E-1	-5.089285374E-1
1.092300550E1	1.013399363E-1	1.165418625E-1	-3.146533966E-1
1.093103012E1	1.316983104E-1	1.231718063E-1	-2.319972515E-1
1.093908069E1	1.396784186E-1	1.183013916E-1	-1.176414490E-1
1.094694803E1	1.916268468E-1	1.597814560E-1	5.056881905E-2
1.095485761E1	4.084726572E-1	2.088098526E-1	4.501574039E-1
1.096312295E1	2.661194205E-1	3.375968933E-1	5.188696384E-1
1.097107899E1	1.908501983E-1	3.496942520E-1	4.015588760E-1
1.097934299E1	2.163164020E-1	1.399383545E-1	3.453822136E-1
1.098730049E1	3.354719877E-1	-1.858778000E-1	3.453109264E-1
1.099565800E1	3.960689306E-1	-4.754447937E-1	5.702495575E-1
1.100374600E1	-1.452994943E-1	-3.006200790E-1	5.127782822E-1
1.101178169E1	-5.086258650E-1	-2.807350159E-1	-3.282704353E-1
1.101984916E1	-4.823732376E-1	-5.766868591E-2	-1.600625515E-1
1.102767215E1	-3.858369291E-1	7.775497437E-2	1.473784447E-1
1.103558676E1	-1.020616889E-1	1.390933990E-1	2.403273582E-1
1.104377999E1	2.012685537E-1	9.079170227E-2	-7.086563110E-2
1.105188372E1	1.652072072E-1	9.399414062E-2	-3.799643517E-1
1.105987199E1	3.673430085E-1	9.049415588E-2	-2.305073738E-1
1.106802895E1	5.778632164E-1	9.905624390E-2	-1.528735161E-1
1.107641985E1	8.923946619E-1	8.658123016E-2	1.575725079E-1
1.108450384E1	1.094398022E0	4.152488708E-2	4.048895836E-1
1.109254896E1	1.124031067E0	6.077098846E-2	5.117366314E-1
1.110060181E1	1.014060020E0	5.911159515E-2	4.546604156E-1
1.110841784E1	9.075046182E-1	-2.880096436E-3	3.922204971E-1
1.111643095E1	7.624660730E-1	-5.819129944E-2	3.215742111E-1
1.112460849E1	6.050213575E-1	-5.856227875E-2	2.886526585E-1
1.113260726E1	3.429592848E-1	-8.710289001E-2	2.607038021E-1
1.114065184E1	-3.839647770E-2	-2.247142792E-1	2.239906788E-1
1.114872857E1	-2.785094976E-1	-2.308864594E-1	1.905782223E-1
1.115717723E1	-3.682069182E-1	-1.635046005E-1	1.839935780E-1
1.116528012E1	-7.181945443E-1	1.596927643E-2	-1.153986454E-1
1.117330462E1	-3.255564570E-1	-9.826946259E-2	2.801966667E-2
1.118135716E1	-1.128658056E-1	-6.725311279E-3	-3.136777878E-2
1.118920868E1	-3.176693916E-1	2.488803864E-2	-4.036068916E-2
1.119711699E1	-3.082571030E-1	-8.658599854E-2	-2.251648903E-1
1.120537830E1	-3.551616073E-1	-1.350011826E-1	-1.382360458E-1
1.121334326E1	-4.196358919E-1	-1.658411026E-1	-9.815216064E-2
1.122140130E1	-2.881120443E-1	-1.678314209E-1	1.383066177E-3
1.122959084E1	-1.589305401E-1	-1.463890076E-1	6.100130081E-2
1.123790446E1	-1.941275597E-2	-1.783018112E-1	1.852750778E-2
1.124599066E1	2.214276791E-2	-2.177515030E-1	-8.406710625E-2
1.125402323E1	-6.707763672E-2	-1.661930084E-1	-6.148862839E-2
1.126208842E1	-1.372460127E-1	-1.624155045E-1	-4.332828522E-2
1.126993768E1	-1.691221595E-1	-1.441783905E-1	-5.694389343E-3
1.127786168E1	-1.958082318E-1	-1.763162613E-1	3.866624832E-2
1.128612607E1	-2.338291407E-1	-2.302322388E-1	6.288576126E-2
1.129407957E1	-2.405170202E-1	-2.724714279E-1	8.129405975E-2
1.130214345E1	-2.279812098E-1	-3.269548416E-1	9.640049934E-2
1.131019830E1	-2.043409944E-1	-3.266611099E-1	8.936285973E-2
1.131864904E1	-2.332552671E-1	-2.954339981E-1	1.056084633E-1
1.132673531E1	-2.715057135E-1	-2.691364288E-1	9.976196289E-2
1.133477558E1	-2.255091667E-1	-2.262201309E-1	9.808039665E-2
1.134282762E1	-1.864144206E-1	-1.978940964E-1	1.195118427E-1
1.135066453E1	-2.991363406E-1	-1.720762253E-1	5.386018753E-2
1.135863268E1	-2.023637295E-1	-1.605854034E-1	2.260446548E-3
1.136688095E1	-1.160223484E-1	-1.923856735E-1	4.134488106E-2
1.137485815E1	-4.644680023E-2	-1.457672119E-1	5.310487747E-2
1.138288084E1	-2.775156498E-2	-4.927635193E-2	-2.957034111E-2
1.139093718E1	-1.132111549E-1	2.083873749E-2	-1.702554226E-1
1.139939365E1	-1.394044757E-1	2.924537659E-2	-1.997258663E-1
1.140748895E1	-5.569505692E-2	-1.233959198E-2	-2.042360306E-1
1.141551742E1	7.999539375E-3	-7.034492493E-2	-2.480564117E-1
1.142356823E1	1.558731794E-1	-1.138877869E-1	-2.501304150E-1
1.143141545E1	1.889461279E-1	-9.750366211E-2	-2.583439350E-1
1.143937084E1	2.919912338E-2	-2.554893494E-2	-2.908277512E-1
1.144758072E1	-7.552719116E-2	6.881999969E-2	-3.037946224E-1
1.145556376E1	-1.457975507E-1	1.255283356E-1	-3.293983936E-1
1.146359303E1	-1.406612992E-1	1.828165054E-1	-3.631525040E-1
1.147171318E1	-9.425699711E-2	2.141046524E-1	-3.888385296E-1
1.148013035E1	-7.626974583E-2	2.169237137E-1	-3.754670620E-1
1.148820342E1	-5.389726162E-2	1.886463165E-1	-3.618326187E-1
1.149624750E1	-3.198540211E-2	1.556100845E-1	-3.239543438E-1
1.150431219E1	-2.663815022E-2	1.441907883E-1	-2.906861305E-1
1.151214811E1	-3.725779057E-2	1.399240494E-1	-2.601706982E-1
1.152005861E1	-8.211612701E-3	1.356821060E-1	-2.252554893E-1
1.152832861E1	3.142237663E-2	1.073932648E-1	-1.431360245E-1
1.153631695E1	4.296970367E-2	7.878875732E-2	-6.465053558E-2
1.154432145E1	1.640379429E-2	1.878643036E-2	-3.260350227E-2
1.155242895E1	2.848112583E-2	-1.018428802E-2	-5.752801895E-3
1.156087035E1	4.286074638E-2	-2.010536194E-2	-7.929086685E-3
1.156894615E1	1.141566038E-1	9.794235229E-4	-3.089427948E-3
1.157699596E1	1.799846888E-1	1.483917236E-2	1.866817474E-3
1.158504838E1	2.514392138E-1	3.093910217E-2	1.167297363E-2
1.159289780E1	3.092679977E-1	1.572704315E-2	5.978798866E-2
1.160084076E1	3.884212971E-1	-1.422977448E-2	1.171698570E-1
1.160907499E1	4.542464018E-1	-1.859951019E-2	1.758277416E-1
1.161707034E1	4.925842285E-1	-3.815555573E-2	2.426548004E-1
1.162509718E1	4.940798283E-1	-6.348037720E-2	2.955102921E-1
1.163331780E1	4.548128843E-1	-1.087369919E-1	3.347890377E-1
1.164163108E1	4.001572132E-1	-1.498527527E-1	3.819699287E-1
1.164973281E1	3.035323620E-1	-1.624031067E-1	3.971400261E-1
1.165775762E1	2.085083723E-1	-1.678056717E-1	4.116430283E-1
1.166580973E1	9.161472321E-2	-1.469097137E-1	3.989372253E-1
1.167366888E1	-1.828563213E-2	-1.258077621E-1	4.291915894E-1
1.168154538E1	-1.020274162E-1	-1.381807327E-1	4.276063442E-1
1.168989161E1	-1.835913658E-1	-1.342658997E-1	4.786996841E-1
1.169786488E1	-2.482708097E-1	-1.401195526E-1	4.826993942E-1
1.170587922E1	-2.838495970E-1	-1.559906006E-1	4.817986488E-1
1.171394922E1	-2.713475227E-1	-2.128429413E-1	4.574732780E-1
1.172237342E1	-2.538129091E-1	-2.077312469E-1	4.049432278E-1
1.173045026E1	-2.274449468E-1	-1.833066940E-1	3.476004601E-1
1.173849415E1	-1.474310160E-1	-1.873188019E-1	2.430517673E-1
1.174656050E1	-1.101536751E-1	-1.837568283E-1	1.564776897E-1
1.175442338E1	-6.592583656E-2	-1.869392395E-1	8.823513985E-2
1.176242553E1	8.743524551E-3	-1.970100403E-1	2.125668526E-2
1.177057303E1	6.487357616E-2	-1.566324234E-1	-3.010511398E-2
1.177856868E1	4.973733425E-2	-1.043729782E-1	-9.299612045E-2
1.178662618E1	-5.818724632E-3	-4.219055176E-3	-1.358966827E-1
1.179469857E1	-7.202720642E-2	4.790496826E-2	-1.788203716E-1
1.180312650E1	-1.262021065E-2	1.391887665E-2	-2.473392487E-1
1.181121308E1	2.839159966E-2	4.024505615E-3	-2.381634712E-1
1.181925319E1	-8.626937866E-3	2.085781097E-2	-2.703602314E-1
1.182730465E1	-1.252353191E-2	4.795360565E-2	-2.667722702E-1
1.183512522E1	-7.152402401E-2	1.115150452E-1	-2.806336880E-1
1.184307488E1	-9.614098072E-2	1.327714920E-1	-2.995657921E-1
1.185134918E1	-1.193238497E-1	1.117935181E-1	-3.068003654E-1
1.185934422E1	-1.148511171E-1	9.142684937E-2	-3.126449585E-1
1.186741534E1	-1.091603041E-1	7.173633575E-2	-2.976994514E-1
1.187545580E1	-1.028922796E-1	6.899547577E-2	-2.392723560E-1
1.188387777E1	-1.223348379E-1	5.202388763E-2	-1.686778069E-1
1.189197468E1	-1.726073623E-1	5.868434906E-2	-1.063151360E-1
1.190000192E1	-2.035949826E-1	5.783557892E-2	-3.063368797E-2
1.190805377E1	-2.294386625E-1	3.989791870E-2	1.996016502E-2
1.191590815E1	-2.620573640E-1	3.360462189E-2	3.826904297E-2
1.192385226E1	-2.791084647E-1	2.473449707E-2	5.266666412E-4
1.193209199E1	-2.800249457E-1	5.413818359E-2	-2.837967873E-2
1.194006661E1	-2.440714240E-1	9.297943115E-2	-6.284189224E-2
1.194808357E1	-2.408004403E-1	8.889484406E-2	-1.042237282E-1
1.195620180E1	-1.892708540E-1	7.550621033E-2	-1.400940418E-1
1.196462650E1	-1.567167044E-1	1.704883575E-2	-1.339864731E-1
1.197271500E1	-1.084209085E-1	-4.599571228E-2	-1.197001934E-1
1.198075042E1	-4.954361916E-2	-1.111993790E-1	-8.503031731E-2
1.198881738E1	2.862989902E-2	-1.237802505E-1	-2.577280998E-2
1.199671157E1	7.080900669E-2	-1.198205948E-1	4.563069344E-2
1.200454868E1	9.607172012E-2	-9.223079681E-2	9.780049324E-2
1.201276607E1	1.046316624E-1	-5.302810669E-2	1.448738575E-1
1.202086022E1	7.110333443E-2	-3.581619263E-2	1.719026566E-1
1.202885511E1	3.766393661E-2	-1.419734955E-2	1.354641914E-1
1.203696465E1	2.153193951E-2	2.264976501E-3	1.096582413E-1
1.204539746E1	1.823401451E-2	2.313041687E-2	7.277178764E-2
1.205348342E1	4.228925705E-2	1.978492737E-2	3.947377205E-2
1.206152380E1	3.884696960E-2	-4.158020020E-4	-1.737833023E-3
1.206957561E1	1.483476162E-2	-2.296066284E-2	-2.433300018E-3
1.207739664E1	1.316189766E-2	-4.778003693E-2	-2.218484879E-2
1.208534611E1	-2.154815197E-2	-7.238388062E-2	-3.185701370E-2
1.209360080E1	-1.530730724E-2	-6.321334839E-2	-9.687423706E-3
1.210165645E1	-3.552722931E-2	-5.140781403E-2	8.483171463E-3
1.210963742E1	-3.694546223E-2	-3.468227386E-2	4.874086380E-2
1.211778068E1	-9.603816271E-2	-2.029323578E-2	1.059961319E-1
1.212572238E1	-1.431913972E-1	-3.478527069E-2	1.484482288E-1
1.213382538E1	-2.135471106E-1	-1.602172852E-2	1.874263287E-1
1.214199103E1	-2.181684375E-1	-4.825592041E-3	2.128496170E-1
1.214992053E1	-2.408136725E-1	1.796150208E-2	1.696791649E-1
1.215808480E1	-2.498144507E-1	1.642608643E-2	1.367430687E-1
1.216652830E1	-2.121724486E-1	1.474571228E-2	6.946349144E-2
1.217461600E1	-1.791145802E-1	-6.114959717E-3	1.404309273E-2
1.218265715E1	-1.510428190E-1	-2.690792084E-2	-4.346323013E-2
1.219070865E1	-1.496638060E-1	-2.584743500E-2	-9.988665581E-2
1.219858799E1	-1.462023854E-1	-2.215957642E-2	-1.267359257E-1
1.220650526E1	-1.309741139E-1	-1.335620880E-2	-1.548941135E-1
1.221456772E1	-1.113489270E-1	-1.614856720E-2	-1.506395340E-1
1.222273361E1	-7.785046101E-2	2.861022949E-3	-1.669883728E-1
1.223070430E1	-2.870291471E-2	5.617141724E-4	-1.654880047E-1
1.223877999E1	7.585823536E-3	1.754665375E-2	-1.609001160E-1
1.224727692E1	4.541975260E-2	2.512359619E-2	-1.387684345E-1
1.225537961E1	5.864435434E-2	4.047393799E-3	-1.161837578E-1
1.226340546E1	8.091217279E-2	-2.700805664E-3	-7.439327240E-2
1.227145723E1	5.526661873E-2	-2.156639099E-2	-2.585005760E-2
1.227934934E1	6.333291531E-2	-3.106498718E-2	5.234956741E-3
1.228740818E1	5.517190695E-2	-5.758380890E-2	2.098703384E-2
1.229531034E1	5.958700180E-2	-4.848098755E-2	2.607512474E-2
1.230347049E1	6.708699465E-2	-3.718090057E-2	-7.686614990E-4
1.231141268E1	7.715886831E-2	-6.857872009E-3	-4.120349884E-3
1.231948768E1	7.794392109E-2	1.384353638E-2	-3.402805328E-2
1.232802977E1	8.090496063E-2	2.503871918E-2	-5.406832695E-2
1.233611522E1	8.607608080E-2	1.959514618E-2	-6.649518013E-2
1.234415092E1	7.655078173E-2	1.187705994E-2	-6.887888908E-2
1.235221807E1	8.584260941E-2	1.632595062E-2	-6.577157974E-2
1.236005076E1	9.964108467E-2	1.370429993E-2	-9.096622467E-2
1.236797541E1	1.130895615E-1	4.473876953E-2	-1.132459641E-1
1.237608472E1	1.165946722E-1	4.474067688E-2	-1.159772873E-1
1.238420591E1	1.174008846E-1	5.911827087E-2	-1.113986969E-1
1.239215322E1	1.105912328E-1	7.114410400E-2	-1.113474369E-1
1.240023249E1	9.871417284E-2	8.561992645E-2	-1.014654636E-1
1.240876707E1	7.963025570E-2	1.121463776E-1	-7.457160950E-2
1.241685604E1	5.844527483E-2	1.148557663E-1	-4.739379883E-2
1.242489688E1	6.157970428E-2	8.658885956E-2	-1.030826569E-2
1.243294911E1	7.680541277E-2	3.454303741E-2	2.245211601E-2
1.244079841E1	1.019825935E-1	-3.887367249E-2	4.844284058E-2
1.244871476E1	1.507297158E-1	-1.122236252E-1	6.039929390E-2
1.245689718E1	1.821424365E-1	-1.376447678E-1	8.463001251E-2
1.246494934E1	1.937303543E-1	-1.368312836E-1	1.135561466E-1
1.247292572E1	1.854977608E-1	-1.003179550E-1	1.396462917E-1
1.248108457E1	1.788493395E-1	-7.365417480E-2	1.531915665E-1
1.248952123E1	1.547827721E-1	-4.492092133E-2	1.635539532E-1
1.249762142E1	1.496937275E-1	-4.038524628E-2	1.731956005E-1
1.250564623E1	1.513559818E-1	-5.042457581E-2	1.871275902E-1
1.251369769E1	1.170808673E-1	-9.421253204E-2	2.123398781E-1
1.252157868E1	9.514009953E-2	-9.248924255E-2	2.063858509E-1
1.252946222E1	8.543765545E-2	-1.003150940E-1	2.076132298E-1
1.253758568E1	7.795250416E-2	-1.010131836E-1	2.350718975E-1
1.254570149E1	6.797260046E-2	-1.065883636E-1	2.766630650E-1
1.255363438E1	6.467014551E-2	-1.052036285E-1	3.105566502E-1
1.256175641E1	5.331563950E-2	-9.228992462E-2	3.433909416E-1
1.257026703E1	4.113912582E-2	-6.566238403E-2	3.481903076E-1
1.257835326E1	1.653397083E-2	-2.507972717E-2	3.614928722E-1
1.258638634E1	-3.407776356E-3	-1.837730408E-2	3.498306274E-1
1.259445215E1	-8.559644222E-3	-1.210308075E-2	3.463485241E-1
1.260230395E1	-1.553463936E-2	-6.027221680E-3	3.229706287E-1
1.261021988E1	-2.268075943E-3	-3.613376617E-2	3.128390312E-1
1.261830514E1	-4.638433456E-3	-6.878566742E-2	2.732131481E-1
1.262646984E1	2.770853043E-2	-7.510566711E-2	2.140748501E-1
1.263436714E1	7.271766663E-2	-3.325080872E-2	1.460416317E-1
1.264250991E1	9.644997120E-2	1.572608948E-3	4.967570305E-2
1.265100861E1	9.633755684E-2	2.722454071E-2	-3.591823578E-2
1.265906538E1	9.179425240E-2	2.231025696E-2	-1.151831150E-1
1.266713138E1	9.675514698E-2	3.931713104E-2	-1.598048210E-1
1.267518111E1	8.680331707E-2	3.987312317E-2	-1.746101379E-1
1.268299988E1	4.753112793E-2	2.141952515E-2	-1.792201996E-1
1.269103457E1	-9.335875511E-3	1.271533966E-2	-1.639118195E-1
1.269899257E1	-3.584003448E-2	9.027481079E-3	-1.692378521E-1
1.270727257E1	-8.701437712E-2	-8.804321289E-3	-1.401679516E-1
1.271511734E1	-1.527099609E-1	-2.639102936E-2	-1.270985603E-1
1.272328857E1	-1.989987493E-1	-2.695560455E-2	-1.157386303E-1
1.273174257E1	-2.489903569E-1	-2.470874786E-2	-1.154892445E-1
1.273982784E1	-2.663717270E-1	-1.967048645E-2	-1.432986259E-1
1.274786369E1	-2.987421751E-1	-1.902198792E-2	-1.417946815E-1
1.275591350E1	-3.143309951E-1	-3.465652466E-3	-1.825854778E-1
1.276376672E1	-3.017417192E-1	-1.625537872E-2	-1.917202473E-1
1.277167665E1	-2.684750557E-1	1.439857483E-2	-1.835491657E-1
1.277976065E1	-2.341469526E-1	-1.354217529E-4	-2.011580467E-1
1.278794607E1	-1.641798019E-1	1.171684265E-2	-1.945605278E-1
1.279586422E1	-1.451937556E-1	-1.956176758E-2	-1.638865471E-1
1.280406707E1	-1.195925474E-1	-4.602336884E-2	-1.425046921E-1
1.281249046E1	-9.922349453E-2	-8.447742462E-2	-1.234195232E-1
1.282057530E1	-8.218604326E-2	-1.063480377E-1	-1.093361378E-1
1.282860776E1	-7.770431042E-2	-8.040237427E-2	-1.024405956E-1
1.283667215E1	-3.112894297E-2	-4.269313812E-2	-1.149871349E-1
1.284454845E1	-6.948888302E-3	-4.350376129E-2	-1.135213375E-1
1.285270491E1	2.093493938E-3	-3.973484039E-2	-1.028554440E-1
1.286053434E1	7.731318474E-4	-6.746387482E-2	-5.713272095E-2
1.286866680E1	-2.521753311E-2	-7.159328461E-2	-5.017518997E-3
1.287659434E1	-6.125259399E-2	-2.809715271E-2	-3.793478012E-3
1.288472788E1	-3.287214041E-2	1.517105103E-2	3.512859344E-2
1.289322534E1	1.452708244E-2	3.195571899E-2	4.492688179E-2
1.290131342E1	7.387220860E-2	3.419494629E-2	4.940915108E-2
1.290935184E1	1.311464310E-1	5.179405212E-3	4.144501686E-2
1.291740261E1	1.531686187E-1	1.907348633E-5	3.062438965E-2
1.292523934E1	1.565205455E-1	9.175300598E-3	1.233339310E-2
1.293317561E1	1.719502211E-1	6.395339966E-3	-1.546406746E-2
1.294133907E1	1.893668771E-1	-1.064968109E-2	-4.284310341E-2
1.294938753E1	1.728153229E-1	-2.758502960E-2	-5.539393425E-2
1.295739488E1	1.960414648E-1	-4.199790955E-2	-7.446932793E-2
1.296543065E1	1.871585250E-1	-2.039146423E-2	-8.335757256E-2
1.297396669E1	1.627191305E-1	-9.613037109E-4	-7.687282562E-2
1.298206592E1	1.447986960E-1	-1.952266693E-2	-9.559106827E-2
1.299008934E1	1.050267220E-1	-2.584171295E-2	-6.073164940E-2
1.299813949E1	6.549543142E-2	-1.013154984E-1	-8.356809616E-3
1.300598164E1	3.634929657E-2	-1.622438431E-1	8.262395859E-2
1.301390845E1	3.635358810E-2	-2.207412720E-1	1.400682926E-1
1.302212645E1	5.828881264E-2	-2.481346130E-1	2.045230865E-1
1.303011953E1	9.926575422E-2	-2.613019943E-1	2.446658611E-1
1.303803861E1	1.519045830E-1	-2.700099945E-1	2.528133392E-1
1.304615222E1	2.038570046E-1	-2.693519592E-1	2.557606697E-1
1.305470080E1	2.568421960E-1	-3.024673462E-1	2.440197468E-1
1.306278496E1	2.966477275E-1	-2.997121811E-1	2.325544357E-1
1.307081507E1	3.181732297E-1	-2.827291489E-1	2.786340714E-1
1.307887853E1	3.476285934E-1	-2.517709732E-1	3.288929462E-1
1.308671357E1	3.249744177E-1	-2.142629623E-1	4.377460480E-1
1.309460430E1	2.884114981E-1	-1.949062347E-1	5.790162086E-1
1.310279595E1	2.403131723E-1	-1.441888809E-1	6.954109669E-1
1.311086472E1	1.865634918E-1	-9.088134766E-2	7.242438793E-1
1.311879118E1	9.992074966E-2	-3.694725037E-2	6.711890697E-1
1.312690318E1	4.886984825E-3	-2.287769318E-2	5.583224297E-1
1.313541722E1	-1.034702063E-1	-4.748058319E-2	3.908038139E-1
1.314350141E1	-2.099469304E-1	-7.109069824E-2	2.201490402E-1
1.315153999E1	-2.812561393E-1	-7.689476013E-2	6.567668915E-2
1.315959092E1	-3.155977130E-1	-4.320049286E-2	-4.572200775E-2
1.316742276E1	-3.498204947E-1	-2.315711975E-2	-1.366641521E-1
1.317534703E1	-3.365648985E-1	-4.310894012E-2	-1.950442791E-1
1.318363980E1	-2.858436704E-1	-8.396148682E-2	-2.376604080E-1
1.319158264E1	-2.489922047E-1	-1.192340851E-1	-2.901206017E-1
1.319955411E1	-2.425658703E-1	-1.316785812E-1	-3.224363327E-1
1.320764195E1	-1.737573147E-1	-1.070556641E-1	-3.443799019E-1
1.321617134E1	-9.340369701E-2	-1.191930771E-1	-3.786625862E-1
1.322427026E1	-2.674937248E-2	-1.016626358E-1	-3.978443146E-1
1.323229280E1	5.277156830E-2	-8.797073364E-2	-4.258961678E-1
1.324034284E1	1.305723190E-1	-8.996772766E-2	-4.360959530E-1
1.324822030E1	1.468514204E-1	-1.178140640E-1	-4.180762768E-1
1.325612668E1	1.616332531E-1	-1.431379318E-1	-3.297727108E-1
1.326421303E1	1.296777725E-1	-1.375932693E-1	-2.178232670E-1
1.327235768E1	7.522583008E-2	-1.498126984E-1	-9.875726700E-2
1.328026634E1	2.021265030E-2	-1.752500534E-1	1.461291313E-2
1.328835672E1	-9.010469913E-2	-2.089471817E-1	8.197164536E-2
1.329690838E1	-1.855280399E-1	-2.314615250E-1	1.278133392E-1
1.330499457E1	-2.445498109E-1	-2.165632248E-1	1.638281345E-1
1.331302845E1	-2.908912897E-1	-2.215337753E-1	1.473615170E-1
1.332109542E1	-3.710361123E-1	-2.316761017E-1	1.052396297E-1
1.332894615E1	-4.359550476E-1	-2.229709625E-1	2.776432037E-2
1.333698934E1	-4.909183383E-1	-1.806612015E-1	-8.695530891E-2
1.334493814E1	-5.257149935E-1	-1.233930588E-1	-2.161083221E-1
1.335307730E1	-5.111863613E-1	-4.768276215E-2	-3.352262974E-1
1.336101015E1	-4.957908094E-1	1.004219055E-3	-4.408960342E-1
1.336910703E1	-4.393929243E-1	5.151748657E-2	-5.158212185E-1
1.337763942E1	-3.913770318E-1	7.528209686E-2	-5.495178699E-1
1.338572365E1	-3.102427721E-1	6.618022919E-2	-5.708563328E-1
1.339376292E1	-2.100622654E-1	5.319690704E-2	-5.265796185E-1
1.340181168E1	-1.255273819E-1	2.187919617E-2	-4.405856133E-1
1.340976091E1	-2.652490139E-2	1.450538635E-2	-3.197014332E-1
1.341762226E1	3.700196743E-2	-2.978610992E-2	-1.662824154E-1
1.342565580E1	8.180356026E-2	-4.663658142E-2	-4.582715034E-2
1.343380299E1	7.804906368E-2	-9.817028046E-2	3.446984291E-2
1.344175176E1	1.061649323E-1	-2.102031708E-1	9.007310867E-2
1.344988361E1	1.430700421E-1	-2.815694809E-1	9.139418602E-2
1.345836326E1	2.113666534E-1	-4.028272629E-1	1.159913540E-1
1.346646280E1	3.655781150E-1	-4.615697861E-1	1.750445366E-1
1.347448642E1	5.879598856E-1	-4.481649399E-1	2.618312836E-1
1.348253649E1	8.081133962E-1	-5.073289871E-1	3.352622986E-1
1.349038503E1	9.767093062E-1	-4.242658615E-1	4.423773289E-1
1.349833138E1	1.055092692E0	-2.554216385E-1	5.705184937E-1
1.350638534E1	1.006466389E0	-3.694248199E-2	6.780776978E-1
1.351453357E1	8.083040714E-1	1.857490540E-1	7.435176373E-1
1.352249641E1	5.784971714E-1	3.558797836E-1	7.289946079E-1
1.353055257E1	3.342461586E-1	3.995313644E-1	6.281402111E-1
1.353910338E1	1.620203257E-1	3.577013016E-1	5.007832050E-1
1.354719057E1	4.446721077E-2	3.352966309E-1	3.796176910E-1
1.355522388E1	1.566803455E-2	4.753875732E-1	2.587203979E-1
1.356326703E1	-2.460920811E-2	7.210617065E-1	1.082668304E-1
1.357108849E1	-1.046758890E-1	8.737411499E-1	-2.437186241E-2
1.357904488E1	-1.989884377E-1	9.190883636E-1	-1.318571568E-1
1.358730018E1	-3.342959881E-1	9.166507721E-1	-2.006552219E-1
1.359552384E1	-3.909924626E-1	8.063888550E-1	-3.055565357E-1
1.360328049E1	-3.483960629E-1	7.242364883E-1	-3.806722164E-1
1.361133049E1	-2.075827122E-1	6.194610596E-1	-4.412016869E-1
1.361982499E1	-2.199351788E-2	5.780258179E-1	-4.730863571E-1
1.362790984E1	1.857857704E-1	5.040397644E-1	-4.642775059E-1
1.363594842E1	3.453692198E-1	4.479713440E-1	-4.330043793E-1
1.364399726E1	5.097686052E-1	4.237680435E-1	-3.484587669E-1
1.365189807E1	5.865799189E-1	3.760099411E-1	-1.966319084E-1
1.365970907E1	6.350356340E-1	3.089561462E-1	-3.853988647E-2
1.366783488E1	6.822613478E-1	2.432737350E-1	1.192774773E-1
1.367599168E1	7.408143282E-1	1.590042114E-1	2.648193836E-1
1.368393595E1	8.213207722E-1	1.062688828E-1	4.020504951E-1
1.369204853E1	8.811047077E-1	7.737541199E-2	5.065226555E-1
1.370056049E1	8.642052412E-1	5.215835571E-2	6.046791077E-1
1.370866057E1	7.880061865E-1	1.992702484E-2	6.619863510E-1
1.371668214E1	6.582823992E-1	2.053260803E-3	7.063069344E-1
1.372473088E1	5.140663385E-1	-4.582118988E-2	7.382569313E-1
1.373263180E1	3.623396158E-1	-3.637123108E-2	7.286911011E-1
1.374869714E1	1.834419966E-1	1.847553253E-2	6.457762718E-1
1.375674022E1	6.183075905E-2	7.187843323E-3	5.391321182E-1
1.376467695E1	-1.121737957E-1	-7.962226868E-2	4.212937355E-1
1.377278957E1	-3.255270720E-1	-1.651411057E-1	3.065617085E-1
1.378129595E1	-5.195205212E-1	-2.352828979E-1	2.045919895E-1
1.378938365E1	-6.794748306E-1	-1.904516220E-1	1.257488728E-1
1.379741653E1	-7.627621889E-1	-8.457469940E-2	6.459093094E-2
1.380548245E1	-8.215151429E-1	6.792354584E-2	-5.568742752E-3
1.382127199E1	-8.810172677E-1	2.960777283E-1	-1.366133690E-1
1.382934799E1	-8.775450587E-1	2.594270706E-1	-1.919796467E-1
1.383758288E1	-9.181164503E-1	1.598310471E-1	-2.337629795E-1
1.384544595E1	-9.394043088E-1	3.536891937E-2	-2.931032181E-1
1.385352630E1	-9.497004747E-1	-2.763080597E-2	-3.399930000E-1
1.386203972E1	-9.455866218E-1	6.642341614E-3	-3.893349171E-1
1.387012349E1	-8.969824314E-1	8.882331848E-2	-4.137618542E-1
1.387816191E1	-8.296463490E-1	1.279354095E-1	-4.015500546E-1
1.388621172E1	-7.280901074E-1	1.048097610E-1	-3.690512180E-1
1.389405699E1	-6.172218323E-1	-2.350997925E-2	-3.467442989E-1
1.390199830E1	-4.866689444E-1	-2.250986099E-1	-2.778460979E-1
1.391003322E1	-3.129533529E-1	-4.326381683E-1	-2.093682289E-1
1.391822307E1	-1.043360233E-1	-5.743980408E-1	-1.124770641E-1
1.392617614E1	1.141446829E-1	-6.024436951E-1	-2.017188072E-2
1.393427203E1	2.934195995E-1	-5.397500992E-1	5.996656418E-2
1.394276661E1	4.445881844E-1	-3.717508316E-1	9.594273567E-2
1.395086588E1	5.520268679E-1	-2.102270126E-1	9.573292732E-2
1.395889003E1	6.587486267E-1	-1.048183441E-1	5.789279938E-2
1.396691972E1	7.151948214E-1	-6.010913849E-2	1.386308670E-2
1.397476707E1	7.535288334E-1	-6.642913818E-2	-6.196451187E-2
1.398273430E1	8.112900257E-1	-1.000175476E-1	-7.877779007E-2
1.399078568E1	8.637145758E-1	-1.296949387E-1	-1.342184544E-1
1.399899326E1	8.886282444E-1	-1.720819473E-1	-1.542174816E-1
1.400689891E1	8.638683558E-1	-1.670188904E-1	-1.920983791E-1
1.401498157E1	7.903175354E-1	-7.861995697E-2	-2.473661900E-1
1.402352049E1	6.813690662E-1	8.592510223E-2	-2.885146141E-1
1.403160584E1	5.528370142E-1	2.979297638E-1	-3.265058994E-1
1.403963930E1	4.087686539E-1	4.545164108E-1	-3.537030220E-1
1.404769576E1	2.230999470E-1	5.828161240E-1	-3.964474201E-1
1.405553114E1	2.474081516E-2	6.281042099E-1	-4.454665184E-1
1.406344157E1	-1.566890478E-1	5.909404755E-1	-4.915180206E-1
1.407155426E1	-3.082910776E-1	5.387067795E-1	-5.460891724E-1
1.407971038E1	-4.463856220E-1	4.737396240E-1	-6.084926128E-1
1.408761618E1	-5.227534771E-1	5.227584839E-1	-6.902484894E-1
1.409574980E1	-5.374093056E-1	7.262134552E-1	-7.249543667E-1
1.410425360E1	-5.272282362E-1	9.829769135E-1	-7.591657639E-1
1.411233849E1	-5.219324827E-1	1.132088661E0	-7.723920345E-1
1.412037545E1	-4.959253073E-1	1.159363270E0	-7.374544144E-1
1.412842437E1	-4.839602113E-1	1.057780266E0	-6.270551682E-1
1.413631938E1	-4.237138033E-1	7.897796631E-1	-4.319505692E-1
1.414427014E1	-3.564885259E-1	3.271923065E-1	-1.766436100E-1
1.415234688E1	-3.074529767E-1	-2.776231766E-1	1.193797588E-1
1.416042776E1	-2.235094309E-1	-7.759971619E-1	4.575035572E-1
1.416836630E1	-3.689277172E-2	-1.136384964E0	7.953798771E-1
1.417645568E1	1.475423574E-1	-1.337728500E0	1.081660748E0
1.418497795E1	2.682826519E-1	-1.408389091E0	1.259236097E0
1.419307684E1	3.368921280E-1	-1.329240799E0	1.366322041E0
1.420109949E1	3.986468315E-1	-1.248192787E0	1.370923996E0
1.420914868E1	4.281146526E-1	-1.295158386E0	1.203600168E0
1.421700322E1	4.266022444E-1	-1.442706108E0	9.460344315E-1
1.422495168E1	3.950746059E-1	-1.475209236E0	6.892910004E-1
1.423301891E1	3.918844461E-1	-1.230659485E0	4.499058723E-1
1.424119014E1	3.988958597E-1	-8.792648315E-1	2.460627556E-1
1.424909076E1	3.691447973E-1	-4.521636963E-1	7.979416847E-2
1.425717434E1	3.402265310E-1	-9.636878967E-3	-7.616019249E-2
1.426570880E1	3.040187359E-1	4.099025726E-1	-2.025427818E-1
1.427379453E1	2.741711140E-1	7.996797562E-1	-3.768897057E-1
1.428182737E1	2.276318073E-1	1.007247925E0	-5.365941525E-1
1.428989557E1	1.583416462E-1	1.067138672E0	-6.879811287E-1
1.429784003E1	2.490520477E-2	9.429407120E-1	-8.225305080E-1
1.430567734E1	-1.225922108E-1	6.583318710E-1	-8.436820507E-1
1.431383245E1	-3.129987717E-1	3.647489548E-1	-7.904706001E-1
1.432198868E1	-4.880591035E-1	1.484622955E-1	-6.557564735E-1
1.432984576E1	-6.613048315E-1	8.995056152E-3	-4.769897461E-1
1.433794072E1	-7.870085239E-1	-2.055263519E-2	-2.289731503E-1
1.434644745E1	-7.836529016E-1	4.460716248E-2	4.772019386E-2
1.435453160E1	-7.214684486E-1	1.045179367E-1	2.989418507E-1
1.436256864E1	-6.105484962E-1	1.659908295E-1	4.663443565E-1
1.437061910E1	-4.612990618E-1	1.891126633E-1	5.264122486E-1
1.437847245E1	-2.958492637E-1	1.792182922E-1	4.481010437E-1
1.438643026E1	-1.420692801E-1	1.458129883E-1	2.914993763E-1
1.439460838E1	-4.330968857E-2	8.710861206E-2	9.190082550E-2
1.440265222E1	1.533186436E-2	1.602840424E-2	-9.548044205E-2
1.441057314E1	7.979190350E-2	-1.126317978E-1	-2.276899815E-1
1.441868353E1	1.416342258E-1	-2.434959412E-1	-2.970089912E-1
1.442719999E1	2.094419003E-1	-3.692407608E-1	-3.466267586E-1
1.443529991E1	2.643584013E-1	-4.821901321E-1	-3.033487797E-1
1.444332357E1	3.194890022E-1	-5.676307678E-1	-2.112350464E-1
1.445137514E1	3.492267132E-1	-6.714057922E-1	-7.312011719E-2
1.445947699E1	3.647173643E-1	-7.099819183E-1	8.419442177E-2
1.446730672E1	3.579289913E-1	-7.176542282E-1	2.108664513E-1
1.447525614E1	3.428946733E-1	-6.444101334E-1	3.062362671E-1
1.448347918E1	2.937889099E-1	-5.264797211E-1	3.620247841E-1
1.449150014E1	2.583377361E-1	-3.787555695E-1	3.782668114E-1
1.449943653E1	2.580040693E-1	-2.372636795E-1	4.192686081E-1
1.450794534E1	2.559752464E-1	-1.026639938E-1	4.250514507E-1
1.451603160E1	2.343007326E-1	3.711318970E-2	4.433422089E-1
1.452406541E1	1.483216286E-1	1.603851318E-1	4.375822544E-1
1.453213083E1	3.751146793E-2	2.198781967E-1	3.996574879E-1
1.454000291E1	-6.584990025E-2	1.945743561E-1	3.164529800E-1
1.454790041E1	-1.423000097E-1	8.782100677E-2	1.955184937E-1
1.455631268E1	-1.778537631E-1	-6.654167175E-2	2.842688560E-2
1.456420818E1	-1.597153544E-1	-2.585182190E-1	-1.255815029E-1
1.457207553E1	-1.081883907E-1	-4.183797836E-1	-3.267250061E-1
1.458021295E1	-5.905365944E-2	-5.171527863E-1	-4.906477928E-1
1.458867960E1	-5.457043648E-3	-5.479784012E-1	-6.371283531E-1
1.459676441E1	5.767202377E-2	-4.625463486E-1	-7.045900822E-1
1.460480187E1	5.531179905E-2	-2.881774902E-1	-7.338397503E-1
1.461285210E1	-4.531896114E-2	-4.895019531E-2	-7.254116535E-1
1.462073987E1	-1.849817038E-1	1.491537094E-1	-6.575460434E-1
1.462872991E1	-2.581222653E-1	2.749567032E-1	-6.148648262E-1
1.463672841E1	-2.736375928E-1	3.049478531E-1	-5.264706612E-1
1.464492530E1	-2.714135051E-1	3.155412674E-1	-4.076094627E-1
1.465288057E1	-2.830325961E-1	3.434486389E-1	-2.676782608E-1
1.466093611E1	-3.175684214E-1	3.554553986E-1	-9.412264824E-2
1.466941560E1	-3.877609372E-1	3.374938965E-1	1.108667850E-1
1.467751549E1	-4.401443005E-1	2.799854279E-1	2.846581936E-1
1.468553960E1	-4.297088385E-1	1.996269226E-1	4.478769302E-1
1.469359114E1	-3.775545955E-1	1.246852875E-1	5.367081165E-1
1.470161214E1	-2.874662876E-1	5.028724670E-2	5.705933571E-1
1.470935772E1	-1.953596473E-1	3.169727325E-2	5.797827244E-1
1.471748657E1	-8.335071802E-2	8.325672150E-2	5.407862663E-1
1.472570410E1	2.685743570E-2	9.307956696E-2	4.875345230E-1
1.473359564E1	1.511691213E-1	6.436538696E-2	4.186565876E-1
1.474163287E1	2.117108107E-1	-2.902317047E-2	3.438689709E-1
1.475016118E1	2.391773462E-1	-1.173028946E-1	2.834329605E-1
1.475824691E1	2.510458827E-1	-1.759805679E-1	2.290968895E-1
1.476627976E1	2.220918536E-1	-2.005014420E-1	1.606478691E-1
1.477434433E1	2.607077360E-1	-1.814317703E-1	8.464694023E-2
1.478220460E1	3.026980758E-1	-1.309576035E-1	1.946210861E-2
1.479011345E1	3.126629591E-1	-8.499622345E-2	-9.970951080E-2
1.479821295E1	3.193859458E-1	-5.548000336E-2	-1.841812134E-1
1.480640103E1	3.107022643E-1	-2.063751221E-2	-2.500152588E-1
1.481440261E1	2.866132855E-1	-1.142215729E-2	-2.560105324E-1
1.482237380E1	2.780234218E-1	2.718448639E-2	-2.261731625E-1
1.483086691E1	2.417697310E-1	3.771591187E-2	-2.011806965E-1
1.483895099E1	2.367340326E-1	5.349731445E-2	-1.413180828E-1
1.484698987E1	2.222635746E-1	6.477355957E-2	-5.908465385E-2
1.485504037E1	2.105499506E-1	4.489994049E-2	1.822590828E-2
1.486288937E1	1.731854677E-1	1.781845093E-2	1.264085770E-1
1.487084907E1	1.029086113E-1	-2.196311951E-3	2.149422169E-1
1.487892707E1	-2.128338814E-2	-1.057147980E-2	3.476414680E-1
1.488707987E1	-1.445471644E-1	2.362632751E-2	4.282412529E-1
1.489501845E1	-2.589841485E-1	4.478263855E-2	5.219113827E-1
1.490310230E1	-3.301926851E-1	8.354091644E-2	5.550982952E-1
1.491161153E1	-3.612498641E-1	1.011066437E-1	5.737280846E-1
1.491971272E1	-3.501040339E-1	1.052398682E-1	5.748929977E-1
1.492773656E1	-3.168265820E-1	9.151172638E-2	5.432977676E-1
1.493578783E1	-2.483326793E-1	7.238292694E-2	4.904482365E-1
1.494373280E1	-1.957296729E-1	3.149414062E-2	3.962538242E-1
1.495161134E1	-1.081880927E-1	-1.833343506E-2	2.780716419E-1
1.495972968E1	-4.345810413E-2	-4.097747803E-2	1.484656334E-1
1.496782084E1	2.727568150E-3	-5.768108368E-2	2.036786079E-2
1.497574784E1	4.451906681E-2	-6.596374512E-2	-7.967376709E-2
1.498384195E1	5.851137638E-2	-7.096385956E-2	-1.815612316E-1
1.499235699E1	7.359063625E-2	-8.484649658E-2	-2.691555023E-1
1.500044279E1	9.249198437E-2	-9.107494354E-2	-3.264234066E-1
1.500847672E1	1.056458354E-1	-1.157007217E-1	-3.717465401E-1
1.501654214E1	1.410425901E-1	-1.033954620E-1	-3.754646778E-1
1.502439526E1	1.818756461E-1	-9.974098206E-2	-3.497867584E-1
1.503229299E1	1.918407083E-1	-1.048049927E-1	-3.330700397E-1
1.504039991E1	1.926938891E-1	-1.354751587E-1	-2.802205086E-1
1.504858203E1	1.801356673E-1	-1.393365860E-1	-2.255733013E-1
1.505649518E1	1.768342257E-1	-1.789503098E-1	-1.751081944E-1
1.506466418E1	1.850246191E-1	-2.302589417E-1	-1.045031548E-1
1.507309556E1	2.122069597E-1	-2.527818680E-1	-5.515503883E-2
1.508118214E1	2.275993824E-1	-2.156047821E-1	3.687787056E-2
1.508922260E1	2.171968222E-1	-1.647405624E-1	1.316759586E-1
1.509727460E1	2.050457001E-1	-1.074762344E-1	2.193002701E-1
1.510513903E1	1.786041260E-1	-7.729244232E-2	2.856662273E-1
1.511305395E1	1.306470633E-1	-4.077339172E-2	3.304803371E-1
1.512132322E1	1.209313869E-1	-3.147697449E-2	3.368768692E-1
1.512930672E1	1.399413347E-1	-6.126022339E-2	3.434779644E-1
1.513724876E1	1.594668627E-1	-1.180486679E-1	3.336496353E-1
1.514533522E1	1.671373844E-1	-1.802558899E-1	3.267838955E-1
1.515384356E1	1.754254103E-1	-2.240228653E-1	3.320693970E-1
1.516194395E1	1.742161512E-1	-1.703004837E-1	2.827723026E-1
1.516996714E1	1.182935238E-1	-9.299850464E-2	2.251858711E-1
1.517801841E1	8.872127533E-2	1.031112671E-2	1.044647694E-1
1.518585814E1	4.520356655E-2	9.220600128E-2	-4.949975014E-2
1.519379891E1	-7.225751877E-3	1.339015961E-1	-1.854767799E-1
1.520196584E1	-1.362919807E-2	1.688575745E-1	-2.628998756E-1
1.521008141E1	-2.696239948E-2	1.898956299E-1	-3.104104996E-1
1.521795745E1	-4.035627842E-2	1.875753403E-1	-3.083798885E-1
1.522612280E1	-6.101202965E-2	1.713180542E-1	-2.883534431E-1
1.523460118E1	-1.078298092E-1	1.483516693E-1	-2.503075600E-1
1.524268806E1	-1.492723227E-1	1.472949982E-1	-2.138459682E-1
1.525072179E1	-1.948446631E-1	1.178379059E-1	-1.671235561E-1
1.525878714E1	-2.081754804E-1	3.383255005E-2	-1.193435192E-1
1.526665203E1	-2.106295228E-1	-8.313941956E-2	-8.964061737E-2
1.527454987E1	-1.666059494E-1	-2.140703201E-1	-4.478740692E-2
1.528265522E1	-1.026018858E-1	-3.445634842E-1	-3.970956802E-2
1.529084434E1	-1.731085777E-2	-4.341497421E-1	-4.114913940E-2
1.529873291E1	6.223320961E-2	-4.567384720E-1	-2.320432663E-2
1.530684749E1	1.523689032E-1	-4.243001938E-1	-7.286071777E-3
1.531531718E1	2.076398134E-1	-3.655271530E-1	1.389169693E-2
1.532342395E1	2.685006857E-1	-3.404121399E-1	4.721140862E-2
1.533146375E1	2.774071693E-1	-3.536701202E-1	9.771275520E-2
1.533951541E1	2.871854305E-1	-3.766279221E-1	1.795439720E-1
1.534731687E1	2.164388895E-1	-3.759937286E-1	2.729289532E-1
1.535526387E1	1.681942940E-1	-3.926105499E-1	3.439333439E-1
1.536333322E1	1.068009138E-1	-3.549365997E-1	3.653345108E-1
1.537155218E1	5.865120888E-2	-2.992486954E-1	3.696219921E-1
1.537950053E1	-2.268624306E-2	-2.348051071E-1	3.140602112E-1
1.538753884E1	-1.182950735E-1	-1.950902939E-1	2.658908367E-1
1.539608595E1	-2.196841240E-1	-1.678543091E-1	2.134304047E-1
1.540418745E1	-2.498936653E-1	-1.719970703E-1	1.476771832E-1
1.541221341E1	-2.684358358E-1	-1.116819382E-1	1.046049595E-1
1.542026587E1	-2.367249727E-1	-8.240032196E-2	8.008837700E-2
1.542815814E1	-2.131892443E-1	-6.770515442E-2	5.207443237E-2
1.543604726E1	-1.859997511E-1	-5.781269073E-2	-3.471374512E-4
1.544423237E1	-1.481709480E-1	-7.419967651E-2	-7.690787315E-2
1.545236703E1	-8.858549595E-2	-9.066104889E-2	-1.561024189E-1
1.546024411E1	-3.580689430E-2	-1.257228851E-1	-2.650103569E-1
1.546833841E1	-2.310121059E-2	-1.722974777E-1	-3.680782318E-1
1.547685206E1	2.410006523E-2	-1.720390320E-1	-4.558877945E-1
1.548494210E1	7.605445385E-2	-1.273097992E-1	-5.447549820E-1
1.549298014E1	8.929538727E-2	-3.283977509E-2	-6.140964031E-1
1.550105187E1	1.205849648E-1	2.095699310E-2	-6.692881584E-1
1.550890899E1	1.520910263E-1	4.166889191E-2	-6.913328171E-1
1.551683295E1	1.219948530E-1	-2.057838440E-2	-6.912345886E-1
1.552493007E1	8.365857601E-2	-1.366605759E-1	-6.489777565E-1
1.553309768E1	5.922496319E-2	-2.611780167E-1	-5.960767269E-1
1.554102445E1	2.810323238E-2	-3.371353149E-1	-5.269489288E-1
1.554913161E1	1.423573494E-2	-3.386783600E-1	-4.668495655E-1
1.555763968E1	-1.363754272E-2	-2.320747375E-1	-4.079236984E-1
1.556573037E1	-7.682621479E-2	-5.694580078E-2	-3.228740692E-1
1.557377318E1	-1.677381992E-1	7.948112488E-2	-2.367920876E-1
1.558182979E1	-2.551301718E-1	2.165632248E-1	-1.464719772E-1
1.558969068E1	-3.561975360E-1	3.950710297E-1	-8.993673325E-2
1.559760941E1	-3.725275397E-1	4.652719498E-1	-5.455732346E-2
1.560571722E1	-3.560991883E-1	3.487987518E-1	-3.396415710E-2
1.561386445E1	-3.141384125E-1	2.300081253E-1	5.946159363E-4
1.562185241E1	-1.829451323E-1	2.209949493E-1	-9.222984314E-3
1.562992864E1	-5.943357944E-2	3.144664764E-1	-6.089687347E-2
1.563843545E1	2.003395557E-2	4.410486221E-1	-1.325252056E-1
1.564654206E1	4.575431347E-2	5.315618515E-1	-1.945879459E-1
1.565457137E1	2.288031578E-2	5.911340714E-1	-2.246749401E-1
1.566262625E1	-2.990722656E-3	5.600795746E-1	-2.247228622E-1
1.567049160E1	-3.054499626E-3	4.315195084E-1	-1.938536167E-1
1.567834076E1	-1.551628113E-3	2.485389709E-1	-1.534767151E-1
1.568649553E1	6.622064114E-2	1.045780182E-1	-1.034176350E-1
1.569466657E1	1.066746712E-1	8.342456818E-2	-3.158521652E-2
1.570258345E1	1.365813017E-1	1.295089722E-1	1.108071804E-1
1.571068022E1	1.218035221E-1	2.427101135E-1	3.021237850E-1
1.571921514E1	6.967282295E-2	3.237028122E-1	4.716835022E-1
1.572730383E1	6.213581562E-2	2.998838425E-1	6.096417904E-1
1.573533964E1	4.968404770E-2	1.705303192E-1	7.157306671E-1
1.574340768E1	6.694555283E-2	6.516361237E-2	7.901706696E-1
1.575126534E1	1.039848328E-1	2.491760254E-2	8.344950676E-1
1.575923780E1	1.243070364E-1	5.158233643E-2	8.615415096E-1
1.576731307E1	1.085422039E-1	1.190128326E-1	8.194634914E-1
1.577542964E1	4.757964611E-2	1.899375916E-1	7.448832989E-1
1.578335007E1	-9.726405144E-3	2.604856491E-1	6.234667301E-1
1.579145407E1	-7.212305069E-2	3.072881699E-1	4.853157997E-1
1.579998052E1	-5.104827881E-2	3.016080856E-1	4.237692356E-1
1.580806879E1	9.649634361E-3	2.831983566E-1	3.906548023E-1
1.581611064E1	1.344721317E-1	2.656450272E-1	3.412852287E-1
1.582416425E1	2.170430422E-1	2.100858688E-1	2.935960293E-1
1.583200445E1	2.646410465E-1	1.576204300E-1	2.318744659E-1
1.583994457E1	3.008244038E-1	1.530370712E-1	1.638612747E-1
1.584801995E1	2.856870890E-1	2.037916183E-1	1.210906506E-1
1.585620057E1	2.608475685E-1	2.598571777E-1	1.110451221E-1
1.586413618E1	2.480676174E-1	2.925758362E-1	9.790515900E-2
1.587222426E1	2.163089514E-1	2.585954666E-1	1.000602245E-1
1.588073644E1	1.935324669E-1	1.601829529E-1	1.150643826E-1
1.588883910E1	1.932075024E-1	1.950931549E-2	1.511852741E-1
1.589686548E1	2.239642143E-1	-1.709432602E-1	1.695709229E-1
1.590492029E1	2.260308266E-1	-3.035640717E-1	1.985492706E-1
1.591276853E1	2.244126797E-1	-3.517189026E-1	1.929993629E-1
1.592069049E1	1.637430191E-1	-2.991466522E-1	1.875853539E-1
1.592885322E1	8.031451702E-2	-1.795215607E-1	1.242675781E-1
1.593695180E1	-1.570689678E-2	-5.259227753E-2	5.337858200E-2
1.594490368E1	-7.612752914E-2	-2.829170227E-2	-4.143953323E-2
1.595306310E1	-1.008926630E-1	-7.551860809E-2	-1.052012444E-1
1.596151344E1	-9.544277191E-2	-1.559305191E-1	-1.542921066E-1
1.596960341E1	-4.670619965E-2	-2.432270050E-1	-1.787052155E-1
1.597763987E1	-3.279209137E-3	-3.082952499E-1	-1.723434925E-1
1.598570956E1	1.014828682E-2	-3.125963211E-1	-1.390852928E-1
1.599354737E1	1.723361015E-2	-3.066139221E-1	-1.033091545E-1
1.600148122E1	1.831424236E-2	-2.737436295E-1	-7.034993172E-2
1.600960418E1	2.072286606E-2	-2.167282104E-1	-6.992912292E-2
1.601776672E1	6.048858166E-2	-9.770393372E-2	-8.651638031E-2
1.602567126E1	8.269393444E-2	5.684471130E-2	-1.349358559E-1
1.603374303E1	7.269465923E-2	1.798515320E-1	-1.672778130E-1
1.604226048E1	6.390833855E-2	2.906618118E-1	-2.260725498E-1
1.605034668E1	3.734922409E-2	3.200302124E-1	-2.773578167E-1
1.605838591E1	2.913880348E-2	2.301788330E-1	-3.221902847E-1
1.606643998E1	7.057607174E-2	7.179546356E-2	-3.523347378E-1
1.607429914E1	1.493602991E-1	-3.751754761E-2	-3.572714329E-1
1.608220230E1	2.461980581E-1	-2.605915070E-2	-3.204705715E-1
1.609030272E1	3.107780218E-1	9.122848511E-2	-2.530255318E-1
1.609848864E1	3.384760618E-1	2.897768021E-1	-2.021796703E-1
1.610643218E1	3.021227121E-1	5.255670547E-1	-1.592190266E-1
1.611209760E1	2.570034266E-1	6.527433395E-1	-1.524801254E-1
1.611452576E1	2.426382303E-1	6.790800095E-1	-1.524801254E-1
1.612302006E1	1.488867998E-1	6.951808929E-1	-1.298918724E-1
1.613112206E1	7.266807556E-2	5.408992767E-1	-1.600747108E-1
1.613914694E1	5.910515785E-2	2.478580475E-1	-2.175533772E-1
1.614719752E1	8.343970776E-2	-7.116508484E-2	-2.773218155E-1
1.615507314E1	1.216901541E-1	-2.240333557E-1	-3.017594814E-1
