"Time (s)"	"Acceleration x (m/s^2)"	"Acceleration y (m/s^2)"	"Acceleration z (m/s^2)"
3.974654000E-3	-3.696647406E0	4.378994942E0	6.457161903E0
6.920192000E-3	-3.696647406E0	4.355052948E0	6.370970726E0
9.703411000E-3	-3.694253206E0	4.347870350E0	6.330269337E0
1.110503900E-2	-3.691859007E0	4.347870350E0	6.320692539E0
1.377248800E-2	-3.689464808E0	4.350264549E0	6.323086739E0
1.547803900E-2	-3.675099611E0	4.347870350E0	6.354211330E0
1.779610300E-2	-3.663128614E0	4.352658749E0	6.397306919E0
1.899661500E-2	-3.655946016E0	4.357447147E0	6.426037312E0
2.185348800E-2	-3.608062029E0	4.350264549E0	6.519411087E0
2.345573100E-2	-3.572149038E0	4.347870350E0	6.603208065E0
2.588714200E-2	-3.533841610E0	4.352658749E0	6.706159115E0
2.709296200E-2	-3.490746021E0	4.357447147E0	6.825869083E0
2.994414200E-2	-3.447650433E0	4.359841347E0	6.950367451E0
3.174576900E-2	-3.394978046E0	4.369418144E0	7.089231014E0
3.399864200E-2	-3.339911461E0	4.374206543E0	7.228095055E0
3.517857700E-2	-3.284844637E0	4.357447147E0	7.359776020E0
3.805575700E-2	-3.220201254E0	4.328716755E0	7.501033783E0
3.966026900E-2	-3.150769472E0	4.297592163E0	7.649474621E0
4.189507700E-2	-3.090914488E0	4.273650169E0	7.797914982E0
4.328650000E-2	-3.057395458E0	4.288015366E0	7.955932140E0
4.614794900E-2	-3.016694069E0	4.297592163E0	8.130708694E0
4.739380800E-2	-2.944868088E0	4.254496574E0	8.295908928E0
5.024506500E-2	-2.851494312E0	4.194641590E0	8.439560890E0
5.147576900E-2	-2.750937700E0	4.149151325E0	8.576030731E0
5.433656500E-2	-2.671929121E0	4.118026733E0	8.705317497E0
5.595761500E-2	-2.604891539E0	4.089296341E0	8.839392662E0
5.838633400E-2	-2.545036316E0	4.060565948E0	8.971074104E0
5.957800000E-2	-2.492363930E0	4.029441357E0	9.097966194E0
6.244356500E-2	-2.437297344E0	3.988739967E0	9.215282440E0
6.405542300E-2	-2.394201756E0	3.955221176E0	9.330204010E0
6.647571900E-2	-2.355894566E0	3.926490784E0	9.435548782E0
6.765726900E-2	-2.315192938E0	3.902548790E0	9.531316757E0
7.053218000E-2	-2.279279947E0	3.885789394E0	9.617507935E0
7.224169200E-2	-2.226607561E0	3.883395195E0	9.742006302E0
7.459610300E-2	-2.209848166E0	3.885789394E0	9.773131371E0
7.576157700E-2	-2.166752577E0	3.885789394E0	9.818621635E0
7.865268000E-2	-2.133233786E0	3.885789394E0	9.842563629E0
8.024200000E-2	-2.078166962E0	3.861847401E0	9.844957352E0
8.243534600E-2	-2.061407566E0	3.852270603E0	9.840168953E0
8.386223100E-2	-2.008735180E0	3.835511208E0	9.825803757E0
8.675802600E-2	-1.946485996E0	3.823540211E0	9.809044838E0
8.820711500E-2	-1.838746905E0	3.794809580E0	9.775525093E0
9.081091100E-2	-1.754949808E0	3.763684988E0	9.744400978E0
9.197092300E-2	-1.680729628E0	3.725377798E0	9.703699112E0
9.486821900E-2	-1.604115129E0	3.687070608E0	9.662998199E0
9.644369200E-2	-1.529894829E0	3.653551817E0	9.624691010E0
9.890444900E-2	-1.460463047E0	3.622427225E0	9.598354340E0
1.000560770E-1	-1.405396342E0	3.593696833E0	9.576807022E0
1.029616800E-1	-1.359906554E0	3.560178041E0	9.560047150E0
1.045697310E-1	-1.321599364E0	3.519476414E0	9.538499832E0
1.070103340E-1	-1.295263171E0	3.485957623E0	9.514557838E0
1.081690770E-1	-1.285686255E0	3.445256233E0	9.514557838E0
1.110668720E-1	-1.304839969E0	3.378218651E0	9.519346237E0
1.127486920E-1	-1.345541358E0	3.315969467E0	9.526528358E0
1.151391150E-1	-1.393425345E0	3.265691042E0	9.552865028E0
1.163034620E-1	-1.431732655E0	3.224989653E0	9.586383820E0
1.191972570E-1	-1.465251446E0	3.179499865E0	9.622296333E0
1.207830770E-1	-1.498770237E0	3.145981073E0	9.658209801E0
1.229685380E-1	-1.537077546E0	3.110068083E0	9.691728592E0
1.243893850E-1	-1.584961534E0	3.069366693E0	9.708487511E0
1.272865650E-1	-1.640028119E0	3.023876667E0	9.725247383E0
1.285537690E-1	-1.697489023E0	2.983175278E0	9.739612579E0
1.313882180E-1	-1.750161409E0	2.944868088E0	9.756371498E0
1.325980000E-1	-1.795651317E0	2.901772499E0	9.775525093E0
1.354798340E-1	-1.848323703E0	2.887407303E0	9.794678688E0
1.371573080E-1	-1.932120800E0	2.916137695E0	9.792284966E0
1.395153720E-1	-1.896207690E0	2.868253708E0	9.775525093E0
1.406973460E-1	-1.522712231E0	2.535459518E0	9.586383820E0
1.435709880E-1	-1.074996591E0	2.240972757E0	9.205705643E0
1.451521540E-1	-1.242590666E0	2.516305923E0	8.889671326E0
1.476047180E-1	-1.309628367E0	2.540247917E0	8.820239067E0
1.487868080E-1	-1.364694953E0	2.398990154E0	8.757989883E0
1.516616410E-1	-1.412579060E0	2.157175779E0	8.841787338E0
1.533728080E-1	-1.599326730E0	1.874659896E0	9.200917244E0
1.557169880E-1	-1.685518026E0	1.826775908E0	9.358934402E0
1.568955380E-1	-1.805228114E0	1.764526606E0	9.662998199E0
1.597743340E-1	-1.788468719E0	1.692700624E0	1.005085850E1
1.613634610E-1	-1.690306425E0	1.661576033E0	1.021605873E1
1.635536920E-1	-1.592144132E0	1.668758631E0	1.026873112E1
1.649864610E-1	-1.561019540E0	1.788468719E0	1.017535686E1
1.678638340E-1	-1.546654344E0	1.939303398E0	1.003888798E1
1.693346920E-1	-1.374271750E0	1.924938202E0	9.998186111E0
1.719159870E-1	-1.182735682E0	1.798045516E0	1.010353088E1
1.730985380E-1	-1.211466074E0	1.680729628E0	1.035492229E1
1.759720640E-1	-1.417367458E0	1.589749932E0	1.068532181E1
1.775824230E-1	-1.687912226E0	1.537077546E0	1.101572227E1
1.800219490E-1	-1.956062794E0	1.522712231E0	1.126471901E1
1.811930770E-1	-2.185906172E0	1.522712231E0	1.136288166E1
1.840789870E-1	-2.365471363E0	1.527500629E0	1.131739140E1
1.856886920E-1	-2.509123325E0	1.539471745E0	1.117852783E1
1.881139100E-1	-2.621650934E0	1.565807939E0	1.099178028E1
1.893400770E-1	-2.719813108E0	1.637633920E0	1.080024433E1
1.921710260E-1	-2.817975283E0	1.754949808E0	1.067095661E1
1.938908460E-1	-2.856282711E0	1.867477298E0	1.061349583E1
1.962362570E-1	-2.825158119E0	1.963245392E0	1.058476543E1
1.974499230E-1	-2.731784105E0	2.035071373E0	1.052491093E1
2.002936800E-1	-2.585737944E0	2.087743998E0	1.044111347E1
2.019437310E-1	-2.415749550E0	2.138022184E0	1.035971069E1
2.041321150E-1	-2.226607561E0	2.181117773E0	1.026154804E1
2.056212310E-1	-2.025494576E0	2.209848166E0	1.015380955E1
2.083973720E-1	-1.821987510E0	2.226607561E0	1.002931118E1
2.097175770E-1	-1.596932530E0	2.229001760E0	9.871294022E0
2.124904490E-1	-1.367089152E0	2.233790159E0	9.706093788E0
2.137372310E-1	-1.156399369E0	2.243366957E0	9.540893555E0
2.165817570E-1	-9.552865028E-1	2.240972757E0	9.373299599E0
2.182268080E-1	-7.086837292E-1	2.250549555E0	9.174580574E0
2.206166030E-1	-6.392518282E-1	2.248155355E0	9.145850182E0
2.218436150E-1	-5.171475410E-1	2.219424963E0	9.136273384E0
2.246730640E-1	-4.022258818E-1	2.157175779E0	9.155426979E0
2.263291150E-1	-2.298433632E-1	2.032677174E0	9.078812599E0
2.287208720E-1	-1.771709323E-1	1.982398987E0	9.009381294E0
2.300557310E-1	-8.858546615E-2	1.872265697E0	8.825027466E0
2.327778720E-1	-7.182604820E-2	1.838746905E0	8.458714485E0
2.345454610E-1	-1.819593310E-1	1.965639591E0	8.212111473E0
2.368440640E-1	-3.160346150E-1	2.044648170E0	8.025363922E0
2.381353850E-1	-4.141969085E-1	2.042253971E0	7.908048153E0
2.409012950E-1	-4.668693244E-1	1.963245392E0	7.876923561E0
2.425770000E-1	-5.123591423E-1	1.836352706E0	7.891288757E0
2.447450770E-1	-5.698199868E-1	1.692700624E0	7.920019150E0
2.461461540E-1	-6.392518282E-1	1.556231141E0	7.955932140E0
2.489906030E-1	-6.991068721E-1	1.429338455E0	8.025363922E0
2.504894230E-1	-7.781155705E-1	1.331176162E0	8.173804283E0
2.530439100E-1	-9.026140571E-1	1.237802267E0	8.391676903E0
2.543082690E-1	-1.072602391E0	1.177947283E0	8.580819130E0
2.571002180E-1	-1.233013868E0	1.122880578E0	8.702922821E0
2.587410000E-1	-1.391031146E0	1.103726983E0	8.793902397E0
2.611346410E-1	-1.525106430E0	1.146822572E0	8.844181061E0
2.623818460E-1	-1.613691926E0	1.199495077E0	8.844181061E0
2.651906020E-1	-1.671152830E0	1.252167463E0	8.774748802E0
2.668426540E-1	-1.704671621E0	1.309628367E0	8.671798706E0
2.692234870E-1	-1.697489023E0	1.376665950E0	8.554482460E0
2.705186920E-1	-1.666364431E0	1.470039845E0	8.458714485E0
2.732791020E-1	-1.623268723E0	1.568202138E0	8.410830498E0
2.750421920E-1	-1.620874524E0	1.628057122E0	8.420407295E0
2.773332180E-1	-1.640028119E0	1.678335428E0	8.451532364E0
2.785545000E-1	-1.659181833E0	1.695094824E0	8.468291283E0
2.813888330E-1	-1.735796213E0	1.654393315E0	8.494627953E0
2.830266150E-1	-1.850717902E0	1.596932530E0	8.537723541E0
2.853910380E-1	-1.999158382E0	1.544260144E0	8.595184326E0
2.866411920E-1	-2.145204782E0	1.479616642E0	8.652645111E0
2.894776790E-1	-2.233790159E0	1.414973259E0	8.669404030E0
2.907672310E-1	-2.238578558E0	1.340752959E0	8.640673637E0
2.935714100E-1	-2.214636564E0	1.266532660E0	8.607154846E0
2.948145000E-1	-2.202665567E0	1.170764685E0	8.592789650E0
2.976617560E-1	-2.193088770E0	1.027112484E0	8.609549522E0
2.993718840E-1	-2.200271368E0	7.015010715E-1	8.655038834E0
3.017101410E-1	-2.207453966E0	5.698199868E-1	8.643068314E0
3.030527690E-1	-2.238578558E0	3.088520169E-1	8.556877136E0
3.057653330E-1	-2.329558372E0	-5.985504389E-2	8.391676903E0
3.074807310E-1	-2.391807556E0	-2.825157940E-1	8.353369713E0
3.097957950E-1	-2.461239338E0	-5.123591423E-1	8.355764389E0
3.110184610E-1	-2.578555346E0	-7.398083210E-1	8.346187592E0
3.138508720E-1	-2.767697096E0	-9.457096457E-1	8.269572258E0
3.155856540E-1	-2.949656487E0	-1.079784989E0	8.147468567E0
3.179147180E-1	-3.069366693E0	-1.103726983E0	8.034940720E0
3.191328080E-1	-3.148375273E0	-1.065419793E0	7.927201748E0
3.219699870E-1	-3.220201254E0	-1.031900883E0	7.812280178E0
3.236550770E-1	-3.327940464E0	-9.672574997E-1	7.740454197E0
3.257896150E-1	-3.440467834E0	-8.499416113E-1	7.730877399E0
3.272230770E-1	-3.541024208E0	-7.110779285E-1	7.785943985E0
3.300706410E-1	-3.641580820E0	-5.602431893E-1	7.927201748E0
3.315750380E-1	-3.744531393E0	-3.878606856E-1	8.130708694E0
3.341202180E-1	-3.809175014E0	-1.867477298E-1	8.324639320E0
3.353488080E-1	-3.854664803E0	1.436521020E-2	8.504204750E0
3.381756790E-1	-3.897760391E0	2.082955539E-1	8.686163902E0
3.398103460E-1	-3.943250179E0	4.165911078E-1	8.880094528E0
3.422098330E-1	-3.998316765E0	6.033388376E-1	9.078812599E0
3.434302690E-1	-4.082113743E0	7.661445141E-1	9.294290543E0
3.462656790E-1	-4.161122322E0	9.097966552E-1	9.504981041E0
3.479170000E-1	-4.230554581E0	1.022324085E0	9.703699112E0
3.503136020E-1	-4.304774761E0	1.110909581E0	9.907206535E0
3.515719230E-1	-4.388571739E0	1.197100878E0	1.010113716E1
3.543690640E-1	-4.479551315E0	1.271321058E0	1.029506683E1
3.561330000E-1	-4.611232281E0	1.367089152E0	1.060152531E1
3.584427180E-1	-4.654327869E0	1.395819545E0	1.069489861E1
3.596974230E-1	-4.738125324E0	1.462857246E0	1.088164711E1
3.624986020E-1	-4.795586109E0	1.522712231E0	1.109712505E1
3.641249610E-1	-4.800374508E0	1.575384736E0	1.142513084E1
3.664460000E-1	-4.783615112E0	1.570596337E0	1.152808094E1
3.677435380E-1	-4.757278919E0	1.561019540E0	1.174595356E1
3.705862170E-1	-4.819528103E0	1.541865945E0	1.210747814E1
3.718812310E-1	-4.886565685E0	1.572990537E0	1.282813263E1
3.746808710E-1	-4.817133904E0	1.685518026E0	1.373792934E1
3.759297310E-1	-4.632780075E0	1.726219416E0	1.418325043E1
3.787714870E-1	-4.074931145E0	1.491587639E0	1.399410915E1
3.804093460E-1	-3.414131641E0	1.249773264E0	1.365652657E1
3.828060250E-1	-2.695871115E0	1.053448796E0	1.328063679E1
3.840243070E-1	-2.126051188E0	9.481038451E-1	1.295741940E1
3.868623330E-1	-1.800439715E0	9.193734527E-1	1.273715305E1
3.887765380E-1	-1.699883223E0	9.552865028E-1	1.261265469E1
3.908951020E-1	-1.663970232E0	1.007958889E0	1.257913589E1
3.921116920E-1	-1.520318031E0	1.067813993E0	1.263899040E1
3.949512170E-1	-1.180341482E0	1.177947283E0	1.275151825E1
3.967758460E-1	-6.751648784E-1	1.362300754E0	1.289756489E1
3.990057560E-1	-9.337386489E-2	1.568202138E0	1.300051498E1
4.002844610E-1	5.793967843E-1	1.759738207E0	1.301488018E1
4.030616020E-1	1.340752959E0	1.922544003E0	1.301966858E1
4.047726540E-1	2.070984364E0	2.085349798E0	1.311783123E1
4.069703840E-1	2.612074137E0	2.231395960E0	1.328542519E1
4.082891920E-1	2.920926094E0	2.346317768E0	1.343865395E1
4.111487170E-1	3.265691042E0	2.408566952E0	1.345780754E1
4.126533840E-1	3.706224203E0	2.427720547E0	1.326627159E1
4.152435250E-1	4.127603531E0	2.442085743E0	1.294066048E1
4.164614610E-1	4.450820923E0	2.482787132E0	1.257913589E1
4.192991020E-1	4.582501888E0	2.525882721E0	1.221521664E1
4.210042690E-1	4.489128113E0	2.566584110E0	1.181299114E1
4.233477940E-1	4.228160381E0	2.566584110E0	1.126471901E1
4.247254230E-1	3.847482204E0	2.492363930E0	1.053927612E1
4.274038710E-1	3.397372246E0	2.403778553E0	9.830592155E0
4.290555000E-1	2.839523315E0	2.456450939E0	9.277531624E0
4.314361790E-1	2.142810583E0	2.683900118E0	8.963891029E0
4.328926920E-1	1.417367458E0	2.990357876E0	8.911218643E0
4.354919860E-1	8.140285611E-1	3.284844637E0	9.033323288E0
4.372598460E-1	2.513911724E-1	3.641580820E0	9.184157372E0
4.395565630E-1	1.651999205E-1	3.722983599E0	9.184157372E0
4.409107690E-1	1.556231081E-1	3.813963413E0	9.085995674E0
4.436129090E-1	3.663128614E-1	3.801992416E0	8.904036522E0
4.452611920E-1	1.034295082E0	3.596091032E0	8.611943245E0
4.474833840E-1	1.307234168E0	3.493140221E0	8.506598473E0
4.488956920E-1	1.872265697E0	3.272873640E0	8.286332130E0
4.517157940E-1	2.401384354E0	3.078943491E0	8.068459511E0
4.531984230E-1	3.047818661E0	2.870647907E0	7.776367188E0
4.557730630E-1	3.361459255E0	2.803610086E0	7.623138428E0
4.570378070E-1	3.593696833E0	2.779668093E0	7.539340973E0
4.598290250E-1	3.758896589E0	2.791639090E0	7.515398979E0
4.615947310E-1	3.876212597E0	2.829946518E0	7.534552574E0
4.638671400E-1	3.957615376E0	2.880224705E0	7.580042362E0
4.651313840E-1	4.007893562E0	2.935291290E0	7.661445618E0
4.679234480E-1	4.031835556E0	2.975992680E0	7.769184589E0
4.702037690E-1	4.034229755E0	2.992752075E0	7.999027729E0
4.719576790E-1	4.024652958E0	2.983175278E0	8.082824707E0
4.739031920E-1	3.981557369E0	2.937685490E0	8.279149055E0
4.760139480E-1	3.938461781E0	2.849100113E0	8.530540466E0
4.777673460E-1	3.943250179E0	2.662352324E0	8.836998940E0
4.800781400E-1	3.988739967E0	2.420537949E0	9.184157372E0
4.816666540E-1	4.036623955E0	2.219424963E0	9.550470352E0
4.841346020E-1	4.103661537E0	2.092532396E0	9.897629738E0
4.858142300E-1	4.204218388E0	2.044648170E0	1.019211674E1
4.880001920E-1	4.321534157E0	2.049436569E0	1.039801788E1
4.893786540E-1	4.446032524E0	2.063801765E0	1.052012253E1
4.922229090E-1	4.568136692E0	2.090138197E0	1.057518864E1
4.937420770E-1	4.704606533E0	2.138022184E0	1.054885292E1
4.962470250E-1	4.893748283E0	2.176329374E0	1.045787334E1
4.974596540E-1	5.137956619E0	2.193088770E0	1.034055710E1
5.003028320E-1	5.434837818E0	2.195482969E0	1.022563553E1
5.020992690E-1	5.736507416E0	2.214636564E0	1.010831928E1
5.043371780E-1	5.990292549E0	2.245761156E0	9.988609314E0
5.057493070E-1	6.203376770E0	2.293645144E0	9.871294022E0
5.083928320E-1	6.406883717E0	2.370259762E0	9.780313492E0
5.101934230E-1	6.581660271E0	2.487575531E0	9.715670586E0
5.124240630E-1	6.677428722E0	2.688688517E0	9.651026726E0
5.137017300E-1	6.689399719E0	2.992752075E0	9.557653427E0
5.164799090E-1	6.634333134E0	3.342305660E0	9.447520256E0
5.182913840E-1	6.452373505E0	3.763684988E0	9.291896820E0
5.205340250E-1	6.361393929E0	3.873818398E0	9.263166428E0
5.219127300E-1	6.167463779E0	4.058171749E0	9.217676163E0
5.245897550E-1	5.995080948E0	4.180276394E0	9.150638580E0
5.262069610E-1	5.861005783E0	4.230554581E0	8.954314232E0
5.285665770E-1	5.846640587E0	4.213795185E0	8.848969460E0
5.298329610E-1	5.820304394E0	4.153939724E0	8.604761124E0
5.326797940E-1	5.767632008E0	4.072536945E0	8.343792915E0
5.340855380E-1	5.712565422E0	3.969586372E0	8.082824707E0
5.367764860E-1	5.664681435E0	3.766079187E0	7.709329605E0
5.380581540E-1	5.635950565E0	3.533841610E0	7.556100368E0
5.408676010E-1	5.592854977E0	3.280056238E0	7.422025204E0
5.425690000E-1	5.542576790E0	3.050212860E0	7.225700855E0
5.449184090E-1	5.475539207E0	2.837129116E0	6.976703644E0
5.462065380E-1	5.396530628E0	2.647987127E0	6.706159115E0
5.489748320E-1	5.307945251E0	2.504334927E0	6.464344501E0
5.507344610E-1	5.193023682E0	2.410961151E0	6.268020153E0
5.530063320E-1	5.039794445E0	2.384624958E0	6.131550789E0
5.543430000E-1	4.845864296E0	2.430114746E0	6.050147533E0
5.570624480E-1	4.639962673E0	2.518700123E0	5.990292549E0
5.589565000E-1	4.469974518E0	2.624045134E0	5.935225964E0
5.611260630E-1	4.376600742E0	2.731784105E0	5.884947777E0
5.624323840E-1	4.388571739E0	2.851494312E0	5.829881191E0
5.651821400E-1	4.450820923E0	2.975992680E0	5.750872612E0
5.669501540E-1	4.501099110E0	3.112462282E0	5.674258232E0
5.690119230E-1	4.508281708E0	3.258508444E0	5.607220173E0
5.704438840E-1	4.462791920E0	3.409343243E0	5.549759388E0
5.732861400E-1	4.369418144E0	3.562572241E0	5.499481201E0
5.747966530E-1	4.268861771E0	3.708618402E0	5.449203014E0
5.773394860E-1	4.175487995E0	3.828328609E0	5.394136429E0
5.785485380E-1	4.110844135E0	3.904942989E0	5.346252441E0
5.813948710E-1	4.084507942E0	3.926490784E0	5.312733650E0
5.830275770E-1	4.168305397E0	3.876212597E0	5.245696068E0
5.854294090E-1	4.228160381E0	3.845088005E0	5.214571476E0
5.868561150E-1	4.374206543E0	3.768473387E0	5.140350819E0
5.894854470E-1	4.515464306E0	3.694253206E0	5.102043629E0
5.917396920E-1	4.673481941E0	3.634398222E0	5.090072632E0
5.935183700E-1	4.704606533E0	3.624821424E0	5.082890034E0
5.948180770E-1	4.733336926E0	3.627215624E0	5.061342239E0
5.975753320E-1	4.733336926E0	3.670311213E0	5.066130638E0
5.993191920E-1	4.704606533E0	3.766079187E0	5.075707436E0
6.016498700E-1	4.695029736E0	3.809175014E0	5.070919037E0
6.030611150E-1	4.683058739E0	3.890577793E0	5.049371243E0
6.057061400E-1	4.692635536E0	3.974374771E0	5.039794445E0
6.073124230E-1	4.742913723E0	4.129997730E0	5.051765442E0
6.095121150E-1	4.814739704E0	4.185064793E0	5.046977043E0
6.109682690E-1	4.900930882E0	4.199429989E0	5.025429249E0
6.137951780E-1	4.994304657E0	4.206612587E0	4.996698856E0
6.151039610E-1	5.058948040E0	4.218583584E0	4.979939461E0
6.178913700E-1	5.075707436E0	4.235342979E0	4.989516258E0
6.191715770E-1	5.058948040E0	4.264073372E0	5.008669853E0
6.219826780E-1	5.003881454E0	4.297592163E0	5.018246651E0
6.236544610E-1	4.924872875E0	4.311957359E0	5.020640850E0
6.260162550E-1	4.845864296E0	4.309563160E0	5.035006046E0
6.272318840E-1	4.795586109E0	4.285621166E0	5.049371243E0
6.300717160E-1	4.764461517E0	4.244919777E0	5.049371243E0
6.316972300E-1	4.764461517E0	4.182670593E0	5.061342239E0
6.341035240E-1	4.778826714E0	4.120420933E0	5.070919037E0
6.354300000E-1	4.778826714E0	4.072536945E0	5.087678432E0
6.381595630E-1	4.776432514E0	4.036623955E0	5.104437828E0
6.399129230E-1	4.778826714E0	4.015076160E0	5.106832027E0
6.422134860E-1	4.786009312E0	4.000710964E0	5.092466831E0
6.434515380E-1	4.824316502E0	3.988739967E0	5.030217648E0
6.462700630E-1	4.876988888E0	3.976768970E0	4.922478676E0
6.480707300E-1	4.903325081E0	3.993528366E0	4.814739704E0
6.501288070E-1	4.898536682E0	4.046200752E0	4.718971729E0
6.515266530E-1	4.857835293E0	4.118026733E0	4.630385876E0
6.543588700E-1	4.786009312E0	4.187458992E0	4.513070107E0
6.558962300E-1	4.711789131E0	4.254496574E0	4.378994942E0
6.584379090E-1	4.678270340E0	4.311957359E0	4.242525578E0
6.596319610E-1	4.692635536E0	4.347870350E0	4.108449936E0
6.624944860E-1	4.726154327E0	4.378994942E0	3.974374771E0
6.641370380E-1	4.807557106E0	4.405331135E0	3.725377798E0
6.665446780E-1	4.845864296E0	4.407725334E0	3.624821424E0
6.677559610E-1	4.951209068E0	4.400542736E0	3.373430252E0
6.706016390E-1	5.099649429E0	4.378994942E0	3.083731890E0
6.723347300E-1	5.351040840E0	4.374206543E0	2.717418909E0
6.746359090E-1	5.434837818E0	4.393360138E0	2.638410330E0
6.758500770E-1	5.580883980E0	4.453215122E0	2.533065319E0
6.786925240E-1	5.679046631E0	4.527435303E0	2.487575531E0
6.804121530E-1	5.734113216E0	4.654327869E0	2.523488522E0
6.827573700E-1	5.753266811E0	4.738125324E0	2.609679937E0
6.840195380E-1	5.781997204E0	4.817133904E0	2.734178305E0
6.868140240E-1	5.815515995E0	4.891354084E0	2.880224705E0
6.885875000E-1	5.846640587E0	4.965574265E0	3.028665066E0
6.907246150E-1	5.865794182E0	5.035006046E0	3.177105665E0
6.922080760E-1	5.875370979E0	5.094861031E0	3.335123062E0
6.949182160E-1	5.870582581E0	5.133168221E0	3.483563423E0
6.962354230E-1	5.856217384E0	5.145139217E0	3.624821424E0
6.990142930E-1	5.820304394E0	5.145139217E0	3.768473387E0
7.002756920E-1	5.758055210E0	5.130774021E0	3.926490784E0
7.031056780E-1	5.700594425E0	5.094861031E0	4.074931145E0
7.047628070E-1	5.691017628E0	5.042188644E0	4.194641590E0
7.071406390E-1	5.750872612E0	4.970362663E0	4.290409565E0
7.083415760E-1	5.863399982E0	4.881777287E0	4.371812344E0
7.111972160E-1	6.004657745E0	4.766855717E0	4.453215122E0
7.129330000E-1	6.126761913E0	4.651933670E0	4.546588898E0
7.152457930E-1	6.227318764E0	4.556165695E0	4.656722069E0
7.167094230E-1	6.308721542E0	4.486733913E0	4.738125324E0
7.193022160E-1	6.394912720E0	4.431667328E0	4.764461517E0
7.210560000E-1	6.567295074E0	4.357447147E0	4.750096321E0
7.233669470E-1	6.643909931E0	4.331110954E0	4.742913723E0
7.247155000E-1	6.830657482E0	4.266467571E0	4.742913723E0
7.274231010E-1	7.003039837E0	4.237737179E0	4.819528103E0
7.290878840E-1	7.175422668E0	4.237737179E0	5.008669853E0
7.314579080E-1	7.225700855E0	4.218583584E0	5.049371243E0
7.332597690E-1	7.357381821E0	4.177882195E0	5.102043629E0
7.355139850E-1	7.534552574E0	4.175487995E0	5.094861031E0
7.371105380E-1	7.814674377E0	4.261679173E0	4.979939461E0
7.395451390E-1	7.893682957E0	4.299986362E0	4.929661274E0
7.408542690E-1	8.032546997E0	4.378994942E0	4.855441093E0
7.436007930E-1	8.154650688E0	4.467580318E0	4.836287498E0
7.452150760E-1	8.305485725E0	4.611232281E0	4.910507679E0
7.476353310E-1	8.343792915E0	4.659116745E0	4.965574265E0
7.488403460E-1	8.374917984E0	4.771644115E0	5.061342239E0
7.516919850E-1	8.350975990E0	4.874594688E0	5.102043629E0
7.533283460E-1	8.410830498E0	4.922478676E0	4.953603268E0
7.557255240E-1	8.458714485E0	4.912901878E0	4.742913723E0
7.569965380E-1	8.293514252E0	4.967968464E0	4.596867085E0
7.597818310E-1	7.994239330E0	5.080495834E0	4.577713490E0
7.625964230E-1	7.623138428E0	5.202600479E0	4.400542736E0
7.648707540E-1	7.453149796E0	5.252878666E0	4.335899353E0
7.661430000E-1	7.256825447E0	5.298368454E0	4.220977783E0
7.689627540E-1	6.947973251E0	5.331887245E0	4.041412354E0
7.707888460E-1	6.524199486E0	5.339069843E0	3.833117008E0
7.727794230E-1	6.016628742E0	5.370194435E0	3.368641853E0
7.742468070E-1	5.492298603E0	5.401319027E0	2.882618904E0
7.770505620E-1	5.075707436E0	5.406107426E0	2.552218914E0
7.785330000E-1	4.774038315E0	5.396530628E0	2.219424963E0
7.811692540E-1	4.546588898E0	5.384559631E0	1.824381709E0
7.824600000E-1	4.407725334E0	5.348646641E0	1.441309452E0
7.852599850E-1	4.316745758E0	5.307945251E0	1.084573388E0
7.870110380E-1	4.223371983E0	5.286397457E0	8.523358107E-1
7.893092540E-1	4.139574528E0	5.305551052E0	7.996633649E-1
7.906476920E-1	4.084507942E0	5.372588634E0	9.385270476E-1
7.933645240E-1	4.070142746E0	5.470750809E0	1.187524080E0
7.953959610E-1	4.115632534E0	5.576095581E0	1.472434044E0
7.973969470E-1	4.273650169E0	5.650316238E0	1.747767210E0
7.986401920E-1	4.465186119E0	5.695806026E0	1.781286120E0
8.014518310E-1	4.673481941E0	5.719748020E0	1.711854219E0
8.031688840E-1	5.109226227E0	5.750872612E0	1.774103403E0
8.055163310E-1	5.252878666E0	5.746084213E0	1.824381709E0
8.067257300E-1	5.528211594E0	5.714959621E0	1.922544003E0
8.095721000E-1	5.779603004E0	5.686229229E0	2.030282974E0
8.111959230E-1	6.093243122E0	5.640739441E0	2.200271368E0
8.134508840E-1	6.198588371E0	5.616796970E0	2.252943754E0
8.150365760E-1	6.411672115E0	5.542576790E0	2.322375536E0
8.176736770E-1	6.629544735E0	5.449203014E0	2.346317768E0
8.192501530E-1	6.950367451E0	5.300762653E0	2.245761156E0
8.217696000E-1	7.134721279E0	5.209783077E0	2.149993181E0
8.233179230E-1	7.302315235E0	5.135562420E0	2.039859772E0
8.258257160E-1	7.419631004E0	5.082890034E0	1.886630893E0
8.274474610E-1	7.469909191E0	5.066130638E0	1.668758631E0
8.298603700E-1	7.477091789E0	5.099649429E0	1.434126854E0
8.310884610E-1	7.481880188E0	5.176264286E0	1.247379065E0
8.339166000E-1	7.513004780E0	5.267243862E0	1.175553083E0
8.356652300E-1	7.589619160E0	5.339069843E0	1.240196466E0
8.379647930E-1	7.718906403E0	5.379771233E0	1.386242747E0
8.391780380E-1	7.874529362E0	5.391742229E0	1.529894829E0
8.420214080E-1	8.027758598E0	5.377377033E0	1.659181833E0
8.437561150E-1	8.233659744E0	5.329493046E0	1.831564307E0
8.460957930E-1	8.432378769E0	5.274426460E0	1.860294700E0
8.473008840E-1	8.554482460E0	5.219359875E0	1.735796213E0
8.501525620E-1	8.688557625E0	5.169081688E0	1.596932530E0
8.518032690E-1	8.813055992E0	5.123591423E0	1.443703651E0
8.539581530E-1	8.856152534E0	5.087678432E0	1.242590666E0
8.555099990E-1	8.868123055E0	5.075707436E0	1.048660398E0
8.582421390E-1	8.839392662E0	5.063736439E0	9.074024558E-1
8.596069230E-1	8.695740700E0	5.078101635E0	8.523358107E-1
8.623441770E-1	8.439560890E0	5.133168221E0	7.996633649E-1
8.635871530E-1	8.164227486E0	5.224148273E0	7.422025204E-1
8.664348690E-1	7.927201748E0	5.327098846E0	7.062895298E-1
8.680533840E-1	7.587224960E0	5.518634796E0	6.081272364E-1
8.704709460E-1	7.462726593E0	5.585672379E0	5.386953950E-1
8.716960760E-1	7.256825447E0	5.712565422E0	3.902548850E-1
8.745269460E-1	7.113173485E0	5.827486992E0	2.346317619E-1
8.761696530E-1	6.924031258E0	5.987898350E0	-3.112462163E-2
8.785586770E-1	6.852205276E0	6.042964935E0	-1.173158810E-1
8.797728070E-1	6.708553314E0	6.153098583E0	-2.537853718E-1
8.826144460E-1	6.560112476E0	6.236895561E0	-3.519476354E-1
8.844524990E-1	6.277596951E0	6.337451935E0	-4.596867263E-1
8.866687920E-1	6.165069580E0	6.361393929E0	-4.692635238E-1
8.878649990E-1	5.949591160E0	6.397306919E0	-4.668693244E-1
8.907246770E-1	5.655104637E0	6.426037312E0	-4.165911078E-1
8.924178070E-1	5.509057999E0	6.430825710E0	-3.639186621E-1
8.945685380E-1	5.410895824E0	6.423643112E0	-2.944868207E-1
8.959488460E-1	5.353435040E0	6.416460514E0	-2.011129409E-1
8.988121000E-1	5.343858242E0	6.390124321E0	-1.316810995E-1
9.002991920E-1	5.374982834E0	6.356605530E0	-1.053448766E-1
9.028639850E-1	5.434837818E0	6.323086739E0	-7.422025502E-2
9.041643840E-1	5.530605793E0	6.287173748E0	-2.633621916E-2
9.069195230E-1	5.652710438E0	6.263231754E0	1.436521020E-2
9.086621530E-1	5.793968201E0	6.244078159E0	9.816227108E-2
9.109689460E-1	5.944802761E0	6.224924564E0	2.442085743E-1
9.122223070E-1	6.112396717E0	6.191405773E0	4.285621047E-1
9.150245620E-1	6.277596951E0	6.141127586E0	6.009446383E-1
9.167689990E-1	6.411672115E0	6.086060524E0	7.613561153E-1
9.190585230E-1	6.538564682E0	6.019022942E0	8.906430602E-1
9.203568070E-1	6.667851925E0	5.937620163E0	9.840168953E-1
9.231144460E-1	6.801927090E0	5.841852188E0	1.019929886E0
9.248785760E-1	6.950367451E0	5.748478413E0	1.012747288E0
9.271785610E-1	7.103596210E0	5.650316238E0	9.959878922E-1
9.284153070E-1	7.244854450E0	5.554547787E0	9.816226959E-1
9.312338310E-1	7.371747017E0	5.482721806E0	9.768342972E-1
9.329598070E-1	7.498639584E0	5.434837818E0	1.027112484E0
9.351631530E-1	7.635109425E0	5.420472622E0	1.144428372E0
9.364781150E-1	7.783549786E0	5.420472622E0	1.321599364E0
9.393378690E-1	7.972691536E0	5.422866821E0	1.544260144E0
9.406718460E-1	8.209717751E0	5.434837818E0	1.790862918E0
9.434289080E-1	8.487444878E0	5.473145008E0	2.073378563E0
9.447323460E-1	8.798690796E0	5.552153587E0	2.367865562E0
9.475201000E-1	9.131484985E0	5.635950565E0	2.626439333E0
9.491201530E-1	9.586383820E0	5.748478413E0	2.844311714E0
9.515534840E-1	9.710882187E0	5.777208805E0	2.877830505E0
9.528132690E-1	9.888052940E0	5.820304394E0	2.863465309E0
9.556087920E-1	9.995792389E0	5.837063789E0	2.767697096E0
9.574251920E-1	1.012986755E1	5.851428986E0	2.681505919E0
9.596572540E-1	1.017296314E1	5.856217384E0	2.664746523E0
9.609604610E-1	1.026394272E1	5.872976780E0	2.645592928E0
9.637119080E-1	1.039083576E1	5.918466568E0	2.607285738E0
9.654754220E-1	1.045547867E1	5.942408562E0	2.573766708E0
9.677791000E-1	1.047942066E1	5.966350555E0	2.516305923E0
9.689820760E-1	1.046984386E1	5.973533154E0	2.468421936E0
9.718341380E-1	1.044350815E1	5.963956356E0	2.422932148E0
9.735008460E-1	1.039322948E1	5.923254967E0	2.351106167E0
9.756346150E-1	1.030224991E1	5.856217384E0	2.238578558E0
9.770803460E-1	1.015620327E1	5.779603004E0	2.123656988E0
9.799229070E-1	9.952696800E0	5.693411827E0	2.006340981E0
9.814376530E-1	9.734824181E0	5.600037575E0	1.891419291E0
9.839769840E-1	9.536105156E0	5.511452198E0	1.774103403E0
9.852238070E-1	9.363722801E0	5.413290024E0	1.651999116E0
9.880329460E-1	9.217676163E0	5.324704647E0	1.551442742E0
9.900019990E-1	9.064447403E0	5.243301868E0	1.482010841E0
9.920669460E-1	8.901641846E0	5.169081688E0	1.441309452E0
9.933079990E-1	8.731653214E0	5.097255230E0	1.441309452E0
9.961227920E-1	8.537723541E0	5.023035049E0	1.498770237E0
9.978085380E-1	8.341399193E0	4.955997467E0	1.599326730E0
1.000154407E0	8.147468567E0	4.900930882E0	1.726219416E0
1.001416730E0	7.977479935E0	4.843470097E0	1.872265697E0
1.004209792E0	7.831433773E0	4.809951305E0	2.027888775E0
1.005998038E0	7.706935406E0	4.786009312E0	2.157175779E0
1.008263484E0	7.596801758E0	4.776432514E0	2.250549555E0
1.009499422E0	7.496245384E0	4.776432514E0	2.322375536E0
1.012320138E0	7.407660007E0	4.762067318E0	2.372653961E0
1.013960038E0	7.335834026E0	4.728548527E0	2.396595955E0
1.016130884E0	7.266402245E0	4.668693542E0	2.389413357E0
1.017569345E0	7.091625214E0	4.486733913E0	2.264914751E0
1.020408253E0	6.986280441E0	4.321534157E0	2.154781580E0
1.021713499E0	7.029376030E0	4.232948780E0	2.166752577E0
1.024504215E0	7.158663273E0	4.163516521E0	2.255337954E0
1.025951269E0	7.345410824E0	4.089296341E0	2.375048161E0
1.028595215E0	7.553706169E0	4.003105164E0	2.482787132E0
1.030232884E0	7.869740963E0	3.876212597E0	2.612074137E0
1.032643600E0	7.975085735E0	3.833117008E0	2.647987127E0
1.033974730E0	8.188169479E0	3.751713991E0	2.700659513E0
1.036699215E0	8.480262756E0	3.636792421E0	2.753331900E0
1.038375307E0	8.643068314E0	3.552995205E0	2.779668093E0
1.040732138E0	8.791508675E0	3.459621429E0	2.774879694E0
1.041936153E0	8.925583839E0	3.351882458E0	2.724601507E0
1.044788176E0	9.026140213E0	3.244143248E0	2.624045134E0
1.046595576E0	9.093177795E0	3.129221678E0	2.497152328E0
1.048852253E0	9.126696587E0	3.016694069E0	2.348711967E0
1.050101384E0	9.138668060E0	2.920926094E0	2.190694571E0
1.052908292E0	9.157821655E0	2.820369720E0	2.023100376E0
1.054551692E0	9.203310966E0	2.712630510E0	1.862688899E0
1.056721538E0	9.277531624E0	2.619256735E0	1.735796213E0
1.058153653E0	9.370905876E0	2.533065319E0	1.659181833E0
1.061011176E0	9.514557838E0	2.456450939E0	1.656787634E0
1.062512653E0	9.715670586E0	2.398990154E0	1.714248419E0
1.065062753E0	9.931148529E0	2.367865562E0	1.800439715E0
1.066281807E0	1.013226128E1	2.353500366E0	1.889025092E0
1.069118599E0	1.031182671E1	2.358288765E0	1.980004787E0
1.070818807E0	1.045547867E1	2.384624958E0	2.056619167E0
1.073153792E0	1.055124664E1	2.420537949E0	2.118868589E0
1.074473538E0	1.061828423E1	2.461239338E0	2.185906172E0
1.077209792E0	1.064940929E1	2.506729126E0	2.250549555E0
1.079012999E0	1.063983250E1	2.557007313E0	2.315192938E0
1.081256869E0	1.061110210E1	2.631227732E0	2.355894566E0
1.082574807E0	1.057997704E1	2.715024710E0	2.375048161E0
1.085312215E0	1.053927612E1	2.798821688E0	2.389413357E0
1.087028538E0	1.048899746E1	2.928108692E0	2.401384354E0
1.089387215E0	1.048181534E1	2.966415882E0	2.396595955E0
1.090626769E0	1.046745014E1	3.035847664E0	2.387019157E0
1.093442869E0	1.043632507E1	3.088520288E0	2.377442360E0
1.095093153E0	1.039562416E1	3.138798475E0	2.329558372E0
1.097310615E0	1.037647057E1	3.150769472E0	2.308010340E0
1.098696384E0	1.030703831E1	3.162740469E0	2.274491549E0
1.101533484E0	1.020169353E1	3.160346270E0	2.257732153E0
1.102943230E0	1.007240677E1	3.148375273E0	2.250549555E0
1.105636984E0	9.919178009E0	3.126827478E0	2.245761156E0
1.106857499E0	9.591172218E0	3.086126089E0	2.272097349E0
1.109728061E0	9.334992409E0	3.066972494E0	2.331952572E0
1.111397384E0	9.076418877E0	3.050212860E0	2.403778553E0
1.113762099E0	8.820239067E0	3.031059265E0	2.475604534E0
1.115422422E0	8.580819130E0	3.014299870E0	2.549824715E0
1.117818407E0	8.396465302E0	3.007117271E0	2.609679937E0
1.119479807E0	8.281543732E0	3.009511471E0	2.628833532E0
1.121850215E0	8.236053467E0	2.999934673E0	2.580949545E0
1.123138653E0	8.231265068E0	2.973598480E0	2.473210335E0
1.125905868E0	8.259995461E0	2.942473888E0	2.339135170E0
1.127663807E0	8.336610794E0	2.940079689E0	2.207453966E0
1.129960291E0	8.475474358E0	2.944868088E0	2.106897593E0
1.131161576E0	8.681375504E0	2.932897091E0	2.075772762E0
1.134016022E0	8.930372238E0	2.904166698E0	2.106897593E0
1.135640961E0	9.198522568E0	2.851494312E0	2.181117773E0
1.137825307E0	9.461885452E0	2.772485495E0	2.312798738E0
1.139272845E0	9.684545517E0	2.681505919E0	2.504334927E0
1.142105022E0	9.856928825E0	2.573766708E0	2.738966703E0
1.143735461E0	9.986215591E0	2.470816135E0	2.987963676E0
1.146135368E0	1.007958889E1	2.370259762E0	3.234566450E0
1.147332384E0	1.013465595E1	2.274491549E0	3.466804028E0
1.150191599E0	1.017775154E1	2.173935175E0	3.672705412E0
1.151840884E0	1.021845245E1	2.075772762E0	3.840299606E0
1.154243407E0	1.025675964E1	1.977610588E0	3.933673382E0
1.155500845E0	1.030464458E1	1.881842494E0	3.895366192E0
1.158300138E0	1.034295177E1	1.795651317E0	3.739742994E0
1.159918538E0	1.034295177E1	1.714248419E0	3.536235809E0
1.162333484E0	1.029985619E1	1.640028119E0	3.320757866E0
1.163525692E0	1.020169353E1	1.563413739E0	3.129221678E0
1.166390253E0	1.007240677E1	1.484405041E0	2.983175278E0
1.168094499E0	9.825803757E0	1.381454349E0	2.844311714E0
1.170455022E0	9.734824181E0	1.347935557E0	2.808398485E0
1.171674499E0	9.560047150E0	1.290474772E0	2.748543501E0
1.174511791E0	9.409213066E0	1.249773264E0	2.695871115E0
1.176688115E0	9.253589630E0	1.244984865E0	2.590526342E0
1.178328884E0	9.224859238E0	1.259350061E0	2.554613113E0
1.179758076E0	9.191340446E0	1.312022567E0	2.494758129E0
1.182602368E0	9.200917244E0	1.395819545E0	2.475604534E0
1.183902499E0	9.258378029E0	1.503558636E0	2.485181332E0
1.186699330E0	9.392453194E0	1.680729628E0	2.537853718E0
1.187924999E0	9.483432770E0	1.810016513E0	2.592920542E0
1.190790022E0	9.569623947E0	1.941697598E0	2.636016130E0
1.192390192E0	9.655815125E0	2.068590164E0	2.647987127E0
1.194823753E0	9.749189377E0	2.178723574E0	2.619256735E0
1.196045538E0	9.832986832E0	2.276885748E0	2.552218914E0
1.198880253E0	9.904812813E0	2.348711967E0	2.463633537E0
1.200527307E0	9.962273598E0	2.389413357E0	2.377442360E0
1.202926984E0	1.001733971E1	2.410961151E0	2.300827742E0
1.204192538E0	1.006282997E1	2.434903145E0	2.217030764E0
1.206983291E0	1.009156036E1	2.442085743E0	2.138022184E0
1.208822115E0	1.011071396E1	2.420537949E0	2.056619167E0
1.211047791E0	1.012268448E1	2.389413357E0	1.989581585E0
1.212304615E0	1.013944435E1	2.358288765E0	1.929726601E0
1.215103483E0	1.017535686E1	2.322375536E0	1.891419291E0
1.216880884E0	1.022324085E1	2.284068346E0	1.881842494E0
1.218995461E0	1.028070164E1	2.224213362E0	1.884236693E0
1.220353538E0	1.031661510E1	2.161964178E0	1.884236693E0
1.223191022E0	1.032858658E1	2.116474390E0	1.874659896E0
1.224734999E0	1.031900978E1	2.140416384E0	1.853112102E0
1.227227368E0	1.028309631E1	2.193088770E0	1.817199111E0
1.228419576E0	1.024478912E1	2.226607561E0	1.757344007E0
1.231283060E0	1.021366405E1	2.243366957E0	1.683123827E0
1.233040691E0	1.022802925E1	2.231395960E0	1.592144132E0
1.235317330E0	1.027351952E1	2.209848166E0	1.496376038E0
1.236700922E0	1.035492229E1	2.181117773E0	1.374271750E0
1.239373060E0	1.046266174E1	2.152387381E0	1.259350061E0
1.241164191E0	1.062067890E1	2.128445387E0	1.103726983E0
1.243405483E0	1.066856289E1	2.118868589E0	1.043871999E0
1.244808653E0	1.076433086E1	2.087743998E0	9.409212470E-1
1.247461291E0	1.086728191E1	2.047042370E0	8.858546019E-1
1.249239961E0	1.103248119E1	1.972822189E0	9.385270476E-1
1.251515291E0	1.109712505E1	1.941697598E0	9.911994934E-1
1.252720691E0	1.125274754E1	1.872265697E0	1.089361787E0
1.255570791E0	1.142034245E1	1.802833915E0	1.156399369E0
1.257182730E0	1.164300251E1	1.666364431E0	1.204283476E0
1.259416999E0	1.169567490E1	1.628057122E0	1.209071875E0
1.260911807E0	1.176510715E1	1.563413739E0	1.218648672E0
1.263658676E0	1.182017422E1	1.419761658E0	1.242590666E0
1.265121345E0	1.184172153E1	1.312022567E0	1.278503656E0
1.267776753E0	1.185369301E1	1.194706678E0	1.314416766E0
1.269206730E0	1.186326981E1	1.065419793E0	1.350329757E0
1.271868252E0	1.187763500E1	9.433154464E-1	1.381454349E0
1.273515038E0	1.188481712E1	8.643068075E-1	1.393425345E0
1.275918176E0	1.188721180E1	7.996633649E-1	1.448492050E0
1.277131153E0	1.188721180E1	7.374141216E-1	1.496376038E0
1.279974291E0	1.189678860E1	6.727706790E-1	1.551442742E0
1.281711538E0	1.190157700E1	6.105214357E-1	1.584961534E0
1.284007522E0	1.189439392E1	5.746083856E-1	1.613691926E0
1.285245268E0	1.185129833E1	6.536170840E-1	1.819593310E0
1.288063599E0	1.179862595E1	8.188169599E-1	2.006340981E0
1.289834884E0	1.177947235E1	9.481038451E-1	2.061407566E0
1.292129560E0	1.177229023E1	1.019929886E0	1.991975784E0
1.293351076E0	1.176271248E1	1.154005170E0	1.889025092E0
1.296185752E0	1.176989555E1	1.314416766E0	1.833958507E0
1.298148499E0	1.177229023E1	1.450886250E0	1.886630893E0
1.300031345E0	1.174116516E1	1.649604917E0	1.908178806E0
1.301425807E0	1.167652130E1	1.881842494E0	2.006340981E0
1.304289445E0	1.163582039E1	2.047042370E0	2.102109194E0
1.305807115E0	1.158793640E1	2.240972757E0	2.152387381E0
1.308368983E0	1.154962921E1	2.494758129E0	2.152387381E0
1.309577153E0	1.152089882E1	2.657563925E0	2.185906172E0
1.312425829E0	1.149216843E1	2.861071110E0	2.090138197E0
1.314141422E0	1.146822643E1	3.150769472E0	1.893813491E0
1.316462060E0	1.148259163E1	3.213018656E0	1.920149803E0
1.317679268E0	1.148019695E1	3.263296843E0	1.865083098E0
1.320518868E0	1.145386124E1	3.502717018E0	1.697489023E0
1.322146884E0	1.141076565E1	3.907337189E0	1.477222443E0
1.324566752E0	1.137245846E1	4.053383350E0	1.407790542E0
1.325792268E0	1.126950741E1	4.359841347E0	1.505952835E0
1.328623675E0	1.115458584E1	4.829104900E0	1.266532660E0
1.330372307E0	1.107797146E1	5.638344765E0	2.322375625E-1
1.332700021E0	1.096304989E1	5.987898350E0	-6.943184882E-2
1.334024230E0	1.085531044E1	6.181828976E0	-1.436521020E-2
1.336756521E0	1.080024433E1	6.299144745E0	2.154781520E-1
1.338384307E0	1.080742645E1	6.366182327E0	5.027823448E-1
1.340674691E0	1.083136845E1	6.366182327E0	7.733271718E-1
1.342014345E0	1.077869606E1	6.234501362E0	1.043871999E0
1.344847829E0	1.059673691E1	5.894524574E0	1.280897856E0
1.346129730E0	1.039083576E1	5.509057999E0	1.414973259E0
1.348943945E0	1.022324085E1	5.137956619E0	1.455674648E0
1.350174114E0	1.012029076E1	4.690241337E0	1.381454349E0
1.353035637E0	1.009874249E1	4.156333923E0	1.165976286E0
1.354647499E0	1.020887566E1	3.703830004E0	8.978256583E-1
1.357070406E0	1.038604736E1	3.406949043E0	7.374141216E-1
1.358277461E0	1.048899746E1	3.150769472E0	7.422025204E-1
1.361127098E0	1.049378586E1	2.937685490E0	8.403648138E-1
1.362782768E0	1.042195988E1	2.755726099E0	1.007958889E0
1.365160060E0	1.033816338E1	2.624045134E0	1.230619669E0
1.366547461E0	1.020648193E1	2.497152328E0	1.515529633E0
1.369215983E0	1.001255131E1	2.370259762E0	1.857900500E0
1.371198307E0	9.706093788E0	2.161964178E0	2.403778553E0
1.373269906E0	9.583989143E0	2.059013367E0	2.552218914E0
1.374480999E0	9.342175484E0	1.838746905E0	2.753331900E0
1.377326291E0	9.296685219E0	1.750161409E0	2.825158119E0
1.378940384E0	9.320627213E0	1.738190413E0	2.619256735E0
1.381136384E0	9.320627213E0	1.726219416E0	2.473210335E0
1.382578576E0	9.344569206E0	1.704671621E0	2.092532396E0
1.385414944E0	9.370905876E0	1.589749932E0	1.680729628E0
1.386968230E0	9.390059471E0	1.426944256E0	1.307234168E0
1.389466829E0	9.397241592E0	1.278503656E0	1.034295082E0
1.390670422E0	9.437943459E0	1.177947283E0	9.074024558E-1
1.393523675E0	9.603142738E0	1.077390790E0	8.906430602E-1
1.395182614E0	9.938331604E0	9.648633003E-1	1.015141487E0
1.397572944E0	1.008198357E1	9.217676520E-1	1.192312479E0
1.398770461E0	1.049139214E1	6.799532771E-1	1.960851192E0
1.401629714E0	1.084333992E1	4.070142806E-1	2.894589901E0
1.403351230E0	1.105881786E1	8.858546615E-2	3.684676409E0
1.405661906E0	1.117852783E1	-7.182604820E-2	3.770867586E0
1.407024076E0	1.124077702E1	-1.819593310E-1	3.660734415E0
1.409718675E0	1.127190113E1	-3.136404157E-1	3.490746021E0
1.411712499E0	1.119768143E1	-3.112462163E-1	3.335123062E0
1.413783906E0	1.101811600E1	-2.466027737E-1	3.203441858E0
1.415097614E0	1.077151299E1	-2.753331959E-1	3.114856482E0
1.417840175E0	1.041717148E1	-3.184288144E-1	3.062183857E0
1.419658922E0	9.952696800E0	-3.232172430E-1	3.019088268E0
1.421724768E0	9.440337181E0	-3.256114423E-1	2.966415882E0
1.423362461E0	8.963891029E0	-3.088520169E-1	2.882618904E0
1.425944367E0	8.568847656E0	-2.657563984E-1	2.772485495E0
1.427377461E0	8.267178535E0	-2.035071403E-1	2.636016130E0
1.430063021E0	8.030152321E0	-1.340752989E-1	2.497152328E0
1.431376922E0	7.833827972E0	-1.675941236E-2	2.389413357E0
1.434154021E0	7.666234016E0	1.412578970E-1	2.305616140E0
1.435801153E0	7.481880188E0	2.753331959E-1	2.257732153E0
1.438188906E0	7.230489254E0	3.639186621E-1	2.274491549E0
1.439449884E0	6.940790653E0	3.926490843E-1	2.298433542E0
1.442245213E0	6.744466305E0	4.429273009E-1	2.173935175E0
1.443907191E0	6.943184853E0	7.350199223E-1	1.529894829E0
1.446291983E0	7.520187378E0	1.158793569E0	4.309563041E-1
1.447501884E0	7.764396191E0	1.053448796E0	4.548983276E-2
1.450348060E0	7.642292023E0	6.440402865E-1	3.375824392E-1
1.452079461E0	7.225700855E0	1.484405100E-1	7.445967197E-1
1.454412059E0	7.113173485E0	5.027823523E-2	7.230489254E-1
1.455629345E0	6.940790653E0	-7.422025502E-2	5.530605912E-1
1.458468021E0	6.758831501E0	-7.900865376E-2	3.974374831E-1
1.460082922E0	6.342240334E0	2.489969730E-1	1.963245422E-1
1.462293191E0	6.119579315E0	3.926490843E-1	1.604115069E-1
1.463756230E0	5.628767967E0	5.937620401E-1	2.633621916E-2
1.466557906E0	4.975151062E0	8.283938169E-1	-5.770025849E-1
1.468636922E0	3.162740469E0	1.460463047E0	-2.841917515E0
1.470572691E0	2.329558372E0	1.759738207E0	-3.840299606E0
1.471887499E0	4.285621047E-1	2.427720547E0	-5.968744755E0
1.474637290E0	-3.090914488E0	3.711012602E0	-9.734824181E0
1.476284499E0	-5.796362400E0	4.673481941E0	-1.247618484E1
1.478675367E0	-7.503427982E0	5.181052685E0	-1.410663605E1
1.479931961E0	-6.667851925E0	4.764461517E0	-1.318008041E1
1.482732482E0	-3.210624456E0	3.514688015E0	-9.648633003E0
1.484632230E0	7.757213712E-1	2.097320795E0	-5.688623428E0
1.486766444E0	3.332728863E0	1.125274777E0	-2.980781078E0
1.488213345E0	4.551377296E0	5.626373887E-1	-1.326387763E0
1.490823867E0	4.948814869E0	2.250549644E-1	-1.268926859E-1
1.492781230E0	4.656722069E0	7.422025502E-2	9.074024558E-1
1.494879867E0	3.526659012E0	1.819593310E-1	1.800439715E0
1.496078614E0	1.908178806E0	4.333505034E-1	2.480392933E0
1.498936059E0	2.035071403E-1	7.565677166E-1	3.019088268E0
1.500751537E0	-1.620874524E0	1.242590666E0	3.442862034E0
1.502969867E0	-3.715801001E0	1.900996208E0	3.720589399E0
1.504308537E0	-5.612008572E0	2.669534922E0	3.943250179E0
1.507026213E0	-6.931213856E0	3.514688015E0	4.084507942E0
1.508376037E0	-7.829039574E0	4.244919777E0	4.220977783E0
1.511144213E0	-9.143456459E0	5.133168221E0	4.683058739E0
1.512439384E0	-1.086967564E1	6.081272125E0	4.180276394E0
1.515235136E0	-1.205719948E1	6.909666061E0	3.258508444E0
1.516936384E0	-1.291193008E1	7.711723804E0	3.117250681E0
1.519285098E0	-1.426944256E1	8.401253700E0	3.411737442E0
1.520528922E0	-1.509304714E1	8.719682693E0	3.730166197E0
1.523341867E0	-1.468603325E1	8.607154846E0	3.979163170E0
1.524954614E0	-1.249533844E1	8.176198959E0	3.971980572E0
1.527376675E0	-1.162384892E1	8.032546997E0	3.825934410E0
1.528776691E0	-9.442731857E0	7.632715225E0	4.096478939E0
1.531433905E0	-6.947973251E0	7.196970463E0	5.197812080E0
1.533389268E0	-4.053383350E0	7.022193432E0	6.277596951E0
1.535498251E0	-3.426102638E0	7.067683220E0	6.411672115E0
1.536743422E0	-2.264914751E0	7.129932880E0	6.734889507E0
1.539554905E0	-9.050082564E-1	7.113173485E0	7.015010834E0
1.541244653E0	9.720458984E-1	7.252037048E0	7.060500622E0
1.543403153E0	1.278503656E0	7.374141216E0	6.969521046E0
1.544806922E0	1.491587639E0	7.733271599E0	6.835445881E0
1.547658713E0	1.522712231E0	8.391676903E0	6.816292286E0
1.549173537E0	1.431732655E0	8.875306129E0	7.132327080E0
1.551762021E0	1.443703651E0	9.406818390E0	7.608773232E0
1.552987114E0	1.467645645E0	9.911994934E0	8.101978302E0
1.555817944E0	1.379060149E0	1.038125896E1	8.549694061E0
1.557560807E0	1.285686255E0	1.086009884E1	9.009381294E0
1.559852559E0	1.508347034E0	1.128626728E1	9.440337181E0
1.561115807E0	1.980004787E0	1.170764637E1	9.835380554E0
1.563908405E0	2.389413357E0	1.215296745E1	1.010831928E1
1.565547960E0	2.762908697E0	1.250730991E1	1.014183807E1
1.567954328E0	3.117250681E0	1.280179691E1	1.006282997E1
1.569226576E0	3.406949043E0	1.308670616E1	9.974244118E0
1.572009905E0	4.187458992E0	1.322796440E1	9.897629738E0
1.573799807E0	5.676652431E0	1.321838760E1	9.799467087E0
1.576084174E0	6.406883717E0	1.323993587E1	9.595960617E0
1.577332884E0	6.622362137E0	1.333091545E1	9.291896820E0
1.580140790E0	6.959944248E0	1.329260826E1	8.755595207E0
1.581782153E0	7.575253963E0	1.306515884E1	8.032546997E0
1.583985460E0	8.087613106E0	1.314416695E1	7.577648163E0
1.585395845E0	8.295908928E0	1.363737297E1	7.481880188E0
1.588230597E0	8.370129585E0	1.428141308E1	7.340622425E0
1.589705537E0	8.403648376E0	1.488954067E1	6.794744492E0
1.592327059E0	8.360552788E0	1.556231117E1	6.083666325E0
1.593588499E0	8.157045364E0	1.632366753E1	5.430049419E0
1.596418905E0	7.879317760E0	1.700601387E1	4.862623692E0
1.598089730E0	7.407660007E0	1.783440781E1	4.149151325E0
1.600452559E0	7.235277653E0	1.805228043E1	3.916913986E0
1.601715614E0	6.847416878E0	1.839225769E1	3.373430252E0
1.604509097E0	6.394912720E0	1.864843750E1	2.700659513E0
1.606366422E0	5.686229229E0	1.919431496E1	1.795651317E0
1.608542828E0	5.463568211E0	1.943612862E1	1.539471745E0
1.609787922E0	4.972756863E0	1.995806503E1	1.041477680E0
1.612599520E0	4.422090530E0	2.050394249E1	4.764461517E-1
1.614637037E0	3.799597979E0	2.130839539E1	-5.339069963E-1
1.616654443E0	3.538630009E0	2.170583344E1	-1.455674648E0
1.617869845E0	3.248931646E0	2.208890533E1	-2.257732153E0
1.620711367E0	3.303998232E0	2.260844612E1	-2.789244890E0
1.622364114E0	3.433285236E0	2.321896744E1	-3.205836058E0
1.624743597E0	3.236960649E0	2.380315399E1	-3.636792421E0
1.625943691E0	2.846705914E0	2.424129295E1	-4.036623955E0
1.628800828E0	2.473210335E0	2.449747086E1	-4.357447147E0
1.630317845E0	2.226607561E0	2.463154793E1	-4.599261284E0
1.632900059E0	2.217030764E0	2.472492027E1	-4.797980309E0
1.634114730E0	2.398990154E0	2.470337296E1	-4.963180065E0
1.636956790E0	2.513911724E0	2.442564583E1	-5.039794445E0
1.638628537E0	2.523488522E0	2.385821915E1	-4.984727859E0
1.641007020E0	2.530671120E0	2.294842339E1	-4.762067318E0
1.642322384E0	2.482787132E0	2.165076637E1	-4.434061527E0
1.645063828E0	2.461239338E0	2.011368942E1	-4.062960148E0
1.646820114E0	2.499546528E0	1.855506325E1	-3.658340216E0
1.649097943E0	2.624045134E0	1.709460068E1	-3.213018656E0
1.650334460E0	2.829946518E0	1.575384712E1	-2.753331900E0
1.653154674E0	3.083731890E0	1.453280449E1	-2.288856745E0
1.654990076E0	3.356670856E0	1.342907715E1	-1.821987510E0
1.657219982E0	3.622427225E0	1.243069553E1	-1.379060149E0
1.658418883E0	3.878606796E0	1.153286934E1	-9.528923035E-1
1.661276136E0	4.122815132E0	1.074517727E1	-5.386953950E-1
1.663021114E0	4.417302132E0	9.710882187E0	4.070143029E-2
1.665121691E0	4.493916512E0	9.390059471E0	2.178723514E-1
1.666523114E0	4.604049683E0	8.793902397E0	5.578489900E-1
1.669380636E0	4.649539471E0	8.264783859E0	8.786720037E-1
1.670690268E0	4.666299343E0	7.790732384E0	1.194706678E0
1.673498905E0	4.671087742E0	7.364564419E0	1.493981838E0
1.674819960E0	4.668693542E0	6.964732647E0	1.788468719E0
1.677590212E0	4.656722069E0	6.598419666E0	2.078166962E0
1.679202691E0	4.632780075E0	6.150704384E0	2.485181332E0
1.681624828E0	4.604049683E0	5.918466568E0	2.734178305E0
1.682823845E0	4.606443882E0	5.712565422E0	2.973598480E0
1.685681289E0	4.618414879E0	5.537788391E0	3.213018656E0
1.687362730E0	4.623203278E0	5.401319027E0	3.440467834E0
1.689730251E0	4.608838081E0	5.279214859E0	3.653551817E0
1.691097845E0	4.575319290E0	5.190629482E0	3.845088005E0
1.693786212E0	4.539406300E0	5.145139217E0	4.031835556E0
1.695628422E0	4.503493309E0	5.135562420E0	4.199429989E0
1.697850443E0	4.460397720E0	5.171475887E0	4.338293552E0
1.699097999E0	4.412513733E0	5.260061264E0	4.460397720E0
1.701906828E0	4.378994942E0	5.398924828E0	4.553771496E0
1.703541807E0	4.359841347E0	5.573701382E0	4.625597477E0
1.705741268E0	4.352658749E0	5.770026207E0	4.673481941E0
1.707150768E0	4.357447147E0	5.971138954E0	4.687847137E0
1.709997789E0	4.369418144E0	6.172252178E0	4.675876141E0
1.711511307E0	4.381389141E0	6.378153324E0	4.647145271E0
1.714054097E0	4.398148537E0	6.591237068E0	4.596867085E0
1.715399999E0	4.412513733E0	6.794744492E0	4.520252705E0
1.718111943E0	4.438849926E0	6.971915245E0	4.424484730E0
1.719766922E0	4.472368717E0	7.134721279E0	4.309563160E0
1.722147443E0	4.505887508E0	7.280767441E0	4.165910721E0
1.723352037E0	4.525041103E0	7.412448406E0	3.995922565E0
1.726205251E0	4.548983097E0	7.522581577E0	3.806780815E0
1.728540328E0	4.565742493E0	7.620744228E0	3.610456228E0
1.730239943E0	4.572925091E0	7.714118004E0	3.411737442E0
1.731607883E0	4.577713490E0	7.797914982E0	3.210624456E0
1.734297943E0	4.608838081E0	7.874529362E0	3.002328873E0
1.736009922E0	4.692635536E0	7.965508938E0	2.688688517E0
1.738354481E0	4.723760128E0	7.989450932E0	2.585737944E0
1.739643153E0	4.774038315E0	8.032546997E0	2.379836559E0
1.742411866E0	4.807557106E0	8.078036308E0	2.173935175E0
1.744024153E0	4.781220913E0	8.142680168E0	1.874659896E0
1.746215845E0	4.769249916E0	8.157045364E0	1.778891921E0
1.747637268E0	4.750096321E0	8.185775757E0	1.592144132E0
1.750502751E0	4.735731125E0	8.209717751E0	1.422155857E0
1.751809999E0	4.735731125E0	8.233659744E0	1.268926859E0
1.754595674E0	4.786009312E0	8.281543732E0	1.067813993E0
1.755815691E0	4.826710701E0	8.305485725E0	9.528923035E-1
1.758687943E0	4.843470097E0	8.322244644E0	8.571242094E-1
1.760346460E0	4.829104900E0	8.346187592E0	7.876923680E-1
1.762739981E0	4.778826714E0	8.370129585E0	7.326257229E-1
1.763925614E0	4.697423935E0	8.379706383E0	6.967126727E-1
1.766797597E0	4.599261284E0	8.391676903E0	6.919242740E-1
1.768581960E0	4.496310711E0	8.406042099E0	7.062895298E-1
1.770832097E0	4.398148537E0	8.420407295E0	7.398083210E-1
1.772002268E0	4.319139957E0	8.429984093E0	7.924807668E-1
1.774889866E0	4.249708176E0	8.439560890E0	8.571242094E-1
1.776986037E0	4.189853191E0	8.453926086E0	9.385270476E-1
1.778957212E0	4.146757126E0	8.465897560E0	1.031900883E0
1.780134960E0	4.122815132E0	8.477868080E0	1.132457376E0
1.783014751E0	4.106055737E0	8.487444878E0	1.242590666E0
1.784717653E0	4.096478939E0	8.497021675E0	1.347935557E0
1.786847114E0	4.096478939E0	8.497021675E0	1.453280449E0
1.788244422E0	4.118026733E0	8.492233276E0	1.565807939E0
1.791121827E0	4.137180328E0	8.487444878E0	1.683123827E0
1.792621191E0	4.151545525E0	8.475474358E0	1.802833915E0
1.795191558E0	4.161122322E0	8.470685959E0	1.920149803E0
1.796376499E0	4.173093796E0	8.463502884E0	2.032677174E0
1.799249250E0	4.173093796E0	8.465897560E0	2.152387381E0
1.800871730E0	4.161122322E0	8.470685959E0	2.276885748E0
1.803284712E0	4.134786129E0	8.465897560E0	2.391807556E0
1.804597230E0	4.098873138E0	8.458714485E0	2.501940727E0
1.807342289E0	4.067748547E0	8.441955566E0	2.600103140E0
1.808984960E0	4.007893562E0	8.418013573E0	2.753331900E0
1.811392097E0	3.983951569E0	8.410830498E0	2.798821688E0
1.812584730E0	3.931279182E0	8.401253700E0	2.880224705E0
1.815449443E0	3.888183594E0	8.394071579E0	2.959233284E0
1.817180153E0	3.888183594E0	8.377311707E0	3.033453465E0
1.819526135E0	3.907337189E0	8.377311707E0	3.043030262E0
1.820714422E0	3.933673382E0	8.379706383E0	3.052607059E0
1.823582866E0	3.928884983E0	8.374917984E0	3.062183857E0
1.825227576E0	3.926490784E0	8.374917984E0	3.081337690E0
1.827364268E0	4.082113743E0	8.377311707E0	3.114856482E0
1.828807614E0	4.817133904E0	8.286332130E0	3.203441858E0
1.831673981E0	5.956773758E0	8.123526573E0	3.260902643E0
1.832935653E0	6.205770969E0	8.032546997E0	3.201047659E0
1.835777558E0	5.525817394E0	8.087613106E0	3.122039080E0
1.837081537E0	4.891354084E0	8.209717751E0	3.074155092E0
1.839868981E0	4.735731125E0	8.295908928E0	3.074155092E0
1.841479999E0	4.927267075E0	8.298302650E0	3.081337690E0
1.843904173E0	5.094861031E0	8.257601738E0	3.047818661E0
1.845113422E0	5.094861031E0	8.243236542E0	2.978386879E0
1.847960673E0	5.008669853E0	8.276755333E0	2.865859509E0
1.849550114E0	4.884171486E0	8.293514252E0	2.750937700E0
1.851994827E0	4.644751072E0	8.276755333E0	2.686294317E0
1.853267883E0	4.240131378E0	8.283937454E0	2.700659513E0
1.856051866E0	3.734954596E0	8.336610794E0	2.815581083E0
1.857804653E0	3.284844637E0	8.418013573E0	2.987963676E0
1.860108289E0	3.011905670E0	8.497021675E0	3.172317266E0
1.861536345E0	2.937685490E0	8.542511940E0	3.330334663E0
1.864166404E0	3.019088268E0	8.571242332E0	3.426102638E0
1.865767037E0	3.184288263E0	8.590395927E0	3.466804028E0
1.868005729E0	3.361459255E0	8.590395927E0	3.466804028E0
1.869459729E0	3.507505417E0	8.580819130E0	3.440467834E0
1.872259250E0	3.581725836E0	8.532935143E0	3.359065056E0
1.873748306E0	3.373430252E0	8.303091049E0	3.076549292E0
1.876313327E0	2.901772499E0	7.917624950E0	2.719813108E0
1.877509576E0	2.561795712E0	7.462726593E0	2.643198729E0
1.880371212E0	2.521094322E0	6.959944248E0	2.959233284E0
1.881977383E0	2.679111719E0	6.162675381E0	3.675099611E0
1.884421135E0	2.717418909E0	5.906495571E0	3.876212597E0
1.885598691E0	2.772485495E0	5.497087002E0	4.096478939E0
1.888478904E0	2.942473888E0	5.245696068E0	4.074931145E0
1.890070383E0	3.708618402E0	4.812345505E0	4.144362926E0
1.892512904E0	3.952826977E0	4.714183331E0	4.180276394E0
1.893785191E0	4.283226967E0	4.800374508E0	4.005499363E0
1.896570212E0	4.702212334E0	5.133168221E0	3.646369219E0
1.898267729E0	5.568912983E0	5.798756599E0	3.043030262E0
1.900635904E0	6.157886982E0	6.335057735E0	2.568978310E0
1.901918153E0	6.612784863E0	6.904877663E0	2.161964178E0
1.904693865E0	6.777985096E0	7.457938194E0	1.867477298E0
1.906300537E0	6.730101109E0	7.970297337E0	1.666364431E0
1.908570729E0	6.567295074E0	8.429984093E0	1.570596337E0
1.909959653E0	6.347028732E0	8.748413086E0	1.582567334E0
1.912799712E0	6.023811340E0	8.904036522E0	1.666364431E0
1.914073729E0	5.592854977E0	8.920795441E0	1.819593310E0
1.916918750E0	5.173870087E0	8.865729332E0	2.003946781E0
1.918134460E0	4.843470097E0	8.781931877E0	2.161964178E0
1.921010788E0	4.642356873E0	8.698134422E0	2.286462545E0
1.922596960E0	4.455609322E0	8.633491516E0	2.353500366E0
1.925046096E0	4.458003521E0	8.571242332E0	2.427720547E0
1.926329729E0	4.663905144E0	8.520963669E0	2.501940727E0
1.929103365E0	4.800374508E0	8.487444878E0	2.559401512E0
1.930723922E0	4.910507679E0	8.468291283E0	2.566584110E0
1.933151481E0	5.003881454E0	8.456320763E0	2.554613113E0
1.934321422E0	5.066130638E0	8.453926086E0	2.525882721E0
1.937208442E0	5.193023682E0	8.408436775E0	2.489969730E0
1.938991345E0	5.609614372E0	8.339004517E0	2.255337954E0
1.941273558E0	5.698200226E0	8.319850922E0	2.190694571E0
1.942483383E0	5.702988625E0	8.276755333E0	2.133233786E0
1.945330750E0	5.659893036E0	8.224082947E0	2.118868589E0
1.946981153E0	5.439626217E0	8.104372978E0	2.126051188E0
1.949136960E0	5.343858242E0	8.056488991E0	2.118868589E0
1.950561883E0	5.181052685E0	7.951143742E0	2.104503393E0
1.953423211E0	5.090072632E0	7.857769966E0	2.090138197E0
1.954843153E0	4.905719280E0	7.740454197E0	2.090138197E0
1.957487711E0	4.793191910E0	7.702147007E0	2.109291792E0
1.958667960E0	4.572925091E0	7.659051418E0	2.190694571E0
1.961544865E0	4.527435303E0	7.654263020E0	2.327163935E0
1.963134845E0	4.714183331E0	7.663839817E0	2.365471363E0
1.965580827E0	4.951209068E0	7.733271599E0	2.343923569E0
1.966847653E0	5.343858242E0	7.845798969E0	2.355894566E0
1.969638404E0	5.827486992E0	8.008605003E0	2.437297344E0
1.971255576E0	6.100425720E0	8.123526573E0	2.573766708E0
1.973673673E0	6.059724331E0	8.140285492E0	2.717418909E0
1.974971960E0	5.901707172E0	8.133103371E0	2.851494312E0
1.977731519E0	5.798756599E0	8.152256966E0	2.961627483E0
1.979503306E0	5.832275391E0	8.169015884E0	3.045424461E0
1.981790057E0	5.932831764E0	8.166622162E0	3.131615877E0
1.982988037E0	6.050147533E0	8.185775757E0	3.239354849E0
1.985847173E0	6.141127586E0	8.216899872E0	3.337517262E0
1.987458383E0	6.193799973E0	8.226476669E0	3.454833031E0
1.989662499E0	6.241683960E0	8.233659744E0	3.572149038E0
1.991084576E0	6.306327343E0	8.262390137E0	3.648763418E0
1.993939057E0	6.402095318E0	8.279149055E0	3.699041605E0
1.995220652E0	6.459556103E0	8.291120529E0	3.722983599E0
1.998036942E0	6.428431511E0	8.303091049E0	3.725377798E0
1.999275614E0	6.296750546E0	8.310274124E0	3.699041605E0
2.002129173E0	6.052541733E0	8.298302650E0	3.648763418E0
2.003844922E0	5.781997204E0	8.279149055E0	3.560178041E0
2.006181019E0	5.547365189E0	8.271966934E0	3.435679436E0
2.007453537E0	5.346252441E0	8.264783859E0	3.339911461E0
2.010238942E0	5.166687489E0	8.228871346E0	3.275267839E0
2.011945460E0	5.020640850E0	8.207323074E0	3.141192675E0
2.014273134E0	5.011064053E0	8.212111473E0	3.105279684E0
2.015468229E0	4.991910458E0	8.216899872E0	3.057395458E0
2.018332057E0	4.987122059E0	8.185775757E0	3.004723072E0
2.020095806E0	5.003881454E0	8.101978302E0	2.985569477E0
2.022398865E0	5.006275654E0	8.066065788E0	3.004723072E0
2.023577345E0	5.020640850E0	7.989450932E0	3.033453465E0
2.026458057E0	4.951209068E0	7.912836552E0	3.045424461E0
2.028122576E0	4.659116745E0	7.793126583E0	2.978386879E0
2.030265999E0	4.556165695E0	7.745242596E0	2.920926094E0
2.031697306E0	4.402936935E0	7.704541206E0	2.748543501E0
2.034566480E0	4.362235546E0	7.692570210E0	2.480392933E0
2.035949576E0	4.398148537E0	7.635109425E0	2.339135170E0
2.038640826E0	4.424484730E0	7.548917770E0	2.233790159E0
2.039838576E0	4.467580318E0	7.479485989E0	2.126051188E0
2.042699750E0	4.527435303E0	7.405265808E0	2.032677174E0
2.044291460E0	4.604049683E0	7.347805023E0	1.951274395E0
2.046737096E0	4.714183331E0	7.302315235E0	1.889025092E0
2.047933037E0	4.807557106E0	7.264008045E0	1.857900500E0
2.050796326E0	4.833893299E0	7.199364662E0	1.855506301E0
2.052409768E0	4.845864296E0	7.137115479E0	1.841141105E0
2.054847288E0	4.936843872E0	7.117961884E0	1.812410712E0
2.056126883E0	5.104437828E0	7.134721279E0	1.802833915E0
2.058906480E0	5.200206280E0	7.120356083E0	1.845929503E0
2.060616422E0	5.185841084E0	7.077260017E0	1.927332401E0
2.062983365E0	5.164293289E0	7.053318024E0	2.008735180E0
2.064159537E0	5.190629482E0	7.058106422E0	2.068590164E0
2.067041749E0	5.171475887E0	7.077260017E0	2.114080191E0
2.068630922E0	5.145139217E0	7.122750282E0	2.176329374E0
2.070838191E0	5.176264286E0	7.201758862E0	2.272097349E0
2.072259729E0	5.233725071E0	7.266402245E0	2.384624958E0
2.075135211E0	5.264849663E0	7.297526836E0	2.485181332E0
2.076404806E0	5.255272865E0	7.319074631E0	2.592920542E0
2.079243442E0	5.260061264E0	7.347805023E0	2.671929121E0
2.080457960E0	5.346252441E0	7.390900612E0	2.724601507E0
2.083336596E0	5.420472622E0	7.438784599E0	2.755726099E0
2.084967883E0	5.446808815E0	7.565677166E0	2.817975283E0
2.087375211E0	5.461174011E0	7.637503624E0	2.832340717E0
2.088561960E0	5.516240597E0	7.809885979E0	2.856282711E0
2.091434288E0	5.592854977E0	8.010998726E0	2.882618904E0
2.093028268E0	5.638344765E0	8.298302650E0	2.911349297E0
2.095470211E0	5.614402771E0	8.374917984E0	2.928108692E0
2.096653306E0	5.547365189E0	8.477868080E0	2.966415882E0
2.099528403E0	5.482721806E0	8.523358345E0	3.007117271E0
2.101286652E0	5.363011837E0	8.554482460E0	3.055001259E0
2.103584403E0	5.255272865E0	8.540117264E0	3.074155092E0
2.104771152E0	5.142745018E0	8.487444878E0	3.076549292E0
2.107642903E0	5.078101635E0	8.439560890E0	3.069366693E0
2.109231037E0	5.063736439E0	8.434772491E0	3.047818661E0
2.111435191E0	5.114014626E0	8.473079681E0	3.014299870E0
2.112855575E0	5.188235283E0	8.544905663E0	2.983175278E0
2.115736942E0	5.288791656E0	8.662221909E0	2.956839085E0
2.117114537E0	5.386953831E0	8.796297073E0	2.947262287E0
2.119808942E0	5.504269600E0	8.911218643E0	2.906560898E0
2.120986806E0	5.614402771E0	9.009381294E0	2.873042107E0
2.123867095E0	5.676652431E0	9.074024200E0	2.861071110E0
2.125504499E0	5.652710438E0	9.085995674E0	2.868253708E0
2.127919634E0	5.525817394E0	9.069235802E0	2.899378300E0
2.129097075E0	5.398924828E0	9.028534889E0	2.940079689E0
2.131977557E0	5.262455463E0	8.992621422E0	2.968810081E0
2.133571960E0	5.097255230E0	8.947132111E0	2.975992680E0
2.136011826E0	4.984727859E0	8.906430244E0	2.952050686E0
2.137184152E0	4.881777287E0	8.882488251E0	2.923320293E0
2.140069480E0	4.802768707E0	8.889671326E0	2.894589901E0
2.141796075E0	4.802768707E0	8.923190117E0	2.853888512E0
2.144124480E0	4.807557106E0	8.968679428E0	2.810792685E0
2.145330652E0	4.817133904E0	8.997409821E0	2.758120298E0
2.148181903E0	4.860229492E0	9.028534889E0	2.719813108E0
2.149786768E0	4.888959885E0	9.064447403E0	2.705447912E0
2.151981691E0	4.881777287E0	9.088389397E0	2.691082716E0
2.153410229E0	4.888959885E0	9.093177795E0	2.667140722E0
2.156287057E0	4.970362663E0	9.085995674E0	2.655169725E0
2.157551037E0	5.185841084E0	9.057265282E0	2.671929121E0
2.160385326E0	5.288791656E0	9.028534889E0	2.698265314E0
2.161594960E0	5.389348030E0	8.990227699E0	2.710236311E0
2.164477749E0	5.463568211E0	8.930372238E0	2.710236311E0
2.166813518E0	5.542576790E0	8.796297073E0	2.693476915E0
2.168515249E0	5.583278179E0	8.753201485E0	2.679111719E0
2.169722922E0	5.559336185E0	8.690952301E0	2.636016130E0
2.172573364E0	5.298368454E0	8.633491516E0	2.509123325E0
2.174174345E0	5.085284233E0	8.626308441E0	2.406172752E0
2.176623057E0	4.936843872E0	8.611943245E0	2.346317768E0
2.177813422E0	4.884171486E0	8.571242332E0	2.360682964E0
2.180680864E0	4.900930882E0	8.422801971E0	2.303221941E0
2.182427037E0	4.814739704E0	8.204929352E0	2.147598982E0
2.184747095E0	4.525041103E0	8.046912193E0	2.039859772E0
2.185921806E0	4.012681961E0	7.922413349E0	1.948880196E0
2.188804134E0	3.526659012E0	7.876923561E0	1.927332401E0
2.190412498E0	3.284844637E0	7.989450932E0	1.982398987E0
2.192601037E0	3.371036053E0	8.104372978E0	2.078166962E0
2.194020537E0	3.531447411E0	8.121131897E0	2.138022184E0
2.196896903E0	3.665522814E0	8.097189903E0	2.264914751E0
2.198296114E0	3.969586372E0	8.161833763E0	2.475604534E0
2.200974518E0	4.331110954E0	8.231265068E0	2.676717520E0
2.202184729E0	4.718971729E0	8.197746277E0	2.817975283E0
2.205032172E0	4.924872875E0	8.075642586E0	2.844311714E0
2.206648460E0	5.106832027E0	8.010998726E0	2.868253708E0
2.209067980E0	5.284003258E0	8.018181801E0	2.870647907E0
2.210950268E0	5.437232018E0	8.080430984E0	2.825158119E0
2.213125749E0	5.528211594E0	8.202534676E0	2.777273893E0
2.214757806E0	5.499481201E0	8.353369713E0	2.784456491E0
2.217159557E0	5.372588634E0	8.530540466E0	2.834734917E0
2.218376114E0	5.157110691E0	8.690952301E0	2.920926094E0
2.221217441E0	4.850652695E0	8.808267593E0	3.031059265E0
2.223006652E0	4.307168961E0	8.880094528E0	3.191470861E0
2.225272672E0	4.129997730E0	8.870517731E0	3.251325846E0
2.226463114E0	3.790021181E0	8.827422142E0	3.332728863E0
2.229330441E0	3.552995205E0	8.822632790E0	3.390189648E0
2.231078114E0	3.409343243E0	8.884882927E0	3.409343243E0
2.233115229E0	3.380612850E0	8.899248123E0	3.416525841E0
2.235321537E0	3.392583847E0	8.896853447E0	3.454833031E0
2.237421557E0	3.502717018E0	8.836998940E0	3.493140221E0
2.238683498E0	3.627215624E0	8.743624687E0	3.533841610E0
2.241522210E0	3.785232782E0	8.614337921E0	3.593696833E0
2.242737460E0	4.110844135E0	8.377311707E0	3.670311213E0
2.245614633E0	4.424484730E0	8.188169479E0	3.660734415E0
2.247216998E0	4.692635536E0	7.965508938E0	3.641580820E0
2.249664864E0	4.912901878E0	7.714118004E0	3.605667830E0
2.250852268E0	5.121197224E0	7.410054207E0	3.555389643E0
2.253722556E0	5.250484467E0	7.127538681E0	3.507505417E0
2.255343345E0	5.317522049E0	6.912060261E0	3.495534420E0
2.257756556E0	5.372588634E0	6.756437302E0	3.505111217E0
2.259069960E0	5.413290024E0	6.648698330E0	3.519476414E0
2.261814864E0	5.432443619E0	6.591237068E0	3.521870613E0
2.263522652E0	5.485116005E0	6.548141479E0	3.507505417E0
2.265881749E0	5.516240597E0	6.533776283E0	3.452438831E0
2.267091152E0	5.511452198E0	6.543353081E0	3.390189648E0
2.269939479E0	5.477933407E0	6.560112476E0	3.392583847E0
2.271542998E0	5.413290024E0	6.600813866E0	3.385401249E0
2.273773922E0	5.348646641E0	6.643909931E0	3.320757866E0
2.275267306E0	5.224148273E0	6.648698330E0	3.174711466E0
2.278046787E0	5.035006046E0	6.655880928E0	2.959233284E0
2.279431268E0	4.848258495E0	6.708553314E0	2.760514498E0
2.282122364E0	4.740519524E0	6.785167694E0	2.640804529E0
2.283314229E0	4.690241337E0	6.849811077E0	2.542642117E0
2.286180826E0	4.639962673E0	6.933608055E0	2.398990154E0
2.287782345E0	4.584896088E0	7.062894821E0	2.197877169E0
2.290218133E0	4.558559895E0	7.230489254E0	2.027888775E0
2.291416075E0	4.565742493E0	7.347805023E0	1.908178806E0
2.294275672E0	4.611232281E0	7.366958618E0	1.776497602E0
2.295898152E0	4.678270340E0	7.307103634E0	1.553836942E0
2.298324518E0	4.695029736E0	7.292738438E0	1.472434044E0
2.299504075E0	4.742913723E0	7.278373241E0	1.321599364E0
2.302381672E0	4.838681698E0	7.302315235E0	1.194706678E0
2.304086345E0	5.090072632E0	7.354987621E0	1.149216771E0
2.306425249E0	5.171475887E0	7.354987621E0	1.149216771E0
2.307614191E0	5.250484467E0	7.374141216E0	1.096544385E0
2.310482825E0	5.264849663E0	7.493851185E0	9.720458984E-1
2.312075498E0	5.398924828E0	7.900865555E0	7.805097699E-1
2.314377537E0	5.475539207E0	8.066065788E0	7.254431248E-1
2.315709114E0	5.604825974E0	8.432378769E0	6.224924326E-1
2.318574518E0	5.638344765E0	8.997409821E0	5.171475410E-1
2.319850652E0	5.513846397E0	9.332598686E0	4.788403511E-1
2.322671018E0	5.305551052E0	9.624691010E0	4.381389022E-1
2.323896152E0	5.039794445E0	9.868899345E0	4.189853072E-1
2.326763556E0	4.771644115E0	1.007001209E1	4.357447028E-1
2.328373768E0	4.522646904E0	1.024239445E1	4.884171486E-1
2.330800325E0	4.290409565E0	1.038365269E1	5.674257874E-1
2.331988652E0	4.091690540E0	1.047463226E1	6.703764796E-1
2.334858172E0	3.950432777E0	1.051772785E1	7.948749661E-1
2.336465729E0	3.873818398E0	1.051533413E1	9.337386489E-1
2.338892710E0	3.840299606E0	1.049139214E1	1.091755986E0
2.340083345E0	3.818751812E0	1.044829655E1	1.244984865E0
2.342950479E0	3.801992416E0	1.038604736E1	1.367089152E0
2.344706691E0	3.852270603E0	1.034534550E1	1.431732655E0
2.347006902E0	3.948038578E0	1.033098030E1	1.482010841E0
2.348185229E0	3.991134167E0	1.030703831E1	1.534683347E0
2.351064095E0	3.962403774E0	1.024000072E1	1.592144132E0
2.352675037E0	3.912125587E0	1.015620327E1	1.659181833E0
2.354847575E0	3.885789394E0	1.008916569E1	1.707065821E0
2.356271114E0	3.864241600E0	1.003888798E1	1.702277422E0
2.359156556E0	3.811569214E0	9.976638794E0	1.651999116E0
2.360540268E0	3.761290789E0	9.916783333E0	1.599326730E0
2.363219787E0	3.658340216E0	9.840168953E0	1.515529633E0
2.364391114E0	3.435679436E0	9.727641106E0	1.386242747E0
2.367276902E0	3.253720045E0	9.595960617E0	1.316810966E0
2.368889114E0	3.074155092E0	9.385271072E0	1.218648672E0
2.371327787E0	3.007117271E0	9.306262016E0	1.175553083E0
2.372511460E0	3.002328873E0	9.165003777E0	1.144428372E0
2.375384902E0	3.114856482E0	9.069235802E0	1.118092179E0
2.376987306E0	3.306392431E0	8.906430244E0	9.744400978E-1
2.379420364E0	3.368641853E0	8.839392662E0	9.097966552E-1
2.380595537E0	3.495534420E0	8.705317497E0	7.781155705E-1
2.383477594E0	3.615244627E0	8.585607529E0	6.655880809E-1
2.385179960E0	3.732560396E0	8.449137688E0	6.655880809E-1
2.387545133E0	3.754108191E0	8.348581314E0	7.829039693E-1
2.388728729E0	3.761290789E0	8.255207062E0	9.097966552E-1
2.391602864E0	3.763684988E0	8.224082947E0	1.027112484E0
2.393209921E0	3.711012602E0	8.207323074E0	1.185129881E0
2.395410191E0	3.651157618E0	8.178592682E0	1.391031146E0
2.396867729E0	3.658340216E0	8.161833763E0	1.654393315E0
2.399708902E0	3.670311213E0	8.173804283E0	2.001552582E0
2.400967652E0	3.663128614E0	8.216899872E0	2.410961151E0
2.403807710E0	3.663128614E0	8.264783859E0	2.834734917E0
2.405038037E0	3.665522814E0	8.295908928E0	3.280056238E0
2.407899825E0	3.689464808E0	8.348581314E0	3.701435804E0
2.409498921E0	3.727771997E0	8.420407295E0	4.065354347E0
2.411936864E0	3.770867586E0	8.463502884E0	4.393360138E0
2.413145460E0	3.806780815E0	8.492233276E0	4.702212334E0
2.415994594E0	3.790021181E0	8.530540466E0	4.982333660E0
2.417615306E0	3.801992416E0	8.614337921E0	5.255272865E0
2.420044210E0	4.017470360E0	8.712499619E0	5.497087002E0
2.421224152E0	4.321534157E0	8.815450668E0	5.667075634E0
2.424101402E0	4.556165695E0	8.911218643E0	5.765237808E0
2.425802883E0	4.659116745E0	9.023746490E0	5.765237808E0
2.428167748E0	4.656722069E0	9.035717010E0	5.736507416E0
2.430033268E0	4.697423935E0	9.018958092E0	5.650316238E0
2.432224479E0	4.742913723E0	8.992621422E0	5.542576790E0
2.433821806E0	4.730942726E0	8.908824921E0	5.322310448E0
2.436012383E0	4.754884720E0	8.863334656E0	5.228936672E0
2.437434498E0	4.869806290E0	8.777143478E0	4.996698856E0
2.440315440E0	4.984727859E0	8.705317497E0	4.695029736E0
2.441689268E0	5.044582844E0	8.635885239E0	4.323928356E0
2.444370133E0	5.070919037E0	8.542511940E0	3.926490784E0
2.445552883E0	5.054159641E0	8.379706383E0	3.500322819E0
2.448427940E0	4.881777287E0	8.130708694E0	2.987963676E0
2.450022768E0	4.867412090E0	7.821856976E0	2.375048161E0
2.452464517E0	5.011064053E0	7.757213593E0	2.315192938E0
2.453644614E0	5.554547787E0	7.699752808E0	2.394201756E0
2.456521363E0	6.327875137E0	7.730877399E0	2.439691544E0
2.458181268E0	6.526593685E0	7.795520782E0	2.355894566E0
2.460556056E0	6.703764915E0	7.876923561E0	2.272097349E0
2.462105575E0	6.947973251E0	7.972691536E0	2.114080191E0
2.464612863E0	7.110779285E0	8.046912193E0	1.893813491E0
2.466349498E0	7.108384609E0	8.101978302E0	1.675941229E0
2.468667863E0	6.971915245E0	8.149862289E0	1.503558636E0
2.469871229E0	6.797138691E0	8.178592682E0	1.391031146E0
2.472724363E0	6.641515732E0	8.190564156E0	1.328781962E0
2.474324344E0	6.540958881E0	8.188169479E0	1.271321058E0
2.476514806E0	6.485892296E0	8.154650688E0	1.204283476E0
2.477951075E0	6.423643112E0	8.094796181E0	1.125274777E0
2.480813325E0	6.303933144E0	8.032546997E0	1.046266198E0
2.482187460E0	6.126761913E0	7.994239330E0	1.005564690E0
2.484867402E0	5.918466568E0	7.970297337E0	1.022324085E0
2.486078614E0	5.724536419E0	7.967903137E0	1.084573388E0
2.488924902E0	5.566518784E0	7.982268333E0	1.168370485E0
2.490553268E0	5.410895824E0	8.013393402E0	1.244984865E0
2.492980132E0	5.264849663E0	8.046912193E0	1.312022567E0
2.494170191E0	5.161899090E0	8.070854187E0	1.383848548E0
2.497037863E0	5.121197224E0	8.085219383E0	1.474828243E0
2.498639691E0	5.116408825E0	8.090007782E0	1.570596337E0
2.501070825E0	5.140350819E0	8.097189903E0	1.671152830E0
2.502323229E0	5.161899090E0	8.094796181E0	1.798045516E0
2.505127979E0	5.185841084E0	8.090007782E0	1.934514999E0
2.506939960E0	5.240907669E0	8.061277390E0	2.149993181E0
2.509193248E0	5.255272865E0	8.051700592E0	2.212242365E0
2.510400729E0	5.288791656E0	8.044517517E0	2.327163935E0
2.513250132E0	5.331887245E0	8.027758598E0	2.446874142E0
2.514923806E0	5.370194435E0	7.975085735E0	2.647987127E0
2.517054537E0	5.370194435E0	7.953537941E0	2.700659513E0
2.518507267E0	5.360617638E0	7.908048153E0	2.789244890E0
2.521356517E0	5.334281445E0	7.862558365E0	2.858676910E0
2.522779114E0	5.300762653E0	7.824251175E0	2.930502892E0
2.525398363E0	5.269638062E0	7.773972988E0	2.999934673E0
2.526590229E0	5.255272865E0	7.704541206E0	3.050212860E0
2.529455286E0	5.228936672E0	7.632715225E0	3.100491285E0
2.531081960E0	5.200206280E0	7.520187378E0	3.198653460E0
2.533490286E0	5.193023682E0	7.486668587E0	3.227383852E0
2.534692537E0	5.183446884E0	7.417236805E0	3.272873640E0
2.537546517E0	5.212177277E0	7.321468830E0	3.339911461E0
2.539207344E0	5.214571476E0	7.259219646E0	3.378218651E0
2.541594209E0	5.204994678E0	7.194576263E0	3.414131641E0
2.542777152E0	5.200206280E0	7.134721279E0	3.445256233E0
2.545650978E0	5.207388878E0	7.079654217E0	3.473986626E0
2.547354460E0	5.228936672E0	7.034164429E0	3.493140221E0
2.549726325E0	5.274426460E0	6.991068840E0	3.514688015E0
2.550965037E0	5.339069843E0	6.947973251E0	3.543418407E0
2.553782863E0	5.379771233E0	6.914454460E0	3.567360640E0
2.555381152E0	5.377377033E0	6.890512466E0	3.581725836E0
2.557669306E0	5.360617638E0	6.885724068E0	3.591302633E0
2.558996344E0	5.334281445E0	6.888118267E0	3.612850428E0
2.561870171E0	5.324704647E0	6.892906666E0	3.634398222E0
2.563166883E0	5.351040840E0	6.909666061E0	3.648763418E0
2.565966132E0	5.372588634E0	6.921637058E0	3.667917013E0
2.567188960E0	5.394136429E0	6.926425457E0	3.689464808E0
2.570056632E0	5.379771233E0	6.947973251E0	3.708618402E0
2.571758498E0	5.346252441E0	6.981492043E0	3.737348795E0
2.574091132E0	5.334281445E0	7.015010834E0	3.785232782E0
2.575341575E0	5.317522049E0	7.038952827E0	3.825934410E0
2.578147709E0	5.298368454E0	7.038952827E0	3.835511208E0
2.579748998E0	5.262455463E0	7.026981831E0	3.732560396E0
2.582180901E0	5.272032261E0	6.983886242E0	3.287238836E0
2.583362767E0	5.442020416E0	6.830657482E0	2.348711967E0
2.586237094E0	6.071695328E0	6.617573261E0	8.738836050E-1
2.587965191E0	7.053318024E0	6.399701118E0	-1.043871999E0
2.590292555E0	7.003039837E0	6.387730122E0	-1.094150186E0
2.591534652E0	6.347028732E0	6.394912720E0	2.873042040E-2
2.594349978E0	5.573701382E0	6.351817131E0	1.862688899E0
2.595933267E0	4.910507679E0	6.234501362E0	3.442862034E0
2.598138806E0	4.733336926E0	6.210559368E0	3.622427225E0
2.599563460E0	4.304774761E0	6.184223175E0	3.933673382E0
2.602440170E0	4.106055737E0	6.239289761E0	4.656722069E0
2.603922037E0	4.551377296E0	6.512228489E0	5.762843609E0
2.606523863E0	5.334281445E0	6.663063526E0	5.796362400E0
2.607737075E0	6.184223175E0	6.732495308E0	5.248090267E0
2.610580786E0	6.950367451E0	6.732495308E0	4.505887508E0
2.612218883E0	7.472303391E0	6.679822922E0	3.854664803E0
2.614632017E0	7.666234016E0	6.567295074E0	3.335123062E0
2.615834998E0	7.613561630E0	6.402095318E0	2.975992680E0
2.618689401E0	7.477091789E0	6.239289761E0	2.806004286E0
2.620280652E0	7.331045628E0	6.081272125E0	2.868253708E0
2.622722632E0	7.206547260E0	5.966350555E0	3.191470861E0
2.623901614E0	7.139509678E0	5.908889771E0	3.653551817E0
2.626779940E0	7.177816868E0	5.884947777E0	4.094084740E0
2.628580614E0	7.230489254E0	5.853823185E0	4.369418144E0
2.630846170E0	7.259219646E0	5.815515995E0	4.438849926E0
2.632045960E0	7.388506413E0	5.784391403E0	4.455609322E0
2.634903478E0	7.642292023E0	5.772420406E0	4.558559895E0
2.636536767E0	7.785943985E0	5.774814606E0	4.781220913E0
2.638716614E0	7.752425194E0	5.846640587E0	5.087678432E0
2.640138344E0	7.541735172E0	6.002263546E0	5.355829239E0
2.643009286E0	7.105990410E0	6.224924564E0	5.597643375E0
2.644274152E0	6.342240334E0	6.440402508E0	5.621585369E0
2.647106709E0	5.805939198E0	6.536170483E0	5.631162167E0
2.648317690E0	5.264849663E0	6.821080685E0	6.021417141E0
2.651198940E0	5.161899090E0	7.137115479E0	6.275202751E0
2.652804421E0	5.489904404E0	7.141903877E0	5.920860767E0
2.655234132E0	5.190629482E0	7.249642849E0	5.887341976E0
2.656433652E0	5.142745018E0	7.405265808E0	5.856217384E0
2.659291401E0	5.042188644E0	7.481880188E0	5.676652431E0
2.660955921E0	4.924872875E0	7.704541206E0	5.643133640E0
2.663340363E0	5.135562420E0	7.663839817E0	5.542576790E0
2.664521421E0	5.272032261E0	7.570465565E0	5.248090267E0
2.667397170E0	5.003881454E0	7.709329605E0	5.070919037E0
2.669115190E0	5.604825974E0	7.692570210E0	4.862623692E0
2.671461593E0	5.861005783E0	7.515398979E0	4.704606533E0
2.672730383E0	5.590460777E0	7.371747017E0	4.515464306E0
2.675518170E0	6.248866558E0	7.271190643E0	4.424484730E0
2.677101306E0	6.967126846E0	7.024587631E0	4.197035789E0
2.679299998E0	6.924031258E0	7.060500622E0	4.110844135E0
2.680721844E0	7.220912457E0	7.017405033E0	4.062960148E0
2.683606593E0	7.551311970E0	6.703764915E0	3.876212597E0
2.685065383E0	7.228095055E0	6.581660271E0	3.852270603E0
2.687681209E0	7.144298077E0	6.418854713E0	3.722983599E0
2.688848652E0	6.780379295E0	6.392518520E0	3.426102638E0
2.691738324E0	6.438008308E0	6.382941723E0	3.148375273E0
2.693326729E0	5.746084213E0	6.212953568E0	2.753331900E0
2.695772016E0	5.020640850E0	6.052541733E0	2.415749550E0
2.696946960E0	4.414907932E0	5.956773758E0	2.066195965E0
2.699828016E0	3.876212597E0	5.729324818E0	1.728613615E0
2.701481460E0	2.559401512E0	5.537788391E0	1.501164436E0
2.703861862E0	-1.556231081E-1	5.664681435E0	1.508347034E0
2.705036114E0	-3.368641853E0	6.057330132E0	1.946485996E0
2.707918747E0	-4.544194698E0	6.536170483E0	2.813186884E0
2.709630306E0	-2.406172752E0	6.574477673E0	3.517082214E0
2.711973593E0	1.359906554E0	6.232107162E0	3.770867586E0
2.713150383E0	4.577713490E0	5.951985359E0	3.890577793E0
2.716029862E0	6.088454723E0	5.918466568E0	3.981557369E0
2.717610190E0	6.069301128E0	6.081272125E0	4.225766182E0
2.719811652E0	5.973533154E0	6.229712963E0	4.541800499E0
2.721237652E0	6.655880928E0	6.167463779E0	4.505887508E0
2.724118824E0	7.682993412E0	5.995080948E0	4.299986362E0
2.725399113E0	8.269572258E0	5.837063789E0	4.077325344E0
2.728238632E0	7.802703381E0	5.616796970E0	3.835511208E0
2.729451460E0	7.065289021E0	5.432443619E0	3.691859007E0
2.732330324E0	6.615179062E0	5.374982834E0	3.622427225E0
2.733962844E0	6.416460514E0	5.583278179E0	3.608062029E0
2.736380555E0	6.291962147E0	5.679046631E0	3.620033026E0
2.737551883E0	6.071695328E0	5.892130375E0	3.667917013E0
2.740437978E0	5.983109951E0	6.157886982E0	3.797203779E0
2.742019921E0	7.043741226E0	6.687005520E0	4.209006786E0
2.744470670E0	7.747636795E0	6.854599476E0	4.352658749E0
2.745675998E0	9.289502144E0	7.129932880E0	4.537012100E0
2.748527362E0	1.083376312E1	7.345410824E0	4.537012100E0
2.750206575E0	1.035731697E1	7.309497833E0	4.393360138E0
2.752590670E0	9.390059471E0	7.292738438E0	4.254496574E0
2.753760921E0	8.714894295E0	7.431602001E0	4.129997730E0
2.756647055E0	8.346187592E0	7.666234016E0	4.003105164E0
2.758253344E0	7.663839817E0	7.836222172E0	3.801992416E0
2.760451498E0	7.690176010E0	8.082824707E0	3.694253206E0
2.761879421E0	7.864952564E0	8.358158112E0	3.552995205E0
2.764750324E0	7.680599213E0	8.556877136E0	3.416525841E0
2.766116575E0	8.056488991E0	8.820239067E0	3.375824451E0
2.768809208E0	7.960720539E0	8.935160637E0	3.258508444E0
2.769995844E0	6.864176273E0	8.693346024E0	3.095702887E0
2.772866247E0	6.447585106E0	8.523358345E0	3.011905670E0
2.774455037E0	6.181828976E0	8.386888504E0	2.885013103E0
2.776902131E0	6.272808552E0	8.276755333E0	2.738966703E0
2.778895478E0	7.105990410E0	8.276755333E0	2.640804529E0
2.780958093E0	6.555324078E0	8.003816605E0	2.501940727E0
2.782565190E0	6.057330132E0	7.699752808E0	2.410961151E0
2.785005170E0	5.549759388E0	7.381323814E0	2.327163935E0
2.786180229E0	4.151545525E0	6.811503887E0	2.276885748E0
2.789061554E0	3.117250681E0	6.222530365E0	2.279279947E0
2.790771113E0	2.576161146E0	5.540182590E0	2.236184359E0
2.793136401E0	2.370259762E0	5.327098846E0	2.200271368E0
2.794318921E0	2.398990154E0	4.989516258E0	2.116474390E0
2.797192708E0	3.327940464E0	4.836287498E0	2.025494576E0
2.798782037E0	5.762843609E0	4.970362663E0	1.960851192E0
2.800979998E0	6.538564682E0	5.063736439E0	1.953668594E0
2.802399190E0	7.211335659E0	5.183446884E0	1.953668594E0
2.805281824E0	6.232107162E0	5.094861031E0	1.965639591E0
2.806547960E0	5.367800236E0	5.037400246E0	2.001552582E0
2.809383439E0	5.571307182E0	5.183446884E0	2.073378563E0
2.810588344E0	6.605602264E0	5.506663799E0	2.159569979E0
2.813475862E0	7.687781811E0	5.872976780E0	2.231395960E0
2.815078806E0	8.705317497E0	6.320692539E0	2.336740971E0
2.817512170E0	8.487444878E0	6.536170483E0	2.557007313E0
2.818689652E0	8.286332130E0	6.679822922E0	2.817975283E0
2.821569516E0	7.984662533E0	6.718130112E0	2.894589901E0
2.823164690E0	7.062894821E0	6.730101109E0	2.815581083E0
2.825603208E0	5.549759388E0	6.701370716E0	2.693476915E0
2.826776344E0	3.706224203E0	6.579266071E0	2.628833532E0
2.829659708E0	2.475604534E0	6.512228489E0	2.549824715E0
2.831409844E0	2.336740971E0	6.636727333E0	2.425326347E0
2.833714477E0	3.134010077E0	6.967126846E0	2.348711967E0
2.835002075E0	4.814739704E0	7.503427982E0	2.398990154E0
2.837770823E0	5.291185856E0	7.941566944E0	2.597708941E0
2.839354113E0	5.264849663E0	8.310274124E0	2.863465309E0
2.841544267E0	5.940014362E0	8.688557625E0	3.098097086E0
2.842971306E0	6.493074894E0	8.971074104E0	3.306392431E0
2.845859823E0	6.162675381E0	8.932766914E0	3.581725836E0
2.847148960E0	5.580883980E0	8.726864815E0	3.835511208E0
2.849988093E0	5.410895824E0	8.611943245E0	3.974374771E0
2.851223536E0	5.451597214E0	8.571242332E0	3.991134167E0
2.854080054E0	5.748478413E0	8.547300339E0	3.936067581E0
2.855677806E0	6.174646378E0	8.547300339E0	3.900154591E0
2.858130170E0	6.433219910E0	8.477868080E0	3.909731388E0
2.859306421E0	6.742072105E0	8.384494781E0	3.835511208E0
2.862187785E0	7.730877399E0	8.492233276E0	3.658340216E0
2.863770460E0	8.501810074E0	8.712499619E0	3.493140221E0
2.866221169E0	8.125920296E0	8.719682693E0	3.548206806E0
2.867387036E0	7.716512203E0	8.647856712E0	3.586514235E0
2.870278169E0	1.251928043E1	9.392453194E0	3.174711466E0
2.871963536E0	1.828691292E1	1.092234802E1	2.925714493E0
2.874344131E0	1.900517273E1	1.134372807E1	2.913743496E0
2.875516306E0	1.877532959E1	1.198058510E1	2.985569477E0
2.878400246E0	1.679053688E1	1.232056236E1	3.260902643E0
2.879999190E0	1.216254425E1	1.225113010E1	3.620033026E0
2.882192575E0	1.029746151E1	1.207874775E1	3.550601006E0
2.883617613E0	6.457161903E0	1.168609810E1	3.244143248E0
2.886506054E0	1.479616642E0	1.108994198E1	2.748543501E0
2.887750844E0	-5.937620401E-1	1.073560047E1	2.398990154E0
2.890598592E0	-1.151610970E0	1.057279491E1	2.032677174E0
2.892189498E0	-4.548983276E-1	1.054885292E1	1.805228114E0
2.894691054E0	9.121908545E-1	1.052491093E1	1.750161409E0
2.896281767E0	2.384624958E0	1.044350815E1	1.790862918E0
2.898727016E0	3.624821424E0	1.030224991E1	1.872265697E0
2.899892806E0	4.498704910E0	1.011550236E1	1.960851192E0
2.902784054E0	5.037400246E0	9.883264542E0	2.013523579E0
2.904380998E0	5.099649429E0	9.555258751E0	1.999158382E0
2.906832208E0	4.723760128E0	9.157821655E0	1.991975784E0
2.908006960E0	4.156333923E0	8.702922821E0	1.999158382E0
2.910888400E0	3.804386616E0	8.334216118E0	2.049436569E0
2.912613229E0	3.689464808E0	8.063671112E0	2.121262789E0
2.914952785E0	3.564966440E0	7.802703381E0	2.176329374E0
2.916199690E0	3.366247654E0	7.524975777E0	2.236184359E0
2.919009554E0	3.105279684E0	7.194576263E0	2.315192938E0
2.920597036E0	2.803610086E0	6.825869083E0	2.396595955E0
2.922795036E0	2.621650934E0	6.435614109E0	2.487575531E0
2.924215113E0	2.631227732E0	6.088454723E0	2.516305923E0
2.927098246E0	2.683900118E0	5.746084213E0	2.492363930E0
2.928412421E0	2.691082716E0	5.410895824E0	2.468421936E0
2.931137554E0	2.645592928E0	5.066130638E0	2.446874142E0
2.932316344E0	2.655169725E0	4.762067318E0	2.439691544E0
2.935194246E0	2.798821688E0	4.548983097E0	2.456450939E0
2.936790306E0	2.932897091E0	4.453215122E0	2.636016130E0
2.939229592E0	2.932897091E0	4.472368717E0	2.746149302E0
2.940437921E0	3.162740469E0	4.637568474E0	3.016694069E0
2.943286400E0	3.749319792E0	4.951209068E0	3.258508444E0
2.944882729E0	4.321534157E0	5.422866821E0	3.450044632E0
2.947319708E0	4.311957359E0	5.542576790E0	3.464409828E0
2.948505575E0	4.118026733E0	5.729324818E0	3.442862034E0
2.951376631E0	3.916913986E0	5.882553577E0	3.399766445E0
2.953112575E0	3.801992416E0	6.088454723E0	3.359065056E0
2.955432246E0	3.806780815E0	6.141127586E0	3.354276657E0
2.956603267E0	3.823540211E0	6.212953568E0	3.366247654E0
2.959488592E0	3.804386616E0	6.246472359E0	3.390189648E0
2.961085959E0	3.766079187E0	6.227318764E0	3.383007050E0
2.963279152E0	3.711012602E0	6.189011574E0	3.373430252E0
2.964706113E0	3.663128614E0	6.136339188E0	3.385401249E0
2.967577400E0	3.632004023E0	6.069301128E0	3.406949043E0
2.968862844E0	3.622427225E0	6.016628742E0	3.399766445E0
2.971672592E0	3.627215624E0	5.975927353E0	3.390189648E0
2.973447459E0	3.665522814E0	5.940014362E0	3.402160645E0
2.975764169E0	3.677493811E0	5.911283970E0	3.394978046E0
2.977426498E0	3.687070608E0	5.887341976E0	3.387795448E0
2.979814438E0	3.694253206E0	5.875370979E0	3.409343243E0
2.981001959E0	3.634398222E0	5.882553577E0	3.447650433E0
2.983870169E0	3.509899616E0	5.877765179E0	3.473986626E0
2.985473613E0	3.459621429E0	5.875370979E0	3.488351822E0
2.987902900E0	3.521870613E0	5.896918774E0	3.505111217E0
2.989079921E0	3.591302633E0	5.956773758E0	3.524264812E0
2.991958861E0	3.622427225E0	6.030993938E0	3.543418407E0
2.993686459E0	3.617638826E0	6.114790916E0	3.576937437E0
2.996024438E0	3.615244627E0	6.208165169E0	3.605667830E0
2.997241036E0	3.586514235E0	6.299144745E0	3.617638826E0
3.000080131E0	3.459621429E0	6.356605530E0	3.627215624E0
3.001706113E0	3.284844637E0	6.385335922E0	3.639186621E0
3.003896959E0	3.141192675E0	6.414066315E0	3.622427225E0
3.005323344E0	3.095702887E0	6.469132900E0	3.562572241E0
3.008183015E0	3.078943491E0	6.528987885E0	3.500322819E0
3.009493536E0	3.112462282E0	6.603208065E0	3.447650433E0
3.012210284E0	3.196259260E0	6.679822922E0	3.404554844E0
3.013398998E0	3.169923067E0	6.696582317E0	3.380612850E0
3.016265592E0	3.112462282E0	6.718130112E0	3.387795448E0
3.017951113E0	3.320757866E0	6.866570473E0	3.428496838E0
3.020299515E0	3.404554844E0	6.907271862E0	3.440467834E0
3.021531690E0	3.627215624E0	6.995857239E0	3.435679436E0
3.024355515E0	3.916913986E0	7.103596210E0	3.430891037E0
3.025995075E0	4.180276394E0	7.264008045E0	3.478775024E0
3.028402977E0	4.256890774E0	7.311892033E0	3.500322819E0
3.029581113E0	4.441244125E0	7.407660007E0	3.548206806E0
3.032459323E0	4.745307922E0	7.572859764E0	3.658340216E0
3.034167344E0	4.979939461E0	7.692570210E0	3.751713991E0
3.036535630E0	5.207388878E0	7.795520782E0	3.869029999E0
3.037818652E0	5.386953831E0	7.864952564E0	4.005499363E0
3.040591938E0	5.511452198E0	7.927201748E0	4.125209332E0
3.042279075E0	5.612008572E0	7.960720539E0	4.240131378E0
3.044516229E0	5.726930618E0	7.977479935E0	4.352658749E0
3.045881344E0	5.868188381E0	8.018181801E0	4.474762917E0
3.048681938E0	6.004657745E0	8.070854187E0	4.601655483E0
3.049947113E0	6.141127586E0	8.130708694E0	4.738125324E0
3.052778746E0	6.287173748E0	8.200140953E0	4.855441093E0
3.054003959E0	6.409277916E0	8.259995461E0	4.953603268E0
3.056870053E0	6.495469093E0	8.305485725E0	5.058948040E0
3.058487652E0	6.555324078E0	8.334216118E0	5.161899090E0
3.060904630E0	6.636727333E0	8.367734909E0	5.233725071E0
3.062088036E0	6.715735912E0	8.389283180E0	5.269638062E0
3.064961053E0	6.737283707E0	8.413225174E0	5.295974255E0
3.066562075E0	6.727706909E0	8.418013573E0	5.322310448E0
3.068993515E0	6.722918510E0	8.398859978E0	5.331887245E0
3.070174613E0	6.710947514E0	8.367734909E0	5.351040840E0
3.073050053E0	6.639121532E0	8.317456245E0	5.355829239E0
3.074806344E0	6.428431511E0	8.224082947E0	5.391742229E0
3.077104976E0	6.426037312E0	8.192957878E0	5.386953831E0
3.078303613E0	6.497863293E0	8.104372978E0	5.307945251E0
3.081162284E0	6.588842869E0	7.984662533E0	5.183446884E0
3.082772113E0	6.648698330E0	7.757213593E0	4.970362663E0
3.084970921E0	6.641515732E0	7.671022415E0	4.896142483E0
3.086361806E0	6.612784863E0	7.489062786E0	4.759673119E0
3.089252246E0	6.481103897E0	7.302315235E0	4.680664539E0
3.090550075E0	6.078877926E0	7.094019413E0	4.675876141E0
3.093294130E0	5.664681435E0	6.890512466E0	4.637568474E0
3.094470306E0	5.683835030E0	6.706159115E0	4.515464306E0
3.097350669E0	5.992686749E0	6.538564682E0	4.335899353E0
3.098995729E0	6.323086739E0	6.303933144E0	4.005499363E0
3.101401246E0	6.330269337E0	6.239289761E0	3.885789394E0
3.102640498E0	6.229712963E0	6.138733387E0	3.634398222E0
3.105458476E0	6.038176537E0	5.992686749E0	3.287238836E0
3.107044113E0	5.928043365E0	5.896918774E0	3.148375273E0
3.109492784E0	5.791574001E0	5.834669590E0	3.105279684E0
3.110698767E0	5.643133640E0	5.798756599E0	3.153163671E0
3.113549938E0	5.494692802E0	5.793968201E0	3.265691042E0
3.115237882E0	5.341464043E0	5.805939198E0	3.392583847E0
3.117614592E0	5.238513470E0	5.815515995E0	3.509899616E0
3.118800075E0	5.209783077E0	5.825092793E0	3.588908434E0
3.121671130E0	5.200206280E0	5.839457989E0	3.636792421E0
3.123290729E0	5.204994678E0	5.839457989E0	3.663128614E0
3.125466921E0	5.236119270E0	5.827486992E0	3.670311213E0
3.126921421E0	5.272032261E0	5.813121796E0	3.653551817E0
3.129776092E0	5.300762653E0	5.822698593E0	3.622427225E0
3.131078498E0	5.310339451E0	5.832275391E0	3.586514235E0
3.133871745E0	5.370194435E0	5.832275391E0	3.552995205E0
3.135120421E0	5.492298603E0	5.832275391E0	3.526659012E0
3.137963861E0	5.597643375E0	5.849034786E0	3.495534420E0
3.139739498E0	5.652710438E0	5.880159378E0	3.459621429E0
3.141999476E0	5.676652431E0	5.916072369E0	3.433285236E0
3.143236036E0	5.667075634E0	5.951985359E0	3.421314240E0
3.146057053E0	5.659893036E0	5.987898350E0	3.418920040E0
3.147783152E0	5.667075634E0	6.028599739E0	3.418920040E0
3.150104976E0	5.710171223E0	6.059724331E0	3.423708439E0
3.151328959E0	5.736507416E0	6.093243122E0	3.445256233E0
3.154162361E0	5.741295815E0	6.126761913E0	3.473986626E0
3.155961652E0	5.762843609E0	6.160281181E0	3.519476414E0
3.158228899E0	5.758055210E0	6.169857979E0	3.538630009E0
3.159437229E0	5.731719017E0	6.208165169E0	3.581725836E0
3.162286745E0	5.710171223E0	6.256049156E0	3.620033026E0
3.163889767E0	5.676652431E0	6.311115742E0	3.687070608E0
3.166083921E0	5.674258232E0	6.323086739E0	3.713406801E0
3.167608190E0	5.674258232E0	6.361393929E0	3.766079187E0
3.170378861E0	5.688623428E0	6.404489517E0	3.809175014E0
3.171847998E0	5.686229229E0	6.459556103E0	3.873818398E0
3.174460784E0	5.674258232E0	6.497863293E0	3.904942989E0
3.175656229E0	5.679046631E0	6.538564682E0	3.931279182E0
3.178517861E0	5.707777023E0	6.564900875E0	3.960009575E0
3.180135921E0	5.738901615E0	6.588842869E0	3.988739967E0
3.182553438E0	5.762843609E0	6.612784863E0	4.000710964E0
3.183752844E0	5.772420406E0	6.641515732E0	4.010287762E0
3.186610437E0	5.781997204E0	6.665457726E0	4.015076160E0
3.188235536E0	5.815515995E0	6.677428722E0	4.005499363E0
3.190643168E0	5.863399982E0	6.677428722E0	3.991134167E0
3.191843652E0	5.913678169E0	6.670246124E0	3.981557369E0
3.194699899E0	5.997475147E0	6.672640324E0	3.969586372E0
3.196452305E0	6.107608318E0	6.696582317E0	3.976768970E0
3.198753899E0	6.189011574E0	6.715735912E0	3.948038578E0
3.199964152E0	6.284779549E0	6.727706909E0	3.835511208E0
3.202810322E0	6.449979305E0	6.730101109E0	3.718195200E0
3.204442652E0	6.682217121E0	6.744466305E0	3.584120035E0
3.206628459E0	6.957550049E0	6.777985096E0	3.457227230E0
3.208049344E0	7.242460251E0	6.806715488E0	3.335123062E0
3.210899284E0	7.503427982E0	6.833051682E0	3.189076662E0
3.212194075E0	7.687781811E0	6.856993675E0	3.040636063E0
3.214997899E0	7.747636795E0	6.871358871E0	2.925714493E0
3.216240959E0	7.702147007E0	6.876147270E0	2.861071110E0
3.219088976E0	7.613561630E0	6.861782074E0	2.825158119E0
3.220739998E0	7.539340973E0	6.813898087E0	2.810792685E0
3.223138476E0	7.462726593E0	6.756437302E0	2.808398485E0
3.224581805E0	7.357381821E0	6.706159115E0	2.798821688E0
3.227194437E0	7.208941460E0	6.679822922E0	2.765302896E0
3.228820921E0	6.840234280E0	6.631938934E0	2.770091295E0
3.231226168E0	6.651092529E0	6.596025467E0	2.817975283E0
3.232459729E0	6.172252178E0	6.490680695E0	2.995146275E0
3.235281899E0	5.640739441E0	6.358999729E0	3.241749048E0
3.237040075E0	4.898536682E0	6.165069580E0	3.629609823E0
3.239346707E0	4.692635536E0	6.114790916E0	3.746925592E0
3.240626767E0	4.352658749E0	6.042964935E0	3.964797974E0
3.243402822E0	4.098873138E0	5.997475147E0	4.134786129E0
3.245164767E0	3.857059002E0	5.942408562E0	4.297592163E0
3.247287113E0	3.787626982E0	5.894524574E0	4.362235546E0
3.248667344E0	3.732560396E0	5.853823185E0	4.417302132E0
3.251505206E0	3.682282209E0	5.805939198E0	4.450820923E0
3.253144767E0	3.682282209E0	5.743690014E0	4.465186119E0
3.255610476E0	3.744531393E0	5.664681435E0	4.469974518E0
3.256923036E0	3.888183594E0	5.566518784E0	4.469974518E0
3.259666437E0	4.139574528E0	5.465962410E0	4.441244125E0
3.262000822E0	4.412513733E0	5.377377033E0	4.381389141E0
3.263700745E0	4.656722069E0	5.315127850E0	4.321534157E0
3.265080613E0	4.912901878E0	5.279214859E0	4.256890774E0
3.267756129E0	5.149928093E0	5.255272865E0	4.182670593E0
3.269413305E0	5.346252441E0	5.252878666E0	4.122815132E0
3.271802822E0	5.537788391E0	5.284003258E0	4.074931145E0
3.273063152E0	5.726930618E0	5.331887245E0	4.015076160E0
3.275857899E0	5.918466568E0	5.418078423E0	3.948038578E0
3.277747382E0	6.143521786E0	5.547365189E0	3.869029999E0
3.279930514E0	6.397306919E0	5.722142220E0	3.768473387E0
3.281243575E0	6.591237068E0	5.959167957E0	3.689464808E0
3.283985668E0	6.679822922E0	6.208165169E0	3.634398222E0
3.285633613E0	6.679822922E0	6.421248913E0	3.605667830E0
3.287836652E0	6.658275127E0	6.586448669E0	3.567360640E0
3.289312459E0	6.619967937E0	6.701370716E0	3.502717018E0
3.292073168E0	6.476315498E0	6.768408298E0	3.454833031E0
3.293371075E0	6.179434776E0	6.799532890E0	3.442862034E0
3.296174360E0	5.741295815E0	6.789956093E0	3.485957623E0
3.297405344E0	5.171475887E0	6.744466305E0	3.598485231E0
3.300265129E0	4.560954094E0	6.636727333E0	3.758896589E0
3.301871382E0	3.655946016E0	6.265625954E0	4.108449936E0
3.304300168E0	3.201047659E0	6.059724331E0	4.297592163E0
3.305511613E0	2.410961151E0	5.583278179E0	4.659116745E0
3.308356591E0	2.415749550E0	5.317522049E0	4.730942726E0
3.309959113E0	3.294421434E0	5.494692802E0	4.460397720E0
3.312389668E0	3.569754839E0	5.631162167E0	4.285621166E0
3.313566382E0	4.046200752E0	5.923254967E0	3.866635799E0
3.316446091E0	4.776432514E0	6.284779549E0	3.394978046E0
3.318202652E0	5.248090267E0	6.488286495E0	3.148375273E0
3.320500091E0	5.664681435E0	6.672640324E0	2.940079689E0
3.321687652E0	5.987898350E0	6.816292286E0	2.774879694E0
3.324556283E0	6.198588371E0	6.928819656E0	2.631227732E0
3.326140882E0	6.301538944E0	7.000645638E0	2.506729126E0
3.328334844E0	6.203376770E0	7.005434036E0	2.437297344E0
3.329761228E0	5.961562157E0	6.971915245E0	2.394201756E0
3.332645629E0	5.530605793E0	6.921637058E0	2.384624958E0
3.334084613E0	4.541800499E0	6.710947514E0	2.604891539E0
3.336760129E0	3.773261786E0	6.526593685E0	2.559401512E0
3.337941921E0	3.533841610E0	6.545747280E0	2.272097349E0
3.340817091E0	3.660734415E0	6.605602264E0	2.193088770E0
3.342436536E0	4.048594952E0	6.627150536E0	2.250549555E0
3.344867898E0	4.675876141E0	6.593631268E0	2.351106167E0
3.346070459E0	5.516240597E0	6.533776283E0	2.552218914E0
3.348925052E0	6.347028732E0	6.514622688E0	2.796427488E0
3.350531998E0	7.098807812E0	6.538564682E0	2.968810081E0
3.352958014E0	7.697358608E0	6.574477673E0	3.069366693E0
3.354218113E0	8.147468567E0	6.588842869E0	3.105279684E0
3.357014706E0	8.523358345E0	6.564900875E0	3.105279684E0
3.358715267E0	8.815450668E0	6.572083473E0	3.047818661E0
3.361079629E0	8.829815865E0	6.593631268E0	3.019088268E0
3.362260536E0	8.724471092E0	6.636727333E0	2.961627483E0
3.365135821E0	8.497021675E0	6.677428722E0	2.932897091E0
3.366741382E0	7.943961143E0	6.730101109E0	2.899378300E0
3.368938959E0	7.745242596E0	6.754043102E0	2.837129116E0
3.370377075E0	7.343016624E0	6.816292286E0	2.647987127E0
3.373238898E0	6.921637058E0	6.924031258E0	2.449268341E0
3.374525651E0	6.517016888E0	7.077260017E0	2.315192938E0
3.377364360E0	6.313509941E0	7.201758862E0	2.315192938E0
3.378571036E0	6.399701118E0	7.297526836E0	2.403778553E0
3.381456014E0	6.936002254E0	7.417236805E0	2.545036316E0
3.383042459E0	7.400477409E0	7.481880188E0	2.693476915E0
3.385491283E0	7.754819393E0	7.536946774E0	2.889801502E0
3.386697882E0	7.996633530E0	7.601590633E0	3.033453465E0
3.389548514E0	8.149862289E0	7.675810814E0	3.066972494E0
3.391161844E0	8.231265068E0	7.735665798E0	3.038241863E0
3.393596783E0	8.274360657E0	7.754819393E0	2.997540474E0
3.394781536E0	8.327033043E0	7.750030994E0	2.968810081E0
3.397653552E0	8.372523308E0	7.762001991E0	2.920926094E0
3.399351344E0	8.427590370E0	7.785943985E0	2.858676910E0
3.401719244E0	8.463502884E0	7.814674377E0	2.806004286E0
3.402943998E0	8.475474358E0	7.857769966E0	2.755726099E0
3.405776360E0	8.480262756E0	7.905653954E0	2.705447912E0
3.407376882E0	8.473079681E0	7.955932140E0	2.683900118E0
3.409574344E0	8.429984093E0	8.022970200E0	2.693476915E0
3.410999959E0	8.367734909E0	8.097189903E0	2.705447912E0
3.413867744E0	8.279149055E0	8.161833763E0	2.726995707E0
3.415304921E0	8.202534676E0	8.228871346E0	2.755726099E0
3.417926244E0	8.145073891E0	8.310274124E0	2.791639090E0
3.419183421E0	8.094796181E0	8.386888504E0	2.822763920E0
3.421983283E0	8.051700592E0	8.465897560E0	2.844311714E0
3.423594382E0	8.013393402E0	8.559270859E0	2.849100113E0
3.426018167E0	7.970297337E0	8.662221909E0	2.849100113E0
3.427247728E0	7.927201748E0	8.774748802E0	2.827552319E0
3.430075590E0	7.920019150E0	8.892065048E0	2.767697096E0
3.431671036E0	7.951143742E0	9.030928612E0	2.674323320E0
3.434109821E0	7.996633530E0	9.157821655E0	2.547430515E0
3.435287882E0	8.032546997E0	9.289502144E0	2.391807556E0
3.438166475E0	8.037335396E0	9.421183586E0	2.217030764E0
3.439917536E0	7.977479935E0	9.605537415E0	1.900996208E0
3.442221090E0	7.946355343E0	9.660603523E0	1.795651317E0
3.443412113E0	7.876923561E0	9.770736694E0	1.596932530E0
3.446277744E0	7.824251175E0	9.883264542E0	1.400607944E0
3.447873267E0	7.783549786E0	1.004846478E1	1.156399369E0
3.450079382E0	7.771578789E0	1.010831928E1	1.098938584E0
3.451609882E0	7.747636795E0	1.023281765E1	1.015141487E0
3.454369552E0	7.733271599E0	1.034295177E1	9.672574997E-1
3.455654998E0	7.766790390E0	1.048660374E1	9.840168953E-1
3.458489590E0	7.800309181E0	1.056800652E1	1.027112484E0
3.459716613E0	7.817068577E0	1.063264942E1	1.089361787E0
3.462581821E0	7.800309181E0	1.068053341E1	1.161187768E0
3.464275459E0	7.745242596E0	1.072602367E1	1.228225470E0
3.466632898E0	7.682993412E0	1.074996567E1	1.321599364E0
3.467929382E0	7.618350029E0	1.072602367E1	1.443703651E0
3.470690167E0	7.524975777E0	1.065898609E1	1.575384736E0
3.472293151E0	7.321468830E0	1.055842972E1	1.668758631E0
3.474723783E0	6.979097843E0	1.040280628E1	1.697489023E0
3.475923998E0	6.552929878E0	1.020887566E1	1.678335428E0
3.478781398E0	6.086060524E0	9.993397713E0	1.623268723E0
3.480505882E0	5.583278179E0	9.761159897E0	1.529894829E0
3.482847359E0	5.068524837E0	9.526528358E0	1.426944256E0
3.484025998E0	4.570530891E0	9.279925346E0	1.316810966E0
3.486904706E0	4.106055737E0	9.035717010E0	1.199495077E0
3.488507574E0	3.687070608E0	8.808267593E0	1.091755986E0
3.490732805E0	3.306392431E0	8.590395927E0	1.007958889E0
3.492134036E0	2.978386879E0	8.386888504E0	9.361328483E-1
3.495010052E0	2.700659513E0	8.176198959E0	8.810662031E-1
3.496424459E0	2.477998734E0	7.963114738E0	8.307880163E-1
3.499116398E0	2.300827742E0	7.762001991E0	7.900865674E-1
3.500298113E0	2.166752577E0	7.568071365E0	7.661445141E-1
3.503173859E0	2.066195965E0	7.386112213E0	7.565677166E-1
3.504808651E0	1.994369984E0	7.144298077E0	7.134721279E-1
3.507213744E0	1.982398987E0	7.070077419E0	6.943184733E-1
3.508470767E0	1.975216389E0	6.936002254E0	6.536170840E-1
3.511270975E0	2.001552582E0	6.835445881E0	6.177040339E-1
3.512876767E0	2.059013367E0	6.715735912E0	5.530605912E-1
3.515319782E0	2.075772762E0	6.679822922E0	5.315127969E-1
3.516497498E0	2.116474390E0	6.619967937E0	4.860229492E-1
3.519376513E0	2.169146776E0	6.579266071E0	4.333505034E-1
3.521067959E0	2.224213362E0	6.552929878E0	3.399766386E-1
3.523451167E0	2.272097349E0	6.579266071E0	2.537853718E-1
3.524629844E0	2.351106167E0	6.634333134E0	1.771709323E-1
3.527508398E0	2.427720547E0	6.720524311E0	8.619125932E-2
3.529088767E0	2.482787132E0	6.828263283E0	-1.197100803E-2
3.531293267E0	2.535459518E0	6.938396454E0	-1.077390760E-1
3.532707459E0	2.592920542E0	7.058106422E0	-2.011129409E-1
3.535600167E0	2.652775526E0	7.182605267E0	-3.088520169E-1
3.536861651E0	2.715024710E0	7.316680431E0	-4.333505034E-1
3.539698205E0	2.796427488E0	7.457938194E0	-5.410895944E-1
3.540902651E0	2.892195702E0	7.611167431E0	-6.488286853E-1
3.543789821E0	3.014299870E0	7.776367188E0	-7.493851185E-1
3.545393344E0	3.138798475E0	7.929595947E0	-8.523358107E-1
3.547825859E0	3.268085241E0	8.082824707E0	-9.624691010E-1
3.548986921E0	3.368641853E0	8.238448143E0	-1.043871999E0
3.551883051E0	3.418920040E0	8.372523308E0	-1.103726983E0
3.553462267E0	3.450044632E0	8.492233276E0	-1.163581967E0
3.555916551E0	3.476380825E0	8.592789650E0	-1.235408068E0
3.557078344E0	3.490746021E0	8.676587105E0	-1.316810966E0
3.559973051E0	3.536235809E0	8.746018410E0	-1.386242747E0
3.561687267E0	3.660734415E0	8.817844391E0	-1.453280449E0
3.564029167E0	3.713406801E0	8.836998940E0	-1.470039845E0
3.565205074E0	3.811569214E0	8.887276649E0	-1.513135433E0
3.568086321E0	3.866635799E0	8.923190117E0	-1.568202138E0
3.569672728E0	3.902548790E0	8.947132111E0	-1.709460020E0
3.571888882E0	3.931279182E0	8.939949036E0	-1.764526606E0
3.573309074E0	4.003105164E0	8.904036522E0	-1.877054095E0
3.576178244E0	4.106055737E0	8.851364136E0	-1.968033791E0
3.577628651E0	4.228160381E0	8.793902397E0	-2.015917778E0
3.580235398E0	4.369418144E0	8.738836288E0	-2.027888775E0
3.581399574E0	4.558559895E0	8.702922821E0	-2.035071373E0
3.584292205E0	4.754884720E0	8.690952301E0	-2.030282974E0
3.585961421E0	4.831499100E0	8.657433510E0	-1.972822189E0
3.588341474E0	4.826710701E0	8.640673637E0	-1.948880196E0
3.589524728E0	4.900930882E0	8.614337921E0	-1.891419291E0
3.592398744E0	5.011064053E0	8.590395927E0	-1.802833915E0
3.594064613E0	5.329493046E0	8.552088737E0	-1.661576033E0
3.596431397E0	5.592854977E0	8.528146744E0	-1.558625340E0
3.597610767E0	5.827486992E0	8.504204750E0	-1.414973259E0
3.600488590E0	5.997475147E0	8.482656479E0	-1.252167463E0
3.602183690E0	6.136339188E0	8.461109161E0	-1.106121182E0
3.604554590E0	6.284779549E0	8.434772491E0	-9.481038451E-1
3.605739844E0	6.461950302E0	8.394071579E0	-7.805097699E-1
3.608610705E0	6.636727333E0	8.358158112E0	-6.177040339E-1
3.610207074E0	6.794744492E0	8.319850922E0	-4.596867263E-1
3.612426305E0	6.933608055E0	8.295908928E0	-3.327940404E-1
3.613837574E0	7.086836815E0	8.279149055E0	-2.298433632E-1
3.616716513E0	7.259219646E0	8.262390137E0	-1.412578970E-1
3.617983382E0	7.448361397E0	8.228871346E0	-5.985504389E-2
3.620813513E0	7.611167431E0	8.212111473E0	0.000000000E0
3.622042190E0	7.690176010E0	8.228871346E0	5.746084079E-2
3.624904974E0	7.694964409E0	8.252813339E0	1.101332754E-1
3.626530036E0	7.651868820E0	8.271966934E0	1.508347094E-1
3.628940782E0	7.601590633E0	8.281543732E0	1.843535304E-1
3.630136574E0	7.556100368E0	8.267178535E0	2.178723514E-1
3.632997551E0	7.469909191E0	8.243236542E0	2.418143749E-1
3.634732882E0	7.357381821E0	8.231265068E0	2.753331959E-1
3.637046282E0	7.240066051E0	8.236053467E0	3.256114423E-1
3.638241921E0	7.165845871E0	8.236053467E0	2.466027737E-1
3.641103090E0	7.089231014E0	8.228871346E0	-4.716577232E-1
3.642953113E0	7.383718014E0	8.262390137E0	-8.595184088E-1
3.645166320E0	7.584830761E0	8.300697327E0	-7.110779285E-1
3.646347151E0	7.958326340E0	8.384494781E0	-5.003881454E-1
3.649223051E0	7.975085735E0	8.451532364E0	-5.075707436E-1
3.650807959E0	7.534552574E0	8.530540466E0	-5.698199868E-1
3.653025767E0	7.441178799E0	8.599972725E0	-6.320692301E-1
3.654433151E0	7.417236805E0	8.760383606E0	-1.010353088E0
3.657312705E0	7.517793179E0	8.882488251E0	-1.747767210E0
3.658780728E0	7.596801758E0	8.968679428E0	-3.026270866E0
3.661372705E0	7.536946774E0	8.990227699E0	-3.383007050E0
3.662542459E0	7.307103634E0	9.002198219E0	-3.883395195E0
3.665429936E0	6.883329868E0	8.939949036E0	-3.761290789E0
3.667042382E0	6.517016888E0	8.904036522E0	-3.131615877E0
3.669465666E0	6.315904140E0	8.827422142E0	-2.133233786E0
3.670684805E0	6.358999729E0	8.705317497E0	-1.022324085E0
3.673522320E0	6.634333134E0	8.559270859E0	6.703764945E-2
3.675224728E0	7.048529625E0	8.331821442E0	1.247379065E0
3.677555051E0	7.173028469E0	8.133103371E0	2.341529369E0
3.678730613E0	6.847416878E0	8.034940720E0	3.143586874E0
3.681611743E0	6.533776283E0	7.922413349E0	3.703830004E0
3.683339228E0	6.801927090E0	7.599195957E0	4.149151325E0
3.685667359E0	7.369352818E0	7.211335659E0	4.319139957E0
3.686857651E0	7.785943985E0	6.902483463E0	4.264073372E0
3.689724820E0	7.876923561E0	6.701370716E0	3.981557369E0
3.691334959E0	7.788338184E0	6.572083473E0	3.557783842E0
3.693500190E0	7.615955830E0	6.524199486E0	3.256114244E0
3.694998151E0	7.474697590E0	6.517016888E0	3.031059265E0
3.697816436E0	7.433996201E0	6.488286495E0	2.736572504E0
3.699063536E0	7.290344238E0	6.481103897E0	2.358288765E0
3.701908743E0	7.091625214E0	6.495469093E0	1.891419291E0
3.703132344E0	6.940790653E0	6.528987885E0	1.422155857E0
3.706000897E0	6.914454460E0	6.560112476E0	1.010353088E0
3.707611420E0	6.971915245E0	6.564900875E0	6.775590777E-1
3.710051166E0	6.945579052E0	6.607996464E0	3.854664862E-1
3.711233690E0	6.801927090E0	6.698976517E0	1.460463107E-1
3.714107628E0	6.569689274E0	6.797138691E0	-1.197100803E-2
3.715713113E0	6.282385349E0	6.947973251E0	-1.197100878E-1
3.718140820E0	6.177040577E0	7.012616634E0	-1.412578970E-1
3.719312113E0	5.959167957E0	7.146692276E0	-1.675941199E-1
3.722197089E0	5.755661011E0	7.285555840E0	-2.011129409E-1
3.723880882E0	5.300762653E0	7.474697590E0	-2.154781520E-1
3.726261705E0	5.099649429E0	7.517793179E0	-1.699883193E-1
3.727440882E0	4.920084476E0	7.608773232E0	-8.619125932E-2
3.730318628E0	4.932055473E0	7.726089001E0	4.788403399E-3
3.731932882E0	4.951209068E0	7.860164165E0	1.651999205E-1
3.734116305E0	4.951209068E0	7.876923561E0	2.082955539E-1
3.735534805E0	4.955997467E0	7.905653954E0	3.016694188E-1
3.738424474E0	4.967968464E0	7.984662533E0	4.764461517E-1
3.739846344E0	5.037400246E0	8.032546997E0	6.129156351E-1
3.742504089E0	5.123591423E0	8.061277390E0	7.110779285E-1
3.743692074E0	5.147533417E0	8.118738174E0	7.876923680E-1
3.746561705E0	5.128379822E0	8.188169479E0	8.523358107E-1
3.748164151E0	5.109226227E0	8.236053467E0	8.858546019E-1
3.750597243E0	5.116408825E0	8.250418663E0	9.074024558E-1
3.751766344E0	5.128379822E0	8.219294548E0	9.720458984E-1
3.754654974E0	5.157110691E0	8.164227486E0	1.058237195E0
3.756264420E0	5.173870087E0	8.118738174E0	1.113303781E0
3.758704205E0	5.094861031E0	8.135497093E0	1.046266198E0
3.759899613E0	4.829104900E0	8.269572258E0	8.355764151E-1
3.762761897E0	4.460397720E0	8.489839554E0	5.578489900E-1
3.764461151E0	4.175487995E0	8.686163902E0	3.375824392E-1
3.766837397E0	4.050989151E0	8.772355080E0	2.370259613E-1
3.768004959E0	4.050989151E0	8.798690796E0	1.723825186E-1
3.770894128E0	4.122815132E0	8.813055992E0	8.858546615E-2
3.772518844E0	4.252102375E0	8.791508675E0	-1.915361360E-2
3.774744613E0	4.410119534E0	8.750806808E0	-1.268926859E-1
3.776099959E0	4.541800499E0	8.717288017E0	-2.082955539E-1
3.778983897E0	4.594472885E0	8.690952301E0	-2.633621991E-1
3.780263728E0	4.596867085E0	8.664615631E0	-2.609679997E-1
3.783096089E0	4.608838081E0	8.621520042E0	-2.489969730E-1
3.784316344E0	4.632780075E0	8.583212852E0	-2.466027737E-1
3.787188243E0	4.659116745E0	8.571242332E0	-2.513911724E-1
3.788802344E0	4.754884720E0	8.561665535E0	-2.968810201E-1
3.791224243E0	4.797980309E0	8.559270859E0	-3.303998411E-1
3.792420497E0	4.865017891E0	8.561665535E0	-4.118026793E-1
3.795280858E0	4.896142483E0	8.585607529E0	-5.003881454E-1
3.796921805E0	4.757278919E0	8.690952301E0	-6.584054828E-1
3.799314051E0	4.675876141E0	8.753201485E0	-7.493851185E-1
3.800481420E0	4.522646904E0	8.899248123E0	-9.840168953E-1
3.803370358E0	4.381389141E0	9.057265282E0	-1.213860273E0
3.805114151E0	4.268861771E0	9.253589630E0	-1.395819545E0
3.807424435E0	4.333505154E0	9.277531624E0	-1.419761658E0
3.808604305E0	4.472368717E0	9.239224434E0	-1.400607944E0
3.811480743E0	4.601655483E0	9.215282440E0	-1.379060149E0
3.813060690E0	4.683058739E0	9.224859238E0	-1.362300754E0
3.815258882E0	4.723760128E0	9.244012833E0	-1.316810966E0
3.816678920E0	4.740519524E0	9.251194954E0	-1.240196466E0
3.819569974E0	4.759673119E0	9.251194954E0	-1.161187768E0
3.821056574E0	4.805162907E0	9.232041359E0	-1.077390790E0
3.823643089E0	4.817133904E0	9.196128845E0	-9.600749016E-1
3.824818228E0	4.786009312E0	9.155426979E0	-8.499416113E-1
3.827700281E0	4.733336926E0	9.141061783E0	-7.829039693E-1
3.829360074E0	4.697423935E0	9.179368973E0	-7.661445141E-1
3.831751397E0	4.623203278E0	9.260771751E0	-7.517793179E-1
3.832929305E0	4.496310711E0	9.344569206E0	-7.398083210E-1
3.835808627E0	4.378994942E0	9.449913979E0	-7.350199223E-1
3.837398805E0	4.259284973E0	9.557653427E0	-7.374141216E-1
3.839842358E0	4.115632534E0	9.639056206E0	-7.110779285E-1
3.841025651E0	4.000710964E0	9.691728592E0	-6.607996821E-1
3.843899473E0	3.960009575E0	9.715670586E0	-5.961562395E-1
3.845586190E0	3.928884983E0	9.732429504E0	-5.243301988E-1
3.847964281E0	3.912125587E0	9.725247383E0	-4.572925270E-1
3.849136574E0	3.931279182E0	9.696516991E0	-4.022258818E-1
3.852021320E0	3.981557369E0	9.660603523E0	-3.519476354E-1
3.853620613E0	4.053383350E0	9.624691010E0	-3.280056417E-1
3.855910767E0	4.149151325E0	9.579200745E0	-3.256114423E-1
3.857246767E0	4.304774761E0	9.507374763E0	-3.256114423E-1
3.860126358E0	4.496310711E0	9.394847870E0	-3.112462163E-1
3.861407536E0	4.697423935E0	9.265560150E0	-3.016694188E-1
3.864217781E0	4.872200489E0	9.145850182E0	-3.088520169E-1
3.865428074E0	4.987122059E0	9.045293808E0	-3.136404157E-1
3.868309858E0	5.046977043E0	8.973467827E0	-3.256114423E-1
3.869988113E0	5.073313236E0	8.877699852E0	-3.471592367E-1
3.872346512E0	5.080495834E0	8.829815865E0	-3.351882398E-1
3.873559228E0	5.128379822E0	8.705317497E0	-2.705447972E-1
3.876403512E0	5.224148273E0	8.525752068E0	-1.268926859E-1
3.878047651E0	5.233725071E0	8.439560890E0	-4.309562966E-2
3.880452127E0	5.214571476E0	8.394071579E0	-3.112462163E-2
3.881662382E0	5.236119270E0	8.415618896E0	-1.388636976E-1
3.884509512E0	5.279214859E0	8.485051155E0	-3.447650373E-1
3.886209074E0	5.300762653E0	8.547300339E0	-5.626373887E-1
3.888575166E0	5.286397457E0	8.590395927E0	-7.565677166E-1
3.889761920E0	5.288791656E0	8.602366447E0	-9.074024558E-1
3.892632089E0	5.319916248E0	8.595184326E0	-1.015141487E0
3.894241805E0	5.370194435E0	8.590395927E0	-1.094150186E0
3.896417959E0	5.408501625E0	8.599972725E0	-1.151610970E0
3.897857113E0	5.437232018E0	8.604761124E0	-1.170764685E0
3.900723242E0	5.477933407E0	8.597578049E0	-1.177947283E0
3.902179228E0	5.465962410E0	8.590395927E0	-1.177947283E0
3.904793896E0	5.391742229E0	8.583212852E0	-1.139639974E0
3.905963305E0	5.317522049E0	8.580819130E0	-1.101332784E0
3.908850896E0	5.221754074E0	8.556877136E0	-1.029506683E0
3.910467882E0	5.161899090E0	8.528146744E0	-9.672574997E-1
3.912886473E0	5.142745018E0	8.501810074E0	-9.193734527E-1
3.914057997E0	5.154716492E0	8.470685959E0	-8.571242094E-1
3.916943473E0	5.202600479E0	8.437167168E0	-7.829039693E-1
3.918598843E0	5.293580055E0	8.413225174E0	-7.134721279E-1
3.920977704E0	5.408501625E0	8.384494781E0	-6.512228847E-1
3.922152151E0	5.528211594E0	8.341399193E0	-5.961562395E-1
3.925035012E0	5.633556366E0	8.288725853E0	-5.410895944E-1
3.926744613E0	5.681440830E0	8.305485725E0	-4.836287498E-1
3.929090589E0	5.647922039E0	8.329427719E0	-4.740519226E-1
3.930263113E0	5.571307182E0	8.386888504E0	-4.548983276E-1
3.933146742E0	5.547365189E0	8.429984093E0	-4.165911078E-1
3.934731074E0	5.556941986E0	8.422801971E0	-3.256114423E-1
3.936926074E0	5.554547787E0	8.408436775E0	-2.968810201E-1
3.938349651E0	5.525817394E0	8.384494781E0	-2.513911724E-1
3.941237704E0	5.444414616E0	8.401253700E0	-2.442085743E-1
3.942512574E0	5.281609058E0	8.492233276E0	-2.968810201E-1
3.945335358E0	5.063736439E0	8.604761124E0	-3.519476354E-1
3.946554843E0	4.807557106E0	8.698134422E0	-4.118026793E-1
3.949427512E0	4.726154327E0	8.710105896E0	-4.357447028E-1
3.951025497E0	4.687847137E0	8.698134422E0	-4.285621047E-1
3.953479319E0	4.678270340E0	8.705317497E0	-4.620809257E-1
3.954654997E0	4.702212334E0	8.731653214E0	-5.267243981E-1
3.957536473E0	4.702212334E0	8.741230011E0	-5.482721925E-1
3.959136805E0	4.673481941E0	8.717288017E0	-5.339069963E-1
3.961570242E0	4.651933670E0	8.678980827E0	-5.315127969E-1
3.962745690E0	4.637568474E0	8.633491516E0	-5.386953950E-1
3.965627627E0	4.606443882E0	8.590395927E0	-5.506663918E-1
3.967338959E0	4.529829502E0	8.561665535E0	-5.506663918E-1
3.969693358E0	4.426878929E0	8.532935143E0	-5.506663918E-1
3.970925574E0	4.297592163E0	8.508993149E0	-5.602431893E-1
3.973750704E0	4.151545525E0	8.499416351E0	-5.793967843E-1
3.975351997E0	4.007893562E0	8.504204750E0	-6.105214357E-1
3.977557959E0	3.861847401E0	8.528146744E0	-6.512228847E-1
3.978974497E0	3.742137194E0	8.547300339E0	-6.943184733E-1
3.981858742E0	3.660734415E0	8.564059258E0	-7.134721279E-1
3.983359574E0	3.622427225E0	8.561665535E0	-7.086837292E-1
3.985913858E0	3.617638826E0	8.523358345E0	-6.943184733E-1
3.987126805E0	3.629609823E0	8.487444878E0	-6.679822803E-1
3.989971550E0	3.651157618E0	8.453926086E0	-6.392518282E-1
3.991658228E0	3.653551817E0	8.425195694E0	-6.129156351E-1
3.994007627E0	3.636792421E0	8.410830498E0	-5.961562395E-1
3.995239651E0	3.612850428E0	8.415618896E0	-6.057330370E-1
3.998064588E0	3.586514235E0	8.432378769E0	-6.129156351E-1
3.999673997E0	3.579331636E0	8.434772491E0	-5.937620401E-1
4.002112242E0	3.562572241E0	8.439560890E0	-5.937620401E-1
4.003276190E0	3.509899616E0	8.458714485E0	-6.057330370E-1
4.006168973E0	3.473986626E0	8.482656479E0	-6.153098345E-1
4.007865574E0	3.471592426E0	8.516175270E0	-6.392518282E-1
4.010212088E0	3.464409828E0	8.535328865E0	-6.560112834E-1
4.011409997E0	3.454833031E0	8.576030731E0	-6.943184733E-1
4.014269319E0	3.466804028E0	8.609549522E0	-7.326257229E-1
4.015856151E0	3.495534420E0	8.662221909E0	-7.948749661E-1
4.018081997E0	3.495534420E0	8.676587105E0	-8.092401624E-1
4.019476113E0	3.509899616E0	8.702922821E0	-8.451532125E-1
4.022359973E0	3.572149038E0	8.743624687E0	-9.600749016E-1
4.023626036E0	3.612850428E0	8.760383606E0	-1.017535686E0
4.026465588E0	3.663128614E0	8.769960403E0	-1.053448796E0
4.027681074E0	3.701435804E0	8.762778282E0	-1.084573388E0
4.030558165E0	3.720589399E0	8.767566681E0	-1.122880578E0
4.032219420E0	3.756502390E0	8.781931877E0	-1.139639974E0
4.034593934E0	3.852270603E0	8.803479195E0	-1.165976286E0
4.035779805E0	3.983951569E0	8.841787338E0	-1.199495077E0
4.038651857E0	4.137180328E0	8.882488251E0	-1.240196466E0
4.040295766E0	4.285621166E0	8.927978516E0	-1.285686255E0
4.042685780E0	4.398148537E0	8.968679428E0	-1.312022567E0
4.043872036E0	4.491522312E0	8.985439301E0	-1.304839969E0
4.046742896E0	4.604049683E0	8.983044624E0	-1.295263171E0
4.048464766E0	4.721365929E0	8.975862503E0	-1.297657371E0
4.050799203E0	4.831499100E0	8.966285706E0	-1.297657371E0
4.051980613E0	4.924872875E0	8.956708908E0	-1.283292055E0
4.054856550E0	5.006275654E0	8.939949036E0	-1.280897856E0
4.056443420E0	5.102043629E0	8.916007042E0	-1.304839969E0
4.058646536E0	5.204994678E0	8.887276649E0	-1.355118155E0
4.060065651E0	5.288791656E0	8.858546257E0	-1.403002143E0
4.062946088E0	5.391742229E0	8.834604263E0	-1.443703651E0
4.064376689E0	5.521028996E0	8.810662270E0	-1.498770237E0
4.066994588E0	5.683835030E0	8.789113998E0	-1.551442742E0
4.068216151E0	5.851428986E0	8.765172005E0	-1.596932530E0
4.071051242E0	5.992686749E0	8.731653214E0	-1.625662923E0
4.072657266E0	6.165069580E0	8.674192429E0	-1.649604917E0
4.075101780E0	6.222530365E0	8.652645111E0	-1.661576033E0
4.076303843E0	6.351817131E0	8.604761124E0	-1.687912226E0
4.079159280E0	6.461950302E0	8.564059258E0	-1.704671621E0
4.080855151E0	6.550535679E0	8.540117264E0	-1.687912226E0
4.083192703E0	6.557718277E0	8.532935143E0	-1.685518026E0
4.084385689E0	6.619967937E0	8.508993149E0	-1.673547029E0
4.087249896E0	6.720524311E0	8.480262756E0	-1.651999116E0
4.088965959E0	6.811503887E0	8.444349289E0	-1.616086125E0
4.091317165E0	6.835445881E0	8.432378769E0	-1.601720929E0
4.092506189E0	6.902483463E0	8.408436775E0	-1.577778935E0
4.095373742E0	7.026981831E0	8.372523308E0	-1.539471745E0
4.097007036E0	7.074865818E0	8.336610794E0	-1.486799240E0
4.099194536E0	7.122750282E0	8.283937454E0	-1.436521053E0
4.100617266E0	7.151480675E0	8.233659744E0	-1.376665950E0
4.103477819E0	7.199364662E0	8.190564156E0	-1.331176162E0
4.104750843E0	7.259219646E0	8.142680168E0	-1.312022567E0
4.107573780E0	7.316680431E0	8.070854187E0	-1.280897856E0
4.108822882E0	7.333439827E0	8.006210327E0	-1.225831270E0
4.111665780E0	7.299921036E0	7.943961143E0	-1.192312479E0
4.113382382E0	7.297526836E0	7.864952564E0	-1.180341482E0
4.115703280E0	7.345410824E0	7.785943985E0	-1.158793569E0
4.116947920E0	7.388506413E0	7.697358608E0	-1.115697980E0
4.119760626E0	7.388506413E0	7.589619160E0	-1.060631394E0
4.121406305E0	7.369352818E0	7.472303391E0	-9.888052940E-1
4.123808549E0	7.297526836E0	7.359776020E0	-9.169792533E-1
4.125089536E0	7.163451672E0	7.259219646E0	-8.667010069E-1
4.127865934E0	7.072471619E0	7.165845871E0	-8.188169599E-1
4.129673228E0	7.034164429E0	7.074865818E0	-7.781155705E-1
4.131930472E0	7.007828236E0	6.979097843E0	-7.637503147E-1
4.133136382E0	7.019799232E0	6.900089264E0	-7.589619160E-1
4.135987665E0	7.031770229E0	6.840234280E0	-7.541735172E-1
4.137670343E0	7.007828236E0	6.775590897E0	-7.661445141E-1
4.139806266E0	6.983886242E0	6.715735912E0	-7.948749661E-1
4.141214920E0	6.983886242E0	6.682217121E0	-8.619126081E-1
4.144102242E0	6.971915245E0	6.655880928E0	-9.457096457E-1
4.145707036E0	6.888118267E0	6.634333134E0	-1.034295082E0
4.148164588E0	6.840234280E0	6.627150536E0	-1.132457376E0
4.149388882E0	6.825869083E0	6.634333134E0	-1.230619669E0
4.152222126E0	6.799532890E0	6.646304131E0	-1.333570361E0
4.153844112E0	6.775590897E0	6.682217121E0	-1.484405041E0
4.156257741E0	6.761225700E0	6.701370716E0	-1.529894829E0
4.157485959E0	6.710947514E0	6.751648903E0	-1.628057122E0
4.160315165E0	6.615179062E0	6.813898087E0	-1.742978811E0
4.161993420E0	6.512228489E0	6.909666061E0	-1.896207690E0
4.164348318E0	6.488286495E0	6.974309444E0	-1.970427990E0
4.165586651E0	6.459556103E0	7.050923824E0	-2.039859772E0
4.168405934E0	6.406883717E0	7.134721279E0	-2.087743998E0
4.170141766E0	6.344634533E0	7.199364662E0	-2.111685991E0
4.172463011E0	6.263231754E0	7.264008045E0	-2.149993181E0
4.173698997E0	6.172252178E0	7.331045628E0	-2.178723574E0
4.176520664E0	6.121973515E0	7.393294811E0	-2.185906172E0
4.178156728E0	6.088454723E0	7.455543995E0	-2.178723574E0
4.180340343E0	6.023811340E0	7.510610580E0	-2.152387381E0
4.181818651E0	5.942408562E0	7.548917770E0	-2.118868589E0
4.184611703E0	5.875370979E0	7.599195957E0	-2.080561161E0
4.185890343E0	5.815515995E0	7.668628216E0	-2.023100376E0
4.188704472E0	5.741295815E0	7.716512203E0	-1.946485996E0
4.189941997E0	5.676652431E0	7.740454197E0	-1.860294700E0
4.192797741E0	5.635950565E0	7.788338184E0	-1.781286120E0
4.194429497E0	5.588066578E0	7.852981567E0	-1.702277422E0
4.196851626E0	5.537788391E0	7.903259754E0	-1.616086125E0
4.198112151E0	5.480327606E0	7.939172745E0	-1.527500629E0
4.200909241E0	5.420472622E0	7.991845131E0	-1.453280449E0
4.202545882E0	5.358223438E0	8.063671112E0	-1.388636947E0
4.204943972E0	5.295974255E0	8.130708694E0	-1.316810966E0
4.206292728E0	5.228936672E0	8.216899872E0	-1.235408068E0
4.209001703E0	5.142745018E0	8.317456245E0	-1.151610970E0
4.210855959E0	5.020640850E0	8.425195694E0	-9.983820915E-1
4.213067818E0	4.972756863E0	8.453926086E0	-9.337386489E-1
4.214309689E0	4.888959885E0	8.523358345E0	-7.924807668E-1
4.217125972E0	4.800374508E0	8.604761124E0	-6.296750307E-1
4.218821074E0	4.618414879E0	8.748413086E0	-4.429273009E-1
4.220969766E0	4.546588898E0	8.793902397E0	-3.806780577E-1
4.222584920E0	4.412513733E0	8.882488251E0	-2.370259613E-1
4.225233972E0	4.302380562E0	8.968679428E0	-9.337386489E-2
4.226653805E0	4.165910721E0	9.085995674E0	1.292868853E-1
4.229295010E0	4.106055737E0	9.119514465E0	2.011129409E-1
4.230506343E0	3.732560396E0	9.148244858E0	3.711012602E-1
4.233353203E0	2.901772499E0	9.109937668E0	7.302315235E-1
4.234947843E0	2.944868088E0	9.162610054E0	8.762778044E-1
4.237390741E0	3.210624456E0	9.248801231E0	9.768342972E-1
4.238568882E0	3.435679436E0	9.291896820E0	1.043871999E0
4.241449203E0	3.538630009E0	9.320627213E0	1.115697980E0
4.243109997E0	3.588908434E0	9.361329079E0	1.182735682E0
4.245498895E0	3.639186621E0	9.411606789E0	1.228225470E0
4.246781574E0	3.682282209E0	9.457097054E0	1.264138460E0
4.249556664E0	3.780444384E0	9.502586365E0	1.290474772E0
4.251341035E0	3.876212597E0	9.533711433E0	1.333570361E0
4.253600664E0	3.909731388E0	9.540893555E0	1.388636947E0
4.254782151E0	3.940855980E0	9.557653427E0	1.419761658E0
4.257657587E0	3.981557369E0	9.576807022E0	1.388636947E0
4.259256074E0	4.019864559E0	9.595960617E0	1.295263171E0
4.261445920E0	4.084507942E0	9.627084732E0	1.194706678E0
4.262937882E0	4.192247391E0	9.658209801E0	1.101332784E0
4.265750318E0	4.290409565E0	9.662998199E0	9.624691010E-1
4.267035535E0	4.340687752E0	9.677363396E0	7.876923680E-1
4.269853933E0	4.352658749E0	9.689333916E0	6.272808313E-1
4.271070997E0	4.383783340E0	9.703699112E0	4.932055473E-1
4.273946356E0	4.438849926E0	9.701305389E0	3.711012602E-1
4.275541574E0	4.450820923E0	9.701305389E0	2.753331959E-1
4.277982241E0	4.426878929E0	9.725247383E0	2.298433632E-1
4.279198112E0	4.357447147E0	9.758766174E0	2.178723514E-1
4.282039587E0	4.283226967E0	9.794678688E0	2.178723514E-1
4.283665035E0	4.144362926E0	9.801861763E0	2.154781520E-1
4.286074241E0	4.084507942E0	9.789890289E0	2.154781520E-1
4.287258497E0	4.017470360E0	9.782708168E0	1.675941199E-1
4.290132010E0	4.005499363E0	9.825803757E0	7.661445439E-2
