"Time (s)"	"Gyroscope x (rad/s)"	"Gyroscope y (rad/s)"	"Gyroscope z (rad/s)"
6.976654000E-3	-2.545982003E-1	-4.708468914E-1	-8.372978568E-1
9.703411000E-3	-2.545982003E-1	-4.708468914E-1	-8.372978568E-1
1.113080800E-2	-2.545982003E-1	-4.708468914E-1	-8.372978568E-1
1.377248800E-2	-2.545982003E-1	-4.708468914E-1	-8.372978568E-1
1.548550000E-2	-2.545982003E-1	-4.708468914E-1	-8.372978568E-1
1.779610300E-2	-2.545982003E-1	-4.708468914E-1	-8.372978568E-1
1.901750000E-2	-2.545982003E-1	-4.708468914E-1	-8.372978568E-1
2.185348800E-2	-2.545982003E-1	-4.708468914E-1	-8.372978568E-1
2.347311500E-2	-2.545982003E-1	-4.708468914E-1	-8.372978568E-1
2.588714200E-2	-2.545982003E-1	-4.708468914E-1	-8.372978568E-1
2.711773100E-2	-2.545982003E-1	-4.708468914E-1	-8.372978568E-1
2.994414200E-2	-2.545982003E-1	-4.708468914E-1	-8.372978568E-1
3.176480800E-2	-2.545982003E-1	-4.708468914E-1	-8.372978568E-1
3.399864200E-2	-2.545982003E-1	-4.708468914E-1	-8.372978568E-1
3.519542300E-2	-2.545982003E-1	-4.708468914E-1	-8.372978568E-1
3.805575700E-2	-2.545982003E-1	-4.708468914E-1	-8.372978568E-1
3.968280800E-2	-9.326390028E-1	-1.470597625E0	-6.775081754E-1
4.191276900E-2	-9.384979606E-1	-1.491902828E0	-6.764429212E-1
4.333080800E-2	-9.406285286E-1	-1.509479761E0	-6.732471585E-1
4.614794900E-2	-9.384979606E-1	-1.524926066E0	-6.721818447E-1
4.741269200E-2	-9.347695708E-1	-1.539307117E0	-6.753776670E-1
5.024506500E-2	-9.251821637E-1	-1.545166135E0	-6.759102941E-1
5.149638500E-2	-9.134642482E-1	-1.551025033E0	-6.823018789E-1
5.433656500E-2	-9.028116465E-1	-1.551557660E0	-6.897587180E-1
5.597892300E-2	-8.799084425E-1	-1.548894525E0	-7.036072016E-1
5.838633400E-2	-8.713863492E-1	-1.547829270E0	-7.094660997E-1
5.962453800E-2	-8.532768488E-1	-1.545166135E0	-7.217166424E-1
6.244356500E-2	-8.362326026E-1	-1.543035507E0	-7.350324988E-1
6.407888500E-2	-8.058725595E-1	-1.539307117E0	-7.584682703E-1
6.647571900E-2	-7.941546440E-1	-1.537176609E0	-7.648598552E-1
6.768507700E-2	-7.728493810E-1	-1.535578728E0	-7.813714743E-1
7.053218000E-2	-7.483482957E-1	-1.532915592E0	-7.957525253E-1
7.226007700E-2	-7.158577442E-1	-1.528121829E0	-8.213189244E-1
7.459610300E-2	-7.062703371E-1	-1.527589202E0	-8.282431364E-1
7.578300000E-2	-6.865629554E-1	-1.521197677E0	-8.474178910E-1
7.865268000E-2	-6.578007936E-1	-1.511077642E0	-8.729842305E-1
8.026165400E-2	-6.386260390E-1	-1.497761846E0	-8.884305358E-1
8.245480800E-2	-6.237123609E-1	-1.482315540E0	-9.065400362E-1
8.388150000E-2	-6.098638773E-1	-1.465271235E0	-9.289106131E-1
8.675802600E-2	-5.965480804E-1	-1.442900658E0	-9.454222322E-1
8.822550000E-2	-5.853627920E-1	-1.418932199E0	-9.661948681E-1
9.081091100E-2	-5.800365210E-1	-1.391767979E0	-9.848369956E-1
9.199215400E-2	-5.757754445E-1	-1.357679605E0	-1.009338021E0
9.486821900E-2	-5.704491138E-1	-1.321460605E0	-1.027447581E0
9.646076900E-2	-5.704491138E-1	-1.281513095E0	-1.050350785E0
9.890444900E-2	-5.693838596E-1	-1.237837315E0	-1.074851871E0
1.000733850E-1	-5.704491138E-1	-1.189367771E0	-1.099352956E0
1.029616800E-1	-5.725796223E-1	-1.141963482E0	-1.122788787E0
1.045875380E-1	-5.811017752E-1	-1.091896057E0	-1.146757245E0
1.070103340E-1	-5.858954787E-1	-1.039698124E0	-1.173388839E0
1.081894230E-1	-5.954828262E-1	-9.875001311E-1	-1.197889924E0
1.110668720E-1	-6.040049195E-1	-9.347695708E-1	-1.219195127E0
1.127678080E-1	-6.130596995E-1	-8.847021461E-1	-1.243163586E0
1.151414880E-1	-6.242449880E-1	-8.394283652E-1	-1.268197298E0
1.163231540E-1	-6.338323355E-1	-7.925567627E-1	-1.291633129E0
1.191972570E-1	-6.418218613E-1	-7.504788041E-1	-1.314003706E0
1.207966920E-1	-6.524744630E-1	-7.105314136E-1	-1.338504791E0
1.229892690E-1	-6.625944972E-1	-6.689860821E-1	-1.360875368E0
1.244081920E-1	-6.732471585E-1	-6.317018270E-1	-1.384843826E0
1.272865650E-1	-6.838997602E-1	-5.944175720E-1	-1.405616403E0
1.285713460E-1	-6.924219131E-1	-5.581985712E-1	-1.427454352E0
1.313882180E-1	-7.041398287E-1	-5.241101384E-1	-1.453020692E0
1.326217690E-1	-7.110640407E-1	-4.942827225E-1	-1.475923896E0
1.354798340E-1	-7.227819562E-1	-4.649879336E-1	-1.498294473E0
1.371802310E-1	-7.408914566E-1	-4.143878818E-1	-1.533980846E0
1.395153720E-1	-7.510114312E-1	-3.973436356E-1	-1.550492406E0
1.407171150E-1	-7.803062201E-1	-3.627225459E-1	-1.589374542E0
1.435709880E-1	-8.053399324E-1	-3.195793331E-1	-1.613343000E0
1.451723850E-1	-8.490157723E-1	-2.348908186E-1	-1.659682035E0
1.476047180E-1	-8.644620776E-1	-2.066612989E-1	-1.676726222E0
1.488036920E-1	-8.953547478E-1	-1.432780623E-1	-1.714010477E0
1.516616410E-1	-9.390306473E-1	-7.137271762E-2	-1.772067428E0
1.533897690E-1	-9.635316730E-1	-3.941478580E-2	-1.809884310E0
1.557169880E-1	-9.906959534E-1	-1.597896591E-2	-1.843440175E0
1.569133460E-1	-1.017327547E0	-7.989482954E-3	-1.881789684E0
1.597743340E-1	-1.040230751E0	-8.522115648E-3	-1.919073939E0
1.613845000E-1	-1.070058107E0	-1.331580617E-2	-1.951564431E0
1.635747690E-1	-1.100950837E0	-1.384843793E-2	-1.977130890E0
1.650037310E-1	-1.136104584E0	-1.012001187E-2	-1.995240331E0
1.678638340E-1	-1.174454093E0	-3.621899337E-2	-2.009621382E0
1.693555000E-1	-1.208542466E0	-1.012001261E-1	-2.014415026E0
1.719159870E-1	-1.244228840E0	-1.821602285E-1	-2.014947653E0
1.731243850E-1	-1.273523688E0	-2.812298238E-1	-2.012284517E0
1.759720640E-1	-1.301220536E0	-3.984089196E-1	-1.997370839E0
1.776035770E-1	-1.326254249E0	-5.257080197E-1	-1.980859280E0
1.800219490E-1	-1.346494317E0	-6.546050310E-1	-1.959553957E0
1.812086540E-1	-1.369930148E0	-7.835019827E-1	-1.937716007E0
1.840789870E-1	-1.391767979E0	-9.054747820E-1	-1.910019159E0
1.857179230E-1	-1.415736437E0	-1.015197039E0	-1.881789684E0
1.881139100E-1	-1.440770149E0	-1.108407617E0	-1.850364327E0
1.893666540E-1	-1.462608099E0	-1.182443500E0	-1.817873836E0
1.921710260E-1	-1.483380795E0	-1.242630959E0	-1.788046360E0
1.939232310E-1	-1.500424981E0	-1.286306858E0	-1.757153749E0
1.962362570E-1	-1.511610270E0	-1.311340570E0	-1.729989529E0
1.974867690E-1	-1.521197677E0	-1.319862604E0	-1.706021070E0
2.002936800E-1	-1.528654456E0	-1.310275316E0	-1.684183121E0
2.019844230E-1	-1.532915592E0	-1.254881501E0	-1.658084154E0
2.041726540E-1	-1.531850338E0	-1.226652026E0	-1.650094628E0
2.056562690E-1	-1.528121829E0	-1.157409787E0	-1.642637849E0
2.083973720E-1	-1.521197677E0	-1.065264463E0	-1.631985188E0
2.097640770E-1	-1.510545015E0	-9.539443254E-1	-1.629854560E0
2.124904490E-1	-1.499892354E0	-8.250473142E-1	-1.631985188E0
2.137782310E-1	-1.480717540E0	-6.807039976E-1	-1.634648323E0
2.165817570E-1	-1.462608099E0	-5.203816891E-1	-1.643703103E0
2.182770000E-1	-1.415203810E0	-2.817624509E-1	-1.656486273E0
2.206166030E-1	-1.400822759E0	-2.024002522E-1	-1.661279917E0
2.218870770E-1	-1.368332148E0	-4.474110901E-2	-1.672997832E0
2.246730640E-1	-1.318797350E0	1.885518134E-1	-1.682585239E0
2.263383460E-1	-1.288437366E0	3.472762108E-1	-1.688444138E0
2.287208720E-1	-1.263936281E0	5.033374429E-1	-1.689509392E0
2.301358850E-1	-1.241565704E0	6.604639888E-1	-1.681519985E0
2.327778720E-1	-1.229847789E0	8.197209835E-1	-1.659682035E0
2.345932310E-1	-1.216531992E0	9.709885716E-1	-1.629854560E0
2.368440640E-1	-1.210140467E0	1.105211854E0	-1.590439796E0
2.381447690E-1	-1.205346704E0	1.224521518E0	-1.544100881E0
2.409012950E-1	-1.201618314E0	1.326254249E0	-1.493500710E0
2.427273080E-1	-1.203216195E0	1.412540674E0	-1.436509132E0
2.447840000E-1	-1.208009839E0	1.487641811E0	-1.379517436E0
2.461903080E-1	-1.212803602E0	1.545698762E0	-1.312938452E0
2.489906030E-1	-1.217597246E0	1.587244034E0	-1.239967823E0
2.505358840E-1	-1.217064619E0	1.618669391E0	-1.168595076E0
2.530439100E-1	-1.219195127E0	1.645300984E0	-1.093493938E0
2.543152310E-1	-1.222391009E0	1.672465205E0	-1.023186564E0
2.571002180E-1	-1.221858382E0	1.699629426E0	-9.523464441E-1
2.587945770E-1	-1.222391009E0	1.728924155E0	-8.788431883E-1
2.611346410E-1	-1.224521518E0	1.761947393E0	-8.143946528E-1
2.623943840E-1	-1.220260382E0	1.794438004E0	-7.483482957E-1
2.651906020E-1	-1.221858382E0	1.831189632E0	-6.823018789E-1
2.669811540E-1	-1.215999365E0	1.869006515E0	-6.199839115E-1
2.692234870E-1	-1.212803602E0	1.910551786E0	-5.597964525E-1
2.705595770E-1	-1.208009839E0	1.948368669E0	-5.012069345E-1
2.732791020E-1	-1.197357297E0	1.982989788E0	-4.442152679E-1
2.751386150E-1	-1.179247737E0	2.031459332E0	-3.691141307E-1
2.773332180E-1	-1.173388839E0	2.045307636E0	-3.446130455E-1
2.785906920E-1	-1.155279279E0	2.073004723E0	-3.062635362E-1
2.813888330E-1	-1.134506702E0	2.109756231E0	-2.759034932E-1
2.830702310E-1	-1.091363430E0	2.157693148E0	-2.444781959E-1
2.854224870E-1	-1.079112887E0	2.169943810E0	-2.428802997E-1
2.866856540E-1	-1.047154903E0	2.184324741E0	-2.370213419E-1
2.894776790E-1	-1.014664412E0	2.181661606E0	-2.423476577E-1
2.908618840E-1	-9.859022498E-1	2.153964758E0	-2.492718846E-1
2.935714100E-1	-9.555422068E-1	2.105495214E0	-2.695119083E-1
2.950449610E-1	-9.326390028E-1	2.043709755E0	-2.934803665E-1
2.976617560E-1	-9.006810784E-1	1.942509770E0	-3.557983339E-1
2.994235000E-1	-8.900284767E-1	1.887648582E0	-4.133225977E-1
3.017101410E-1	-8.878979087E-1	1.830124378E0	-4.841626883E-1
3.031042310E-1	-8.942894936E-1	1.760349512E0	-5.640575290E-1
3.057653330E-1	-9.001484513E-1	1.670334697E0	-6.492787004E-1
3.074864230E-1	-9.113337398E-1	1.553688169E0	-7.440872192E-1
3.097957950E-1	-9.273127317E-1	1.426921725E0	-8.468852639E-1
3.110673460E-1	-9.459548593E-1	1.304416299E0	-9.464874864E-1
3.138508720E-1	-9.656622410E-1	1.190965652E0	-1.046089649E0
3.155932690E-1	-9.784454107E-1	1.078580260E0	-1.141963482E0
3.179147180E-1	-9.917612076E-1	9.645969868E-1	-1.231445670E0
3.191693460E-1	-9.986854196E-1	8.490157723E-1	-1.319329977E0
3.219699870E-1	-9.970875382E-1	7.286409140E-1	-1.391767979E0
3.236905000E-1	-9.965549111E-1	6.061354876E-1	-1.458347082E0
3.258845770E-1	-9.848369956E-1	4.767058492E-1	-1.518001795E0
3.272593840E-1	-9.731190801E-1	3.419498801E-1	-1.568069220E0
3.300706410E-1	-9.502158761E-1	1.986718178E-1	-1.612810373E0
3.316086920E-1	-9.203884602E-1	6.125270575E-2	-1.647431493E0
3.341202180E-1	-8.852347732E-1	-7.403588295E-2	-1.675660968E0
3.353948460E-1	-8.420915604E-1	-2.034655064E-1	-1.701227307E0
3.381756790E-1	-7.946872711E-1	-3.302319944E-1	-1.718804240E0
3.398515770E-1	-7.408914566E-1	-4.538026452E-1	-1.732652664E0
3.422098330E-1	-6.791061163E-1	-5.752428174E-1	-1.741174698E0
3.434795770E-1	-6.077333689E-1	-6.998787522E-1	-1.745435834E0
3.462656790E-1	-5.336974859E-1	-8.383631110E-1	-1.747033715E0
3.479257310E-1	-4.516721368E-1	-9.789780378E-1	-1.740642071E0
3.503136020E-1	-3.632551730E-1	-1.127582431E0	-1.734783173E0
3.516178840E-1	-2.716424465E-1	-1.287372112E0	-1.717206359E0
3.543690640E-1	-1.741707325E-1	-1.453553319E0	-1.701227307E0
3.562371920E-1	-2.077265643E-2	-1.706553698E0	-1.672997832E0
3.584427180E-1	3.249056637E-2	-1.792307496E0	-1.663410425E0
3.597396150E-1	1.432780623E-1	-1.959553957E0	-1.644768357E0
3.624986020E-1	2.556634545E-1	-2.139583588E0	-1.625593543E0
3.641695000E-1	4.282363057E-1	-2.437325001E0	-1.597896695E0
3.664863840E-1	4.857605994E-1	-2.527339935E0	-1.592037678E0
3.678413460E-1	6.103965044E-1	-2.638659954E0	-1.572862983E0
3.705862170E-1	7.499461770E-1	-2.571015835E0	-1.562742949E0
3.719267690E-1	9.917612076E-1	-2.324407101E0	-1.562210321E0
3.746808710E-1	1.123321414E0	-2.393116713E0	-1.564340830E0
3.759742310E-1	1.240500450E0	-2.620018005E0	-1.571265101E0
3.787714870E-1	1.339037418E0	-2.893258333E0	-1.582450390E0
3.804487690E-1	1.431715488E0	-3.134007931E0	-1.594168305E0
3.828060250E-1	1.516936541E0	-3.330016613E0	-1.605353594E0
3.840708840E-1	1.594700933E0	-3.512176991E0	-1.608549356E0
3.868623330E-1	1.663410425E0	-3.704457045E0	-1.606951475E0
3.888204230E-1	1.729989529E0	-3.903661489E0	-1.600027204E0
3.908951020E-1	1.793372750E0	-4.108725071E0	-1.589907169E0
3.921511150E-1	1.852494836E0	-4.315386295E0	-1.577656627E0
3.949512170E-1	1.911084414E0	-4.526308537E0	-1.566471338E0
3.968128070E-1	1.968608737E0	-4.732437134E0	-1.554753423E0
3.990057560E-1	2.029328823E0	-4.936968327E0	-1.543035507E0
4.003851150E-1	2.082059383E0	-5.148423195E0	-1.532915592E0
4.030616020E-1	2.132126808E0	-5.365204334E0	-1.524393439E0
4.048142310E-1	2.181661606E0	-5.584116459E0	-1.511077642E0
4.070209230E-1	2.229598522E0	-5.774798393E0	-1.497761846E0
4.083240380E-1	2.278068066E0	-5.946838856E0	-1.483913422E0
4.111487170E-1	2.318548203E0	-6.103965282E0	-1.471130252E0
4.126956540E-1	2.362223864E0	-6.236590862E0	-1.462608099E0
4.152435250E-1	2.404301882E0	-6.331399441E0	-1.451955438E0
4.166312310E-1	2.445314646E0	-6.373477459E0	-1.449824929E0
4.192991020E-1	2.483664036E0	-6.346313000E0	-1.450357556E0
4.210376540E-1	2.525209427E0	-6.192382336E0	-1.455683827E0
4.233477940E-1	2.528405190E0	-6.119411469E0	-1.459944963E0
4.247685000E-1	2.522013664E0	-5.958556652E0	-1.466336489E0
4.274038710E-1	2.494316816E0	-5.791842937E0	-1.471130252E0
4.290675380E-1	2.418150425E0	-5.567604542E0	-1.454618573E0
4.314361790E-1	2.387257576E0	-5.500493050E0	-1.443965912E0
4.331559610E-1	2.318015575E0	-5.372661114E0	-1.416801691E0
4.354919860E-1	2.247708082E0	-5.246960163E0	-1.384311199E0
4.372667690E-1	2.135855198E0	-5.044559956E0	-1.335309029E0
4.395565630E-1	2.098571062E0	-4.973719597E0	-1.316666842E0
4.409497690E-1	2.023469925E0	-4.818191051E0	-1.286306858E0
4.436129090E-1	1.913214922E0	-4.572647572E0	-1.248489976E0
4.452964610E-1	1.838113785E0	-4.400607586E0	-1.228249907E0
4.475263840E-1	1.769404292E0	-4.218979836E0	-1.209075212E0
4.489385000E-1	1.705488443E0	-4.040015221E0	-1.189367771E0
4.517157940E-1	1.641572475E0	-3.855192184E0	-1.165399313E0
4.532346920E-1	1.585113525E0	-3.674097061E0	-1.138235092E0
4.557730630E-1	1.533980846E0	-3.498328447E0	-1.104679227E0
4.571049230E-1	1.483913422E0	-3.341734648E0	-1.064731836E0
4.598290250E-1	1.443433285E0	-3.205913305E0	-1.018392801E0
4.616089610E-1	1.407747030E0	-3.095658541E0	-9.656622410E-1
4.638671400E-1	1.375256419E0	-3.014698505E0	-9.108011127E-1
4.651848840E-1	1.349690080E0	-2.960902452E0	-8.527442217E-1
4.679234480E-1	1.327319503E0	-2.934270859E0	-7.930893898E-1
4.703480770E-1	1.309210062E0	-2.956641436E0	-6.998787522E-1
4.719576790E-1	1.306546807E0	-2.976348877E0	-6.684534550E-1
4.739440380E-1	1.299090028E0	-3.041330099E0	-6.093312502E-1
4.760139480E-1	1.301753163E0	-3.141997576E0	-5.432848930E-1
4.777766920E-1	1.308677435E0	-3.269829273E0	-4.830974340E-1
4.800781400E-1	1.323591113E0	-3.423759937E0	-4.207794666E-1
4.818710380E-1	1.351287961E0	-3.594202280E0	-3.595267534E-1
4.841346020E-1	1.387506962E0	-3.780090809E0	-3.051982522E-1
4.858651540E-1	1.432780743E0	-3.973968983E0	-2.561961114E-1
4.880403840E-1	1.486576557E0	-4.172640800E0	-2.098570913E-1
4.894149610E-1	1.545166135E0	-4.371312618E0	-1.715075821E-1
4.922229090E-1	1.609081984E0	-4.557201385E0	-1.342233270E-1
4.937791150E-1	1.676193595E0	-4.735633373E0	-1.038632840E-1
4.962470250E-1	1.743837953E0	-4.901281834E0	-8.096009493E-2
4.975547300E-1	1.815743208E0	-5.052549362E0	-7.030745596E-2
5.003028320E-1	1.889779091E0	-5.188370705E0	-6.657902896E-2
5.021926920E-1	2.006958246E0	-5.359878063E0	-7.456851006E-2
5.043371780E-1	2.045840502E0	-5.409945488E0	-7.616640627E-2
5.057593460E-1	2.126800537E0	-5.494634151E0	-9.267801046E-2
5.083928320E-1	2.213619471E0	-5.566006660E0	-1.161138266E-1
5.102017690E-1	2.340918541E0	-5.623530865E0	-1.581917703E-1
5.124240630E-1	2.384061813E0	-5.628324986E0	-1.752360016E-1
5.137104610E-1	2.463423967E0	-5.611813068E0	-2.093244642E-1
5.164799090E-1	2.543851614E0	-5.573463440E0	-2.466087192E-1
5.182985000E-1	2.663693666E0	-5.496764660E0	-2.998719513E-1
5.205340250E-1	2.706836939E0	-5.469067574E0	-3.190467060E-1
5.221362690E-1	2.794188738E0	-5.414206505E0	-3.515372574E-1
5.245897550E-1	2.883138180E0	-5.355617046E0	-3.850930929E-1
5.262417300E-1	3.007241488E0	-5.249090672E0	-4.458131790E-1
5.286228710E-1	3.077548981E0	-5.160673618E0	-4.894890189E-1
5.299181920E-1	3.138801813E0	-5.065865040E0	-5.432848930E-1
5.326797940E-1	3.183542728E0	-4.943892479E0	-6.034722924E-1
5.341523840E-1	3.214968204E0	-4.810201645E0	-6.775081754E-1
5.367764860E-1	3.236806154E0	-4.698881626E0	-7.542072535E-1
5.381394610E-1	3.250121832E0	-4.592355251E0	-8.372978568E-1
5.408676010E-1	3.250121832E0	-4.483697891E0	-9.262474179E-1
5.426531920E-1	3.234142780E0	-4.375041008E0	-1.017860174E0
5.449184090E-1	3.204848051E0	-4.266916752E0	-1.108940244E0
5.462193460E-1	3.169694424E0	-4.167847157E0	-1.197889924E0
5.489748320E-1	3.127616405E0	-4.077299595E0	-1.280447841E0
5.507743840E-1	3.082342625E0	-3.999535322E0	-1.355016351E0
5.530063320E-1	3.033340454E0	-3.929760695E0	-1.415203810E0
5.543536150E-1	2.988599539E0	-3.873834133E0	-1.455683827E0
5.570624480E-1	2.944923639E0	-3.828560352E0	-1.480717540E0
5.589940000E-1	2.907106638E0	-3.793939352E0	-1.490837574E0
5.611260630E-1	2.870355129E0	-3.766242504E0	-1.482315540E0
5.624751540E-1	2.836266518E0	-3.735349894E0	-1.460477591E0
5.651821400E-1	2.805373907E0	-3.708185673E0	-1.425323844E0
5.669948070E-1	2.775013924E0	-3.675162315E0	-1.381115317E0
5.690560000E-1	2.747849703E0	-3.642671824E0	-1.327319503E0
5.704866150E-1	2.724946499E0	-3.605387449E0	-1.265534163E0
5.732861400E-1	2.697782278E0	-3.565440178E0	-1.197357297E0
5.748400000E-1	2.672215939E0	-3.516970634E0	-1.129712939E0
5.773394860E-1	2.646116972E0	-3.467435837E0	-1.063666582E0
5.786441920E-1	2.614691496E0	-3.411509514E0	-9.965549111E-1
5.813948710E-1	2.584331512E0	-3.354517698E0	-9.374327064E-1
5.831298070E-1	2.530003071E0	-3.260774612E0	-8.623315692E-1
5.854294090E-1	2.511893511E0	-3.227218628E0	-8.431568146E-1
5.870319230E-1	2.477805138E0	-3.160639524E0	-8.053399324E-1
5.894854470E-1	2.438922882E0	-3.096191168E0	-7.776430249E-1
5.917504230E-1	2.379268169E0	-3.002980471E0	-7.419567108E-1
5.935183700E-1	2.359560728E0	-2.971555233E0	-7.302387953E-1
5.948290770E-1	2.320678711E0	-2.915096283E0	-7.137271762E-1
5.975753320E-1	2.277002811E0	-2.861832857E0	-6.982808709E-1
5.995207300E-1	2.216815233E0	-2.794721365E0	-6.764429212E-1
6.016498700E-1	2.176335335E0	-2.760632753E0	-6.609966159E-1
6.030975380E-1	2.133192062E0	-2.735599041E0	-6.487460732E-1
6.057061400E-1	2.088450909E0	-2.721750736E0	-6.301039457E-1
6.073425380E-1	2.041579247E0	-2.719620228E0	-6.146575809E-1
6.095562300E-1	1.992577195E0	-2.720685482E0	-5.986786485E-1
6.110151920E-1	1.948368669E0	-2.729740143E0	-5.842975378E-1
6.137951780E-1	1.900964379E0	-2.746251822E0	-5.704491138E-1
6.151449230E-1	1.858353853E0	-2.779274940E0	-5.571333170E-1
6.178913700E-1	1.810416937E0	-2.815494061E0	-5.427522659E-1
6.192199230E-1	1.766208410E0	-2.860767603E0	-5.267732739E-1
6.219826780E-1	1.720402122E0	-2.909237146E0	-5.123922229E-1
6.237089610E-1	1.675660968E0	-2.962500334E0	-4.958806038E-1
6.260162550E-1	1.631985188E0	-3.012567997E0	-4.745753109E-1
6.272776530E-1	1.586178780E0	-3.063700676E0	-4.580637217E-1
6.300717160E-1	1.539839745E0	-3.111637592E0	-4.388889670E-1
6.317047300E-1	1.496696591E0	-3.152117491E0	-4.218447208E-1
6.341035240E-1	1.449292302E0	-3.189401865E0	-4.010720551E-1
6.354696920E-1	1.406149030E0	-3.224022865E0	-3.834952116E-1
6.381595630E-1	1.363005877E0	-3.251719713E0	-3.605920076E-1
6.399538840E-1	1.298024774E0	-3.287938833E0	-3.254382908E-1
6.422134860E-1	1.274056315E0	-3.298058748E0	-3.153182864E-1
6.434935000E-1	1.227717280E0	-3.322559834E0	-2.908172011E-1
6.462700630E-1	1.183508754E0	-3.349724054E0	-2.673813701E-1
6.481500770E-1	1.110538244E0	-3.391802073E0	-2.327602804E-1
6.501745000E-1	1.086037159E0	-3.407248259E0	-2.221076339E-1
6.515700770E-1	1.037034988E0	-3.442402124E0	-2.008023560E-1
6.543588700E-1	9.853696227E-1	-3.486610651E0	-1.747033745E-1
6.559316150E-1	9.054747820E-1	-3.561711788E0	-1.443433315E-1
6.584379090E-1	8.772453070E-1	-3.586745501E0	-1.368864775E-1
6.596850380E-1	8.191883564E-1	-3.625627518E0	-1.246359423E-1
6.624944860E-1	7.632619739E-1	-3.662379265E0	-1.145159304E-1
6.641703840E-1	6.716492176E-1	-3.698598146E0	-1.086569726E-1
6.665446780E-1	6.412891746E-1	-3.704457045E0	-1.091896072E-1
6.677991150E-1	5.720469952E-1	-3.707120419E0	-1.171790883E-1
6.706016390E-1	4.681837261E-1	-3.685282469E0	-1.368864775E-1
6.727880000E-1	4.000068009E-1	-3.661314011E0	-1.571265012E-1
6.746359090E-1	3.302319944E-1	-3.635215044E0	-1.768338978E-1
6.758907690E-1	2.647182047E-1	-3.601659060E0	-2.002697140E-1
6.786925240E-1	2.008023560E-1	-3.575027466E0	-2.226402760E-1
6.804456150E-1	1.384843737E-1	-3.544667482E0	-2.444781959E-1
6.827573700E-1	8.149272949E-2	-3.515905380E0	-2.700445354E-1
6.840614610E-1	2.396845073E-2	-3.494067430E0	-2.892192900E-1
6.868140240E-1	-2.290318534E-2	-3.468501091E0	-3.073287904E-1
6.886259230E-1	-7.030745596E-2	-3.448793650E0	-3.291667104E-1
6.907715760E-1	-1.129180342E-1	-3.435477972E0	-3.446130455E-1
6.922409610E-1	-1.502022892E-1	-3.426955700E0	-3.621899188E-1
6.949182160E-1	-1.874865443E-1	-3.425890446E0	-3.749730885E-1
6.962639230E-1	-2.173139453E-1	-3.427488327E0	-3.888215125E-1
6.990142930E-1	-2.412824035E-1	-3.440804243E0	-4.000068009E-1
7.003125000E-1	-2.631203234E-1	-3.455717802E0	-4.074636400E-1
7.031056780E-1	-2.844256163E-1	-3.473294735E0	-4.165183902E-1
7.048013070E-1	-2.988066673E-1	-3.495132685E0	-4.250405133E-1
7.071406390E-1	-3.142530024E-1	-3.515905380E0	-4.346278906E-1
7.084206920E-1	-3.249056637E-1	-3.537210703E0	-4.436826408E-1
7.111972160E-1	-3.328951299E-1	-3.560113907E0	-4.559331834E-1
7.129446530E-1	-3.376888335E-1	-3.594734907E0	-4.692489803E-1
7.152457930E-1	-3.424825370E-1	-3.633084536E0	-4.804342687E-1
7.167458460E-1	-3.408846259E-1	-3.663977146E0	-4.942827225E-1
7.193022160E-1	-3.419498801E-1	-3.696467638E0	-5.081311464E-1
7.211179230E-1	-3.392867148E-1	-3.750263453E0	-5.336974859E-1
7.233669470E-1	-3.376888335E-1	-3.769438267E0	-5.464806557E-1
7.247566530E-1	-3.307646215E-1	-3.810983658E0	-5.656554103E-1
7.274231010E-1	-3.179814517E-1	-3.869040489E0	-5.869607329E-1
7.291297300E-1	-3.036003709E-1	-3.961718559E0	-6.093312502E-1
7.314579080E-1	-2.945456207E-1	-3.998470068E0	-6.087986231E-1
7.333015380E-1	-2.785666585E-1	-4.066647053E0	-6.189186573E-1
7.355139850E-1	-2.631203234E-1	-4.117779732E0	-6.375607848E-1
7.371605000E-1	-2.428802997E-1	-4.175836563E0	-6.705839634E-1
7.395451390E-1	-2.418150306E-1	-4.188086987E0	-6.828345060E-1
7.408945760E-1	-2.253034264E-1	-4.225371361E0	-7.073355913E-1
7.436007930E-1	-2.034655064E-1	-4.305266380E0	-7.483482957E-1
7.453020760E-1	-1.805623323E-1	-4.383030415E0	-7.744472623E-1
7.476353310E-1	-1.592570394E-1	-4.462392807E0	-7.962851524E-1
7.489323840E-1	-1.384843737E-1	-4.531634808E0	-8.197209835E-1
7.516919850E-1	-1.235706806E-1	-4.580636978E0	-8.506136537E-1
7.533891150E-1	-1.123853996E-1	-4.625910759E0	-8.783105612E-1
7.557255240E-1	-1.038632840E-1	-4.679706573E0	-9.044095278E-1
7.570427300E-1	-9.054747969E-2	-4.742557526E0	-9.214537740E-1
7.597818310E-1	-8.096009493E-2	-4.783037186E0	-9.321063757E-1
7.626383460E-1	-6.977482140E-2	-4.848018646E0	-9.464874864E-1
7.648707540E-1	-6.444849819E-2	-4.900749207E0	-9.496832490E-1
7.661818070E-1	-5.326322466E-2	-4.935370445E0	-9.480853677E-1
7.689627540E-1	-4.740426689E-2	-4.963067055E0	-9.406285286E-1
7.708294610E-1	-6.125270575E-2	-4.877845764E0	-9.310411215E-1
7.728267300E-1	-8.202536404E-2	-4.758536339E0	-9.123989940E-1
7.742909610E-1	-1.075917110E-1	-4.645085812E0	-8.894958496E-1
7.770505620E-1	-1.310275346E-1	-4.512460232E0	-8.612663150E-1
7.785745380E-1	-1.619201899E-1	-4.350540161E0	-8.261125684E-1
7.811692540E-1	-1.901497096E-1	-4.160390377E0	-7.904262543E-1
7.824661530E-1	-2.263686955E-1	-3.942011118E0	-7.531419992E-1
7.852599850E-1	-2.625876963E-1	-3.693804502E0	-7.105314136E-1
7.870226530E-1	-3.131877482E-1	-3.314037800E0	-6.375607848E-1
7.893092540E-1	-3.291667104E-1	-3.196858644E0	-6.114618182E-1
7.906627690E-1	-3.579288721E-1	-2.977414131E0	-5.581985712E-1
7.933645240E-1	-3.802994192E-1	-2.777144432E0	-4.980111420E-1
7.954068840E-1	-4.101268053E-1	-2.530003071E0	-4.159857631E-1
7.973969470E-1	-4.191815555E-1	-2.453304052E0	-3.882888854E-1
7.986771920E-1	-4.356931746E-1	-2.314819574E0	-3.312972486E-1
8.014518310E-1	-4.522047639E-1	-2.206695318E0	-2.817624509E-1
8.031986150E-1	-4.713795185E-1	-2.097505808E0	-2.130528986E-1
8.055163310E-1	-4.788363874E-1	-2.072472095E0	-1.896170676E-1
8.067472690E-1	-4.846953154E-1	-2.050101519E0	-1.523328125E-1
8.095721000E-1	-4.926848114E-1	-2.058623552E0	-9.640643001E-2
8.112302690E-1	-4.900216460E-1	-2.098038435E0	-6.764429063E-2
8.134893840E-1	-4.889563918E-1	-2.150768995E0	-3.994741663E-2
8.150804230E-1	-4.809668958E-1	-2.210423708E0	-2.290318534E-2
8.176736770E-1	-4.767058492E-1	-2.269013405E0	-7.456851192E-3
8.192829230E-1	-4.740426838E-1	-2.323341846E0	1.065264456E-3
8.217696000E-1	-4.740426838E-1	-2.365419626E0	2.663161140E-3
8.234425380E-1	-4.799016416E-1	-2.385659695E0	-1.597896684E-3
8.258257160E-1	-4.953479767E-1	-2.371278763E0	-9.054748341E-3
8.274822690E-1	-5.171858668E-1	-2.322809219E0	-1.810949668E-2
8.298603700E-1	-5.491438508E-1	-2.239185810E0	-2.716424316E-2
8.311269990E-1	-5.874933600E-1	-2.151301622E0	-3.888215125E-2
8.339166000E-1	-6.274407506E-1	-2.078863621E0	-5.326322466E-2
8.356963070E-1	-6.684534550E-1	-2.035720348E0	-6.657902896E-2
8.379647930E-1	-7.062703371E-1	-2.012817144E0	-8.309062570E-2
8.392077300E-1	-7.451524734E-1	-2.010154009E0	-9.693906456E-2
8.420214080E-1	-7.845672965E-1	-2.046373129E0	-1.107875034E-1
8.437900380E-1	-8.271778226E-1	-2.095375299E0	-1.299622655E-1
8.460957930E-1	-8.692557812E-1	-2.149171114E0	-1.438107044E-1
8.473279610E-1	-9.171926975E-1	-2.213086843E0	-1.635181010E-1
8.501525620E-1	-9.741843343E-1	-2.273807049E0	-1.789644361E-1
8.518602300E-1	-1.032773852E0	-2.330265999E0	-1.938781291E-1
8.539924230E-1	-1.095624447E0	-2.381398678E0	-2.119876295E-1
8.555697690E-1	-1.161138296E0	-2.418150425E0	-2.226402760E-1
8.582421390E-1	-1.229847789E0	-2.437325001E0	-2.322276533E-1
8.596657300E-1	-1.291633129E0	-2.431998730E0	-2.327602804E-1
8.623441770E-1	-1.356081605E0	-2.410160780E0	-2.263686955E-1
8.636184990E-1	-1.417866945E0	-2.372344017E0	-2.178465873E-1
8.664348690E-1	-1.476456523E0	-2.321211338E0	-2.050634027E-1
8.680918460E-1	-1.569134593E0	-2.231196404E0	-1.736381054E-1
8.704709460E-1	-1.600559831E0	-2.202434301E0	-1.624528319E-1
8.717107690E-1	-1.668736815E0	-2.164617300E0	-1.294296384E-1
8.745269460E-1	-1.743837953E0	-2.138518333E0	-9.960222989E-2
8.762022300E-1	-1.863680124E0	-2.125735283E0	-4.633900523E-2
8.785586770E-1	-1.945172906E0	-2.122539520E0	-4.261057824E-3
8.798101920E-1	-1.986718178E0	-2.122006893E0	1.757686399E-2
8.826144460E-1	-2.110288858E0	-2.104962587E0	8.894958347E-2
8.846426150E-1	-2.192846775E0	-2.078330994E0	1.427454352E-1
8.866687920E-1	-2.273807049E0	-2.039981365E0	2.002697140E-1
8.879072690E-1	-2.348908186E0	-1.988848686E0	2.572613657E-1
8.907246770E-1	-2.424009323E0	-1.935585499E0	3.206445873E-1
8.924539990E-1	-2.493784189E0	-1.886583328E0	3.872236311E-1
8.945972300E-1	-2.560363054E0	-1.848766446E0	4.532700181E-1
8.959843840E-1	-2.624811649E0	-1.826928496E0	5.219795704E-1
8.988121000E-1	-2.688194752E0	-1.813080072E0	5.922870636E-1
9.003435380E-1	-2.745719194E0	-1.808286428E0	6.604639888E-1
9.028639850E-1	-2.804308653E0	-1.806155920E0	7.313040495E-1
9.041977690E-1	-2.854376078E0	-1.809351683E0	8.005462289E-1
9.069195230E-1	-2.903378248E0	-1.810416937E0	8.692557812E-1
9.087034610E-1	-2.946521521E0	-1.813080072E0	9.369000793E-1
9.109689460E-1	-2.982207775E0	-1.826395869E0	1.001348615E0
9.122593460E-1	-3.010969877E0	-1.843972802E0	1.062068701E0
9.150245620E-1	-3.036536217E0	-1.864212751E0	1.127049804E0
9.169866150E-1	-3.058374166E0	-1.886050701E0	1.185639381E0
9.190585230E-1	-3.075951099E0	-1.906823397E0	1.246359468E0
9.203930380E-1	-3.091930151E0	-1.922802329E0	1.303883672E0
9.231144460E-1	-3.105245829E0	-1.944640279E0	1.359810114E0
9.249094610E-1	-3.130279541E0	-1.961151838E0	1.440237522E0
9.271785610E-1	-3.135605812E0	-1.964347601E0	1.466869116E0
9.284464610E-1	-3.147856474E0	-1.965945601E0	1.520132422E0
9.312338310E-1	-3.159041643E0	-1.958488703E0	1.567003965E0
9.329909990E-1	-3.160106897E0	-1.936118126E0	1.637311459E0
9.351933070E-1	-3.156911135E0	-1.921204448E0	1.659149408E0
9.366650380E-1	-3.148389101E0	-1.887648582E0	1.698031545E0
9.393378690E-1	-3.130812168E0	-1.840244293E0	1.729456902E0
9.408455380E-1	-3.100452185E0	-1.774730563E0	1.756621122E0
9.434289080E-1	-3.062102795E0	-1.704955816E0	1.778458953E0
9.447686150E-1	-3.014698505E0	-1.632517815E0	1.790176868E0
9.475201000E-1	-2.962500334E0	-1.560079813E0	1.791242242E0
9.491503840E-1	-2.881540298E0	-1.453553319E0	1.785915852E0
9.515534840E-1	-2.830407619E0	-1.347559571E0	1.773665309E0
9.528476920E-1	-2.780872822E0	-1.243696213E0	1.757686377E0
9.556087920E-1	-2.735599041E0	-1.141430855E0	1.736381054E0
9.574347690E-1	-2.686064243E0	-1.054611802E0	1.713477850E0
9.596572540E-1	-2.640790701E0	-9.805759192E-1	1.689509392E0
9.609929220E-1	-2.593919039E0	-9.155948162E-1	1.660747290E0
9.637119080E-1	-2.548645258E0	-8.543421030E-1	1.629854560E0
9.654834990E-1	-2.504969358E0	-7.973504663E-1	1.597364068E0
9.677791000E-1	-2.462891340E0	-7.419567108E-1	1.564340830E0
9.690106920E-1	-2.420813560E0	-6.897587180E-1	1.530784965E0
9.718341380E-1	-2.383529186E0	-6.386260390E-1	1.499892354E0
9.735063840E-1	-2.348375559E0	-5.960154533E-1	1.470597625E0
9.756678070E-1	-2.316950083E0	-5.581985712E-1	1.440770149E0
9.771098840E-1	-2.289253235E0	-5.299690962E-1	1.418932199E0
9.799229070E-1	-2.264752150E0	-5.075985193E-1	1.399757504E0
9.814686920E-1	-2.245044947E0	-4.910869002E-1	1.384311199E0
9.839769840E-1	-2.228000641E0	-4.767058492E-1	1.374723792E0
9.852565760E-1	-2.217880487E0	-4.601942301E-1	1.362473249E0
9.880329460E-1	-2.207227945E0	-4.404868484E-1	1.354483724E0
9.900398840E-1	-2.198705912E0	-4.165183902E-1	1.349690080E0
9.920669460E-1	-2.198173285E0	-3.957457542E-1	1.346494317E0
9.933446150E-1	-2.194444895E0	-3.691141307E-1	1.349157453E0
9.961227920E-1	-2.193912029E0	-3.510046303E-1	1.352885842E0
9.978149220E-1	-2.191781521E0	-3.350256681E-1	1.361940622E0
1.000154407E0	-2.186455250E0	-3.243730366E-1	1.374191165E0
1.001461576E0	-2.180063725E0	-3.254382908E-1	1.394431114E0
1.004209792E0	-2.172074318E0	-3.328951299E-1	1.413073301E0
1.006045807E0	-2.159823656E0	-3.653857112E-1	1.444498658E0
1.008263484E0	-2.155562639E0	-3.802994192E-1	1.458879709E0
1.009509499E0	-2.142779350E0	-4.127899706E-1	1.486576557E0
1.012320138E0	-2.132126808E0	-4.479437172E-1	1.511077642E0
1.013968499E0	-2.113484621E0	-4.948153496E-1	1.560079813E0
1.016167384E0	-2.115082502E0	-4.783037305E-1	1.574993491E0
1.017610730E0	-2.115615129E0	-4.458131790E-1	1.604820848E0
1.020408253E0	-2.119876385E0	-4.223773479E-1	1.635180950E0
1.021719192E0	-2.116680384E0	-4.085289240E-1	1.662345171E0
1.024504215E0	-2.118810892E0	-4.037352204E-1	1.687378883E0
1.025998884E0	-2.118810892E0	-4.000068009E-1	1.705488443E0
1.028595215E0	-2.120941639E0	-3.925499618E-1	1.728391528E0
1.030240384E0	-2.118278265E0	-3.856257200E-1	1.740109444E0
1.032643600E0	-2.120941639E0	-3.765709996E-1	1.746501088E0
1.033980422E0	-2.120941639E0	-3.653857112E-1	1.751827359E0
1.036699215E0	-2.123072147E0	-3.547330499E-1	1.758751631E0
1.038409845E0	-2.124137402E0	-3.419498801E-1	1.763012648E0
1.040732138E0	-2.127865791E0	-3.318298757E-1	1.768871665E0
1.041977538E0	-2.129996300E0	-3.222424984E-1	1.772600055E0
1.044788176E0	-2.137453079E0	-3.083940744E-1	1.780056953E0
1.046631615E0	-2.142779350E0	-2.881540358E-1	1.791242242E0
1.048852253E0	-2.150236368E0	-2.583266199E-1	1.800296903E0
1.050133807E0	-2.161954165E0	-2.167813182E-1	1.814145327E0
1.052908292E0	-2.175270081E0	-1.677791476E-1	1.827461123E0
1.054586422E0	-2.191248894E0	-1.097222418E-1	1.840776920E0
1.056787269E0	-2.204564810E0	-4.687163606E-2	1.850364327E0
1.058193307E0	-2.221076488E0	1.704423130E-2	1.856755972E0
1.061011176E0	-2.232794285E0	8.255799860E-2	1.859951735E0
1.062550345E0	-2.244512320E0	1.406149119E-1	1.860484362E0
1.065062753E0	-2.258360624E0	1.976065636E-1	1.852494836E0
1.066325538E0	-2.266350031E0	2.428802997E-1	1.841842294E0
1.069118599E0	-2.276470184E0	2.833603323E-1	1.827461123E0
1.070995884E0	-2.281796455E0	3.217098713E-1	1.809884310E0
1.073153792E0	-2.288187981E0	3.494067490E-1	1.790176868E0
1.074488422E0	-2.292448997E0	3.712446690E-1	1.763012648E0
1.077209792E0	-2.296710253E0	3.845604658E-1	1.732120037E0
1.079053692E0	-2.303634405E0	3.850930929E-1	1.684183121E0
1.081256869E0	-2.303634405E0	3.797667921E-1	1.668736815E0
1.082586922E0	-2.303634405E0	3.605920076E-1	1.631452560E0
1.085312215E0	-2.300438643E0	3.376888335E-1	1.592570305E0
1.087034422E0	-2.293514490E0	2.732403278E-1	1.526523948E0
1.089387215E0	-2.291383743E0	2.492718846E-1	1.506283998E0
1.090637884E0	-2.285524845E0	1.933455020E-1	1.462075472E0
1.093442869E0	-2.275404930E0	1.283643693E-1	1.418932199E0
1.095122692E0	-2.261023760E0	2.503371425E-2	1.356614232E0
1.097342345E0	-2.255697489E0	-1.225054078E-2	1.335309029E0
1.098724461E0	-2.242381573E0	-8.522115648E-2	1.294296265E0
1.101533484E0	-2.219478607E0	-1.970739216E-1	1.239435196E0
1.102951115E0	-2.194977522E0	-2.609897852E-1	1.204281449E0
1.105636984E0	-2.175802708E0	-3.206445873E-1	1.181910872E0
1.106957345E0	-2.150236368E0	-3.707120419E-1	1.161670923E0
1.109728061E0	-2.123072147E0	-4.149205089E-1	1.146757245E0
1.111427153E0	-2.093777180E0	-4.495415986E-1	1.138767719E0
1.113762099E0	-2.060221434E0	-4.788363874E-1	1.133973956E0
1.115435461E0	-2.022937298E0	-5.054680109E-1	1.136104584E0
1.117818407E0	-1.989381313E0	-5.310343504E-1	1.138767719E0
1.119511307E0	-1.955292940E0	-5.550028086E-1	1.145159245E0
1.121850215E0	-1.928661346E0	-5.773733258E-1	1.152616143E0
1.123171768E0	-1.899366498E0	-5.965480804E-1	1.160073042E0
1.125905868E0	-1.874865413E0	-6.173207760E-1	1.169660330E0
1.127693999E0	-1.854092836E0	-6.412891746E-1	1.173921466E0
1.129960291E0	-1.834385395E0	-6.663229465E-1	1.173921466E0
1.131329730E0	-1.817873836E0	-6.849650741E-1	1.169660330E0
1.134016022E0	-1.798166394E0	-6.908239722E-1	1.160073042E0
1.135646615E0	-1.774197936E0	-6.807039976E-1	1.146757245E0
1.137857653E0	-1.750229478E0	-6.546050310E-1	1.129180312E0
1.139334576E0	-1.718271613E0	-6.194512844E-1	1.111603498E0
1.142105022E0	-1.684183121E0	-5.731122494E-1	1.092961311E0
1.143762076E0	-1.643170476E0	-5.177185535E-1	1.071123362E0
1.146135368E0	-1.600027204E0	-4.596616030E-1	1.054079175E0
1.147370307E0	-1.550492406E0	-3.957457542E-1	1.030110717E0
1.150191599E0	-1.495631337E0	-3.270362020E-1	1.010936022E0
1.151880692E0	-1.409344912E0	-2.359560728E-1	9.821738005E-1
1.154243407E0	-1.383245945E0	-2.119876295E-1	9.752495885E-1
1.155529999E0	-1.330515265E0	-1.757686287E-1	9.598032832E-1
1.158300138E0	-1.283111095E0	-1.581917703E-1	9.438242912E-1
1.159950461E0	-1.222391009E0	-1.518001854E-1	9.289106131E-1
1.162333484E0	-1.203216195E0	-1.539307088E-1	9.262474179E-1
1.163554461E0	-1.166997194E0	-1.656486243E-1	9.241169095E-1
1.166390253E0	-1.132908702E0	-1.784317940E-1	9.273127317E-1
1.168123922E0	-1.078580260E0	-1.992044598E-1	9.395632744E-1
1.170455022E0	-1.062601328E0	-2.077265680E-1	9.480853677E-1
1.171747153E0	-1.025849700E0	-2.242381722E-1	9.598032832E-1
1.174511791E0	-9.928264618E-1	-2.407497615E-1	9.827064872E-1
1.176714461E0	-9.422264099E-1	-2.615224123E-1	1.008805394E0
1.178358730E0	-9.054747820E-1	-2.732403278E-1	1.028512836E0
1.179786345E0	-8.703210354E-1	-2.817624509E-1	1.041296005E0
1.182602368E0	-8.314388990E-1	-2.870887816E-1	1.051416039E0
1.183929538E0	-7.888283134E-1	-2.966761589E-1	1.059938192E0
1.186699330E0	-7.462177277E-1	-3.030677438E-1	1.057274938E0
1.187956192E0	-7.020092607E-1	-3.089267015E-1	1.053013921E0
1.190790022E0	-6.578007936E-1	-3.158509135E-1	1.042893887E0
1.192575961E0	-6.098638773E-1	-3.238403797E-1	1.028512836E0
1.194823753E0	-5.677859783E-1	-3.307646215E-1	1.007207513E0
1.196055307E0	-5.251753926E-1	-3.398193717E-1	9.795106649E-1
1.198880253E0	-4.820321798E-1	-3.504720032E-1	9.480853677E-1
1.200567576E0	-4.436826408E-1	-3.589941263E-1	9.118663669E-1
1.202926984E0	-4.069310129E-1	-3.659183383E-1	8.719189763E-1
1.204233038E0	-3.680488765E-1	-3.723099232E-1	8.271778226E-1
1.206983291E0	-3.382214606E-1	-3.723099232E-1	7.755125165E-1
1.208828115E0	-3.062635362E-1	-3.739078343E-1	7.222493291E-1
1.211047791E0	-2.801645398E-1	-3.744404614E-1	6.641923785E-1
1.212378384E0	-2.545982003E-1	-3.760383427E-1	6.050702333E-1
1.215103483E0	-2.316950262E-1	-3.781688809E-1	5.390238166E-1
1.217020768E0	-2.098570913E-1	-3.829625845E-1	4.719121456E-1
1.219037884E0	-1.928128600E-1	-3.872236311E-1	3.984089196E-1
1.220419038E0	-1.768338978E-1	-3.909520507E-1	3.270362020E-1
1.223191022E0	-1.667138934E-1	-3.909520507E-1	2.545982003E-1
1.224773345E0	-1.565938741E-1	-3.914846778E-1	1.816275865E-1
1.227227368E0	-1.544633508E-1	-3.818973005E-1	1.113201380E-1
1.228458038E0	-1.512675583E-1	-3.669835925E-1	3.888215125E-2
1.231283060E0	-1.539307088E-1	-3.462109566E-1	-3.515372798E-2
1.233089230E0	-1.715075821E-1	-3.051982522E-1	-1.518001854E-1
1.235317330E0	-1.826928556E-1	-2.881540358E-1	-1.901497096E-1
1.236743576E0	-2.050634027E-1	-2.620550692E-1	-2.732403278E-1
1.239373060E0	-2.322276533E-1	-2.370213419E-1	-3.589941263E-1
1.241205538E0	-2.844256163E-1	-2.130528986E-1	-4.916195571E-1
1.243405483E0	-3.030677438E-1	-2.103897333E-1	-5.379585624E-1
1.244893999E0	-3.472762108E-1	-2.039981484E-1	-6.359629035E-1
1.247461291E0	-3.904194236E-1	-2.061286718E-1	-7.323693037E-1
1.249249653E0	-4.538026452E-1	-2.093244642E-1	-8.831042051E-1
1.251515291E0	-4.990763962E-1	-2.093244642E-1	-9.885654449E-1
1.252752691E0	-5.209143162E-1	-2.077265680E-1	-1.042361259E0
1.255570791E0	-5.890912414E-1	-2.018676102E-1	-1.210140467E0
1.257191653E0	-6.290386319E-1	-2.002697140E-1	-1.318264723E0
1.259490884E0	-6.695187092E-1	-1.997370869E-1	-1.426921725E0
1.260941345E0	-7.147924304E-1	-2.002697140E-1	-1.533980846E0
1.263658676E0	-7.542072535E-1	-2.039981484E-1	-1.639441967E0
1.265132845E0	-7.920241356E-1	-2.119876295E-1	-1.740642071E0
1.267776753E0	-8.239820600E-1	-2.322276533E-1	-1.846635938E0
1.269247845E0	-8.564726114E-1	-2.482066154E-1	-1.949966550E0
1.271868252E0	-8.878979087E-1	-2.631203234E-1	-2.049036264E0
1.273521038E0	-8.990831971E-1	-2.993393242E-1	-2.153964758E0
1.275918176E0	-9.134642482E-1	-3.158509135E-1	-2.259425879E0
1.277164268E0	-9.203884602E-1	-3.350256681E-1	-2.363289118E0
1.279974291E0	-9.108011127E-1	-3.589941263E-1	-2.470348358E0
1.281742845E0	-9.049421549E-1	-3.526025414E-1	-2.577407360E0
1.284007522E0	-8.697884083E-1	-3.792341352E-1	-2.675944328E0
1.285252653E0	-8.229168057E-1	-3.877562582E-1	-2.761165380E0
1.288063599E0	-7.691209316E-1	-3.914846778E-1	-2.846386671E0
1.289842115E0	-7.089334726E-1	-3.712446690E-1	-2.930009842E0
1.292129560E0	-6.434197426E-1	-3.302319944E-1	-3.004045725E0
1.293390422E0	-5.688512325E-1	-2.844256163E-1	-3.081809998E0
1.296185752E0	-4.804342687E-1	-2.391518652E-1	-3.155313253E0
1.298201768E0	-3.435477912E-1	-1.486043930E-1	-3.237338781E0
1.300074922E0	-2.913498282E-1	-1.315601617E-1	-3.268231392E0
1.301459807E0	-1.906823367E-1	-8.575379103E-2	-3.323092461E0
1.304289445E0	-8.468852192E-2	-5.060006306E-2	-3.372094631E0
1.305840538E0	7.989483327E-2	-2.663161140E-3	-3.429086208E0
1.308368983E0	1.320927888E-1	1.171790902E-2	-3.447728395E0
1.309613499E0	2.322276533E-1	4.846953228E-2	-3.471696854E0
1.312425829E0	3.296993375E-1	8.894958347E-2	-3.483414888E0
1.314181538E0	4.681837261E-1	1.107875034E-1	-3.503122091E0
1.316462060E0	5.070658922E-1	1.331580579E-1	-3.509513855E0
1.317684576E0	5.816344023E-1	1.624528319E-1	-3.481284142E0
1.320518868E0	6.689860821E-1	1.997370869E-1	-3.433347225E0
1.322212538E0	7.238472104E-1	1.778991669E-1	-3.365703106E0
1.324566752E0	7.717841268E-1	1.267664731E-1	-3.273025036E0
1.325799999E0	7.739146352E-1	1.736381054E-1	-3.143062830E0
1.328623675E0	7.520766854E-1	2.508697808E-1	-2.996588945E0
1.330405538E0	7.121292949E-1	3.115898669E-1	-2.829342365E0
1.332700021E0	6.641923785E-1	3.392867148E-1	-2.653041124E0
1.334049114E0	6.109291911E-1	3.424825370E-1	-2.477272511E0
1.336756521E0	5.491438508E-1	3.259709179E-1	-2.305232286E0
1.338409845E0	4.862932265E-1	2.924150825E-1	-2.141181469E0
1.340708576E0	4.186489284E-1	2.412824035E-1	-1.990979314E0
1.342051191E0	3.536677957E-1	1.693770438E-1	-1.844505429E0
1.344847829E0	2.881540358E-1	7.669904083E-2	-1.717738986E0
1.346156538E0	2.205097377E-1	-3.462109342E-2	-1.614408255E0
1.348943945E0	1.528654546E-1	-1.448759735E-1	-1.532915592E0
1.350208114E0	7.776430249E-2	-2.215750068E-1	-1.488707066E0
1.353035637E0	1.065264456E-3	-2.604571581E-1	-1.475923896E0
1.354694038E0	-7.084008306E-2	-2.796319127E-1	-1.486043930E0
1.357070406E0	-1.342233270E-1	-2.695119083E-1	-1.518001795E0
1.358306730E0	-1.954760253E-1	-2.311623842E-1	-1.570199847E0
1.361127098E0	-2.423476577E-1	-1.443433315E-1	-1.630387306E0
1.362792538E0	-2.844256163E-1	-2.503371425E-2	-1.700162053E0
1.365160060E0	-3.115898669E-1	1.086569726E-1	-1.765675783E0
1.366964114E0	-3.222424984E-1	2.577939928E-1	-1.835983276E0
1.369215983E0	-3.185140789E-1	4.330300093E-1	-1.898833871E0
1.371315307E0	-2.966761589E-1	7.307714224E-1	-1.981924534E0
1.373269906E0	-2.838929892E-1	8.399610519E-1	-2.006425619E0
1.374518114E0	-2.535329461E-1	1.040763378E0	-2.052232027E0
1.377326291E0	-2.231729031E-1	1.233043551E0	-2.089516163E0
1.378980538E0	-1.800296903E-1	1.516403913E0	-2.131594181E0
1.381358752E0	-1.683117896E-1	1.613875628E0	-2.142246723E0
1.382615653E0	-1.486043930E-1	1.798699021E0	-2.157160521E0
1.385414944E0	-1.320927888E-1	1.980859280E0	-2.169943810E0
1.387006307E0	-1.118527651E-1	2.217347860E0	-2.197108030E0
1.389466829E0	-1.049285457E-1	2.279133320E0	-2.206695318E0
1.390712884E0	-9.374327213E-2	2.389920712E0	-2.228000641E0
1.393523675E0	-6.924218684E-2	2.504969358E0	-2.271143913E0
1.395217345E0	-4.154531285E-2	2.485261917E0	-2.324939728E0
1.397572944E0	5.326322280E-3	2.389388084E0	-2.401106119E0
1.398812268E0	5.805691332E-2	2.241316319E0	-2.479935646E0
1.401629714E0	1.155811921E-1	2.075135231E0	-2.568352699E0
1.403393884E0	1.677791476E-1	1.914812803E0	-2.663161039E0
1.405661906E0	2.178465873E-1	1.775263190E0	-2.757436991E0
1.407032307E0	2.551308274E-1	1.634648323E0	-2.851712942E0
1.409718675E0	2.865561247E-1	1.496163964E0	-2.940662622E0
1.411776153E0	3.099919558E-1	1.336906910E0	-3.026948929E0
1.413783906E0	3.259709179E-1	1.162203550E0	-3.121757507E0
1.415142999E0	3.387540877E-1	9.763149023E-1	-3.211772442E0
1.417840175E0	3.446130455E-1	7.755125165E-1	-3.299656630E0
1.419666384E0	3.440804183E-1	5.720469952E-1	-3.383812428E0
1.421764691E0	3.371562064E-1	3.728425503E-1	-3.469566345E0
1.423404268E0	3.259709179E-1	1.778991669E-1	-3.546797991E0
1.425944367E0	3.046656251E-1	-9.587380104E-3	-3.618703365E0
1.427409691E0	2.828277051E-1	-1.741707325E-1	-3.686880350E0
1.430063021E0	2.545982003E-1	-3.211772442E-1	-3.741741419E0
1.431448845E0	2.247707993E-1	-4.426173866E-1	-3.798732996E0
1.434154021E0	1.912149638E-1	-5.406216979E-1	-3.851996183E0
1.435835768E0	1.619201899E-1	-6.476807594E-1	-3.905259609E0
1.438188906E0	1.320927888E-1	-7.467503548E-1	-3.962783813E0
1.439492422E0	9.267801046E-2	-8.255799413E-1	-4.012318611E0
1.442245213E0	2.130528912E-2	-9.155948162E-1	-4.075701714E0
1.443920076E0	-1.294296384E-1	-1.072188616E0	-4.210457802E0
1.446291983E0	-1.720402092E-1	-1.110005617E0	-4.254133701E0
1.447531076E0	-2.540655732E-1	-1.170192957E0	-4.343616009E0
1.450348060E0	-3.270362020E-1	-1.235174179E0	-4.439489841E0
1.452122422E0	-4.356931746E-1	-1.296959519E0	-4.578506470E0
1.454412059E0	-4.745753109E-1	-1.311873198E0	-4.621117115E0
1.455671730E0	-5.432848930E-1	-1.337439537E0	-4.708468914E0
1.458468021E0	-6.242449880E-1	-1.359277487E0	-4.791559696E0
1.460117268E0	-7.451524734E-1	-1.438639641E0	-4.904477596E0
1.462358576E0	-8.154599667E-1	-1.458879709E0	-4.968925953E0
1.463935576E0	-9.054747820E-1	-1.386441708E0	-5.015797615E0
1.466557906E0	-1.007740140E0	-1.211738348E0	-5.031243801E0
1.468672922E0	-1.123321414E0	-9.416937828E-1	-5.022721767E0
1.470580944E0	-1.262338400E0	-5.752428174E-1	-4.970523834E0
1.471932768E0	-1.437041759E0	-8.788431436E-2	-4.874650002E0
1.474637290E0	-1.644235730E0	5.044026971E-1	-4.721784592E0
1.476331037E0	-1.857288599E0	1.097222447E0	-4.546548843E0
1.478675367E0	-2.045307636E0	1.560079813E0	-4.411792755E0
1.480014037E0	-2.157160521E0	1.813612700E0	-4.361725330E0
1.482732482E0	-2.209891081E0	1.909486532E0	-4.389955044E0
1.484666230E0	-2.240783691E0	1.919073939E0	-4.448544502E0
1.486766444E0	-2.251436472E0	1.860484362E0	-4.527373791E0
1.488251384E0	-2.238653183E0	1.748098969E0	-4.611529827E0
1.490823867E0	-2.205630064E0	1.585646152E0	-4.696218491E0
1.492817730E0	-2.166215181E0	1.389637470E0	-4.742557526E0
1.494879867E0	-2.118278265E0	1.207477212E0	-4.754807949E0
1.496112653E0	-2.059156179E0	1.021055937E0	-4.731904507E0
1.498936059E0	-1.995240331E0	8.372978568E-1	-4.668521404E0
1.500756461E0	-1.936650753E0	6.471481323E-1	-4.557734013E0
1.502969867E0	-1.877528548E0	4.442152679E-1	-4.401140213E0
1.504383576E0	-1.818939090E0	2.380866110E-1	-4.217381954E0
1.507026213E0	-1.765143156E0	4.261057824E-3	-4.016047001E0
1.508415537E0	-1.703890443E0	-2.695119083E-1	-3.775297165E0
1.511144213E0	-1.676193595E0	-4.676510990E-1	-3.494067430E0
1.512633768E0	-1.667671561E0	-6.524744630E-1	-3.197391272E0
1.515235136E0	-1.661279917E0	-8.745821118E-1	-2.876746655E0
1.516987230E0	-1.651692510E0	-1.220793009E0	-2.307895422E0
1.519285098E0	-1.648496747E0	-1.325188994E0	-2.122539520E0
1.520562345E0	-1.641039848E0	-1.511610270E0	-1.768871665E0
1.523341867E0	-1.626658797E0	-1.635713577E0	-1.450357556E0
1.524961461E0	-1.608549356E0	-1.695368409E0	-1.050350785E0
1.527376675E0	-1.600559831E0	-1.694835782E0	-9.470201135E-1
1.528870499E0	-1.552622914E0	-1.695901036E0	-7.840346098E-1
1.531433905E0	-1.486576557E0	-1.653823018E0	-6.652576327E-1
1.533430961E0	-1.387506962E0	-1.501490235E0	-5.320996046E-1
1.535498251E0	-1.316666842E0	-1.374723792E0	-4.841626883E-1
1.536827076E0	-1.242630959E0	-1.235706806E0	-4.751079381E-1
1.539554905E0	-1.180312991E0	-1.085504532E0	-4.878911078E-1
1.541288691E0	-1.116397142E0	-9.113337398E-1	-5.012069345E-1
1.543602021E0	-1.050350785E0	-7.360977530E-1	-5.113269091E-1
1.544851037E0	-9.843043685E-1	-5.581985712E-1	-5.241101384E-1
1.547658713E0	-9.134642482E-1	-3.797667921E-1	-5.315669775E-1
1.549209499E0	-8.293083906E-1	-2.157160491E-1	-5.342301130E-1
1.551762021E0	-7.334345579E-1	-7.243798673E-2	-5.416869521E-1
1.553054422E0	-6.306365728E-1	3.568635881E-2	-5.384911895E-1
1.555817944E0	-5.177185535E-1	1.235706806E-1	-5.320996046E-1
1.557608422E0	-3.936152160E-1	1.864212751E-1	-5.278385282E-1
1.559852559E0	-2.567287385E-1	2.439455539E-1	-5.326322317E-1
1.561158614E0	-1.129180342E-1	2.897519469E-1	-5.432848930E-1
1.563908405E0	3.302319720E-2	2.950782478E-1	-5.587311983E-1
1.565553499E0	1.816275865E-1	2.780340314E-1	-5.821670294E-1
1.567954328E0	3.350256681E-1	2.625876963E-1	-6.077333689E-1
1.569322884E0	4.980111420E-1	2.540655732E-1	-6.540724039E-1
1.572009905E0	6.695187092E-1	2.583266199E-1	-7.462177277E-1
1.573832807E0	8.351673484E-1	2.471413612E-1	-8.351673484E-1
1.576084174E0	1.001348615E0	2.269013226E-1	-9.294432402E-1
1.577370307E0	1.176584601E0	2.151834220E-1	-1.040763378E0
1.580140790E0	1.339037418E0	2.082591951E-1	-1.166997194E0
1.581790537E0	1.497229218E0	2.018676102E-1	-1.303883672E0
1.584024345E0	1.639441967E0	1.624528319E-1	-1.440237522E0
1.585406999E0	1.777393699E0	1.001348570E-1	-1.576058745E0
1.588230597E0	1.897768617E0	2.183792181E-2	-1.706553698E0
1.589714268E0	2.005892992E0	-6.870955974E-2	-1.823732734E0
1.592327059E0	2.094842434E0	-1.651159972E-1	-1.919606566E0
1.593626999E0	2.169943810E0	-2.609897852E-1	-1.992044568E0
1.596418905E0	2.235457420E0	-3.632551730E-1	-2.055427790E0
1.598121922E0	2.314819574E0	-5.145227313E-1	-2.123604774E0
1.600452559E0	2.335592270E0	-5.661880374E-1	-2.139050961E0
1.601754691E0	2.359560728E0	-6.700513363E-1	-2.158225775E0
1.604509097E0	2.367017508E0	-8.101336360E-1	-2.148105860E0
1.606396537E0	2.354234457E0	-8.916263580E-1	-2.117213011E0
1.608542828E0	2.325472355E0	-9.603359103E-1	-2.067678213E0
1.610043614E0	2.277002811E0	-1.018392801E0	-1.994175076E0
1.612599520E0	2.218413115E0	-1.054079175E0	-1.905758142E0
1.614672730E0	2.122539520E0	-1.066329718E0	-1.802427411E0
1.616654443E0	2.015480280E0	-1.057807565E0	-1.690042019E0
1.617905345E0	1.892442346E0	-1.030643344E0	-1.573928237E0
1.620711367E0	1.762480021E0	-9.949570298E-1	-1.458347082E0
1.622371730E0	1.614408255E0	-9.363674521E-1	-1.320927978E0
1.624743597E0	1.459412336E0	-8.564726114E-1	-1.166464567E0
1.625979268E0	1.295894265E0	-7.584682703E-1	-9.954896569E-1
1.628800828E0	1.128647685E0	-6.476807594E-1	-8.138620257E-1
1.630355191E0	9.560748339E-1	-5.214469433E-1	-6.311691999E-1
1.632900059E0	7.787083387E-1	-3.877562582E-1	-4.479437172E-1
1.634158845E0	6.008091569E-1	-2.561961114E-1	-2.673813701E-1
1.636956790E0	4.234426320E-1	-1.214401498E-1	-8.202536404E-2
1.638713960E0	2.519350350E-1	3.195793368E-3	1.027980223E-1
1.641007020E0	8.468852192E-2	1.219727769E-1	2.721750736E-1
1.642361076E0	-7.137271762E-2	2.354234457E-1	4.255731404E-1
1.645063828E0	-2.178465873E-1	3.456783295E-1	5.560680628E-1
1.646849230E0	-3.510046303E-1	4.484763443E-1	6.625944972E-1
1.649097943E0	-4.687163532E-1	5.475459099E-1	7.515440583E-1
1.650409537E0	-5.789712071E-1	6.380934119E-1	8.106662631E-1
1.653154674E0	-6.753776670E-1	7.222493291E-1	8.516789079E-1
1.655085191E0	-7.962851524E-1	8.261125684E-1	8.767126203E-1
1.657219982E0	-8.335694075E-1	8.564726114E-1	8.767126203E-1
1.658426076E0	-8.969526887E-1	9.118663669E-1	8.607336879E-1
1.661276136E0	-9.480853677E-1	9.544769526E-1	8.372978568E-1
1.663047191E0	-1.011468649E0	1.001348615E0	7.744472623E-1
1.665149999E0	-1.030643344E0	1.007740140E0	7.494135499E-1
1.666528922E0	-1.057274938E0	1.022653818E0	6.977482438E-1
1.669380636E0	-1.074319243E0	1.027447581E0	6.423544884E-1
1.670717922E0	-1.086569786E0	1.021055937E0	5.816344023E-1
1.673498905E0	-1.089765549E0	9.954896569E-1	4.921521842E-1
1.674854191E0	-1.082841277E0	9.693906307E-1	4.282363057E-1
1.677590212E0	-1.070058107E0	9.337043166E-1	3.643204570E-1
1.679209422E0	-1.048752904E0	8.910937309E-1	3.067961633E-1
1.681624828E0	-1.029578090E0	8.463526368E-1	2.412824035E-1
1.682855614E0	-9.965549111E-1	7.909588814E-1	1.848233789E-1
1.685681289E0	-9.624664187E-1	7.313040495E-1	1.272991002E-1
1.687371345E0	-9.241169095E-1	6.657902598E-1	7.137271762E-2
1.689730251E0	-8.799084425E-1	5.954828262E-1	2.077265643E-2
1.691121922E0	-8.330367804E-1	5.177185535E-1	-2.716424316E-2
1.693786212E0	-7.845672965E-1	4.378236830E-1	-6.924218684E-2
1.695652153E0	-7.334345579E-1	3.520699143E-1	-1.022653878E-1
1.697850443E0	-6.833671331E-1	2.668487430E-1	-1.326254308E-1
1.699129307E0	-6.258428693E-1	1.800296903E-1	-1.518001854E-1
1.701906828E0	-5.688512325E-1	9.480853379E-2	-1.699096859E-1
1.703563768E0	-5.150553584E-1	8.522115648E-3	-1.778991669E-1
1.705764576E0	-4.607268870E-1	-7.243798673E-2	-1.763012707E-1
1.707199153E0	-4.069310129E-1	-1.518001854E-1	-1.699096859E-1
1.709997789E0	-3.568635881E-1	-2.263686955E-1	-1.581917703E-1
1.711537807E0	-3.057309091E-1	-2.977414131E-1	-1.395496428E-1
1.714054097E0	-2.577939928E-1	-3.637878001E-1	-1.225054115E-1
1.715414345E0	-2.119876295E-1	-4.255731404E-1	-9.693906456E-2
1.718111943E0	-1.677791476E-1	-4.825648069E-1	-7.936219871E-2
1.719788037E0	-1.288969964E-1	-5.352953672E-1	-5.219795927E-2
1.722147443E0	-9.161274135E-2	-5.811017752E-1	-2.343581803E-2
1.723384768E0	-6.338323653E-2	-6.253102422E-1	4.793690052E-3
1.726205251E0	-3.675162420E-2	-6.609966159E-1	2.929477207E-2
1.728540328E0	-7.989482954E-3	-7.057377100E-1	7.190535218E-2
1.730239943E0	5.326322280E-4	-7.169229984E-1	8.309062570E-2
1.731778576E0	1.544633508E-2	-7.376956344E-1	1.118527651E-1
1.734297943E0	2.343581803E-2	-7.472830415E-1	1.336906850E-1
1.736036768E0	2.769687586E-2	-7.574030161E-1	1.619201899E-1
1.738354481E0	2.716424316E-2	-7.552725077E-1	1.725728363E-1
1.739669037E0	1.970739290E-2	-7.510114312E-1	1.826928556E-1
1.742411866E0	1.171790902E-2	-7.382282615E-1	2.002697140E-1
1.744031230E0	-1.118527725E-2	-7.099987864E-1	2.183792144E-1
1.746244691E0	-2.077265643E-2	-7.014766335E-1	2.247707993E-1
1.747659922E0	-4.154531285E-2	-6.775081754E-1	2.316950262E-1
1.750502751E0	-7.989483327E-2	-6.348975897E-1	2.450108230E-1
1.751837383E0	-1.086569726E-1	-5.986786485E-1	2.460760921E-1
1.754595674E0	-1.384843737E-1	-5.624596477E-1	2.460760921E-1
1.755835037E0	-1.688444167E-1	-5.230448246E-1	2.402171344E-1
1.758687943E0	-2.039981484E-1	-4.814995229E-1	2.412824035E-1
1.760368114E0	-2.386192381E-1	-4.415521026E-1	2.380866110E-1
1.762739981E0	-2.748382390E-1	-4.005394280E-1	2.364887148E-1
1.763946691E0	-3.099919558E-1	-3.584614992E-1	2.343581766E-1
1.766797597E0	-3.430151641E-1	-3.195793331E-1	2.332929224E-1
1.768600537E0	-3.771036267E-1	-2.817624509E-1	2.348908186E-1
1.770832097E0	-4.085289240E-1	-2.444781959E-1	2.359560728E-1
1.772019460E0	-4.367584288E-1	-2.119876295E-1	2.386192381E-1
1.774889866E0	-4.649879336E-1	-1.821602285E-1	2.402171344E-1
1.777056691E0	-4.926848114E-1	-1.512675583E-1	2.423476577E-1
1.778957212E0	-5.123922229E-1	-1.251685768E-1	2.439455539E-1
1.780154345E0	-5.331648588E-1	-1.033306494E-1	2.439455539E-1
1.783014751E0	-5.502091050E-1	-8.415589482E-2	2.460760921E-1
1.784731076E0	-5.635249019E-1	-6.711166352E-2	2.439455539E-1
1.786928153E0	-5.768406987E-1	-5.326322466E-2	2.423476577E-1
1.788267037E0	-5.869607329E-1	-4.101268202E-2	2.370213419E-1
1.791121827E0	-5.906891227E-1	-3.408846259E-2	2.343581766E-1
1.792641230E0	-5.954828262E-1	-2.929477207E-2	2.274339646E-1
1.795191558E0	-5.938849449E-1	-2.663161233E-2	2.210423797E-1
1.796394383E0	-5.949501991E-1	-2.769687586E-2	2.173139453E-1
1.799249250E0	-5.922870636E-1	-2.876213938E-2	2.066612989E-1
1.800887730E0	-5.789712071E-1	-3.675162420E-2	2.013349831E-1
1.803284712E0	-5.747101903E-1	-4.154531285E-2	1.960086524E-1
1.804618499E0	-5.619270205E-1	-5.006742850E-2	1.901497096E-1
1.807342289E0	-5.496764779E-1	-6.338323653E-2	1.837581247E-1
1.809012691E0	-5.273059011E-1	-8.362326026E-2	1.778991669E-1
1.811392097E0	-5.193164349E-1	-9.001484513E-2	1.773665249E-1
1.812603076E0	-4.985437691E-1	-1.081243455E-1	1.741707325E-1
1.815449443E0	-4.735100567E-1	-1.379517466E-1	1.693770438E-1
1.817205230E0	-4.580637217E-1	-1.592570394E-1	1.651159972E-1
1.819526135E0	-4.415521026E-1	-1.848233789E-1	1.624528319E-1
1.820738383E0	-4.261057973E-1	-2.029328793E-1	1.603222936E-1
1.823582866E0	-4.117247164E-1	-2.242381722E-1	1.576591432E-1
1.825248460E0	-3.936152160E-1	-2.418150306E-1	1.528654546E-1
1.827387153E0	-3.749730885E-1	-2.434129268E-1	1.251685768E-1
1.828849037E0	-3.557983339E-1	-2.338255495E-1	7.190535218E-2
1.831673981E0	-3.387540877E-1	-2.258360684E-1	3.621899337E-2
1.832964191E0	-3.281014562E-1	-2.167813182E-1	1.917476021E-2
1.835777558E0	-3.153182864E-1	-1.997370869E-1	1.225054078E-2
1.837103576E0	-3.020024598E-1	-1.800296903E-1	9.054748341E-3
1.839868981E0	-2.945456207E-1	-1.603222936E-1	-1.065264456E-3
1.841486537E0	-2.849582434E-1	-1.422128081E-1	-9.587380104E-3
1.843904173E0	-2.790992856E-1	-1.331580579E-1	-1.970739290E-2
1.845132960E0	-2.801645398E-1	-1.390170157E-1	-2.396845073E-2
1.847960673E0	-2.897519469E-1	-1.502022892E-1	-2.876213938E-2
1.849557614E0	-2.950782478E-1	-1.693770438E-1	-2.290318534E-2
1.851994827E0	-3.025351167E-1	-1.885518134E-1	-8.522115648E-3
1.853285460E0	-3.073287904E-1	-2.018676102E-1	1.704423130E-2
1.856051866E0	-3.062635362E-1	-2.093244642E-1	4.900216311E-2
1.857829960E0	-2.929477394E-1	-2.098570913E-1	1.006674916E-1
1.860108289E0	-2.881540358E-1	-2.109223604E-1	1.177117229E-1
1.861562730E0	-2.764361203E-1	-2.114549875E-1	1.438107044E-1
1.864166404E0	-2.668487430E-1	-2.162486911E-1	1.619201899E-1
1.865785806E0	-2.476739883E-1	-2.295644879E-1	1.784317940E-1
1.868064960E0	-2.444781959E-1	-2.348908186E-1	1.821602285E-1
1.869483422E0	-2.380866110E-1	-2.540655732E-1	1.869539171E-1
1.872259250E0	-2.471413612E-1	-2.860234976E-1	2.018676102E-1
1.873778537E0	-2.631203234E-1	-3.355582952E-1	2.306297570E-1
1.876313327E0	-2.711097896E-1	-3.760383427E-1	2.663161159E-1
1.877530537E0	-2.700445354E-1	-3.946804702E-1	3.051982522E-1
1.880371212E0	-2.524676621E-1	-3.898867965E-1	3.440804183E-1
1.881995114E0	-1.986718178E-1	-3.478088379E-1	4.048005044E-1
1.884421135E0	-1.805623323E-1	-3.312972486E-1	4.308994710E-1
1.885606922E0	-1.459412277E-1	-2.966761589E-1	4.713795185E-1
1.888478904E0	-7.776430249E-2	-2.284992188E-1	5.102616549E-1
1.890088114E0	-3.142530099E-2	-1.810949594E-1	5.278385282E-1
1.892512904E0	-5.326322280E-4	-1.507349163E-1	5.395564437E-1
1.893806576E0	2.450108156E-2	-1.257012039E-1	5.352953672E-1
1.896570212E0	3.195793182E-2	-1.278317273E-1	5.171858668E-1
1.898317537E0	2.769687586E-2	-1.464738697E-1	4.836300611E-1
1.900635904E0	1.438106969E-2	-1.837581247E-1	4.410194755E-1
1.901943229E0	-1.171790902E-2	-2.348908186E-1	3.984089196E-1
1.904693865E0	-3.994741663E-2	-2.945456207E-1	3.536677957E-1
1.906319653E0	-7.137271762E-2	-3.520699143E-1	3.185140789E-1
1.908595191E0	-1.033306494E-1	-4.111920893E-1	2.892192900E-1
1.909983114E0	-1.278317273E-1	-4.644553065E-1	2.705771625E-1
1.912799712E0	-1.502022892E-1	-5.070658922E-1	2.631203234E-1
1.914164806E0	-1.619201899E-1	-5.342301130E-1	2.695119083E-1
1.916918750E0	-1.715075821E-1	-5.523396134E-1	2.849582434E-1
1.918166729E0	-1.747033745E-1	-5.571333170E-1	3.014698327E-1
1.921010788E0	-1.736381054E-1	-5.597964525E-1	3.254382908E-1
1.922618153E0	-1.736381054E-1	-5.518069863E-1	3.456783295E-1
1.925046096E0	-1.699096859E-1	-5.384911895E-1	3.579288721E-1
1.926496191E0	-1.613875628E-1	-5.171858668E-1	3.733751774E-1
1.929103365E0	-1.571265012E-1	-4.953479767E-1	3.797667921E-1
1.930744153E0	-1.470064968E-1	-4.623247683E-1	3.845604658E-1
1.933151481E0	-1.422128081E-1	-4.479437172E-1	3.882888854E-1
1.934343191E0	-1.352885813E-1	-4.202468395E-1	3.850930929E-1
1.937208442E0	-1.395496428E-1	-4.085289240E-1	3.749730885E-1
1.939013191E0	-1.459412277E-1	-3.957457542E-1	3.542004228E-1
1.941273558E0	-1.496696621E-1	-3.914846778E-1	3.462109566E-1
1.942508153E0	-1.576591432E-1	-3.765709996E-1	3.376888335E-1
1.945330750E0	-1.640507281E-1	-3.611246645E-1	3.307646215E-1
1.947018999E0	-1.752360016E-1	-3.360909224E-1	3.281014562E-1
1.949158537E0	-1.747033745E-1	-3.259709179E-1	3.318298757E-1
1.950581383E0	-1.864212751E-1	-3.121224940E-1	3.360909224E-1
1.953423211E0	-1.965412945E-1	-2.982740402E-1	3.552657068E-1
1.954859306E0	-2.061286718E-1	-2.892192900E-1	3.707120419E-1
1.957487711E0	-2.082591951E-1	-2.695119083E-1	3.893541694E-1
1.958688153E0	-2.071939409E-1	-2.487392575E-1	4.048005044E-1
1.961544865E0	-2.098570913E-1	-2.348908186E-1	4.149205089E-1
1.963153845E0	-2.151834220E-1	-2.306297570E-1	4.175836742E-1
1.965580827E0	-2.173139453E-1	-2.269013226E-1	4.074636400E-1
1.966917037E0	-2.162486911E-1	-2.151834220E-1	3.856257200E-1
1.969638404E0	-2.109223604E-1	-1.970739216E-1	3.584614992E-1
1.971264652E0	-2.008023560E-1	-1.677791476E-1	3.403519988E-1
1.973673673E0	-1.832254827E-1	-1.267664731E-1	3.265035450E-1
1.975004460E0	-1.635181010E-1	-8.735168725E-2	3.153182864E-1
1.977731519E0	-1.427454352E-1	-5.379585549E-2	2.993393242E-1
1.979520652E0	-1.198422536E-1	-2.556634694E-2	2.854908705E-1
1.981790057E0	-9.800432622E-2	-7.456851192E-3	2.684466541E-1
1.983003229E0	-7.030745596E-2	1.171790902E-2	2.466087192E-1
1.985847173E0	-4.048004746E-2	2.716424316E-2	2.290318608E-1
1.987481422E0	-8.522115648E-3	4.420847446E-2	2.103897333E-1
1.989686114E0	2.343581803E-2	5.326322466E-2	1.880191714E-1
1.991090845E0	5.965480953E-2	5.858954415E-2	1.629854590E-1
1.993939057E0	8.948221803E-2	6.391586363E-2	1.432780623E-1
1.995227537E0	1.209075153E-1	6.178534031E-2	1.209075153E-1
1.998036942E0	1.464738697E-1	6.072007492E-2	1.097222418E-1
1.999299922E0	1.784317940E-1	5.486112088E-2	1.017327532E-1
2.002129173E0	1.965412945E-1	4.101268202E-2	1.033306494E-1
2.003871191E0	2.221076339E-1	1.970739290E-2	1.102548689E-1
2.006181019E0	2.311623842E-1	1.704423130E-2	1.129180342E-1
2.007579037E0	2.455434501E-1	5.858954508E-3	1.241033077E-1
2.010238942E0	2.583266199E-1	-6.924218964E-3	1.352885813E-1
2.012013691E0	2.673813701E-1	-2.396845073E-2	1.475391239E-1
2.014273134E0	2.721750736E-1	-3.036003746E-2	1.533980817E-1
2.015478960E0	2.753708661E-1	-4.527373984E-2	1.587243974E-1
2.018332057E0	2.817624509E-1	-5.219795927E-2	1.629854590E-1
2.020120229E0	2.908172011E-1	-5.858954415E-2	1.656486243E-1
2.022398865E0	2.924150825E-1	-5.486112088E-2	1.656486243E-1
2.023634306E0	2.988066673E-1	-5.273059011E-2	1.693770438E-1
2.026458057E0	3.057309091E-1	-4.101268202E-2	1.842907518E-1
2.028142537E0	3.014698327E-1	-2.929477207E-2	1.986718178E-1
2.030296999E0	2.945456207E-1	-2.556634694E-2	2.151834220E-1
2.031724460E0	2.822950780E-1	-2.503371425E-2	2.316950262E-1
2.034566480E0	2.657834888E-1	-2.716424316E-2	2.439455539E-1
2.035983806E0	2.492718846E-1	-2.343581803E-2	2.604571581E-1
2.038640826E0	2.253034264E-1	-2.130528912E-2	2.743056118E-1
2.039889883E0	1.997370869E-1	-2.024002373E-2	2.870887816E-1
2.042699750E0	1.736381054E-1	-1.810949668E-2	2.982740402E-1
2.044318268E0	1.438107044E-1	-2.024002373E-2	3.041329980E-1
2.046737096E0	1.118527651E-1	-2.343581803E-2	3.131877482E-1
2.047951114E0	8.202536404E-2	-2.290318534E-2	3.206445873E-1
2.050796326E0	5.166532472E-2	-2.077265643E-2	3.291667104E-1
2.052428460E0	2.077265643E-2	-2.503371425E-2	3.350256681E-1
2.054847288E0	-9.587380104E-3	-3.036003746E-2	3.307646215E-1
2.056147076E0	-4.154531285E-2	-3.621899337E-2	3.328951299E-1
2.058906480E0	-6.604639441E-2	-3.302319720E-2	3.360909224E-1
2.060633999E0	-9.214537591E-2	-3.142530099E-2	3.419498801E-1
2.062983365E0	-1.113201380E-1	-3.089267015E-2	3.446130455E-1
2.064176576E0	-1.310275346E-1	-2.716424316E-2	3.499393761E-1
2.067041749E0	-1.480717659E-1	-2.290318534E-2	3.573962152E-1
2.068651922E0	-1.597896665E-1	-1.917476021E-2	3.653857112E-1
2.070858883E0	-1.704423130E-1	-1.597896591E-2	3.680488765E-1
2.072280306E0	-1.715075821E-1	-8.522115648E-3	3.765709996E-1
2.075135211E0	-1.720402092E-1	0.000000000E0	3.808320463E-1
2.076411422E0	-1.672465205E-1	7.456851192E-3	3.856257200E-1
2.079243442E0	-1.624528319E-1	1.491370238E-2	3.861583769E-1
2.080475422E0	-1.533980817E-1	2.237055451E-2	3.866910040E-1
2.083336596E0	-1.427454352E-1	3.249056637E-2	3.850930929E-1
2.084988537E0	-1.225054115E-1	4.580637068E-2	3.733751774E-1
2.087375211E0	-1.155811921E-1	4.900216311E-2	3.696467578E-1
2.088581422E0	-1.027980223E-1	5.219795927E-2	3.579288721E-1
2.091434288E0	-7.723167539E-2	6.018744037E-2	3.339604139E-1
2.093044575E0	-5.858954415E-2	6.551376730E-2	3.211772442E-1
2.095470211E0	-3.781688958E-2	7.350324839E-2	3.030677438E-1
2.096679152E0	-1.704423130E-2	8.042746782E-2	2.913498282E-1
2.099528403E0	5.326322280E-3	9.001484513E-2	2.743056118E-1
2.101305537E0	3.302319720E-2	9.693906456E-2	2.641855776E-1
2.103584403E0	5.699164793E-2	1.059938148E-1	2.540655732E-1
2.104788537E0	7.776430249E-2	1.118527651E-1	2.471413612E-1
2.107642903E0	1.017327532E-1	1.145159304E-1	2.348908186E-1
2.109246768E0	1.209075153E-1	1.177117229E-1	2.194444835E-1
2.111458729E0	1.416801661E-1	1.203748807E-1	2.029328793E-1
2.112896652E0	1.587243974E-1	1.235706806E-1	1.800296903E-1
2.115736942E0	1.747033745E-1	1.219727769E-1	1.523328125E-1
2.117129806E0	1.874865443E-1	1.209075153E-1	1.214401498E-1
2.119808942E0	2.002697140E-1	1.209075153E-1	8.522115648E-2
2.121004575E0	2.125202566E-1	1.187769845E-1	4.740426689E-2
2.123867095E0	2.253034264E-1	1.203748807E-1	1.012001187E-2
2.125526152E0	2.359560728E-1	1.241033077E-1	-2.024002373E-2
2.127919634E0	2.498045117E-1	1.358212233E-1	-4.900216311E-2
2.129115152E0	2.647182047E-1	1.512675583E-1	-7.030745596E-2
2.131977557E0	2.780340314E-1	1.704423130E-1	-8.628641814E-2
2.133589806E0	2.913498282E-1	1.890844405E-1	-1.022653878E-1
2.136011826E0	3.009372056E-1	2.098570913E-1	-1.150485575E-1
2.137203268E0	3.099919558E-1	2.284992188E-1	-1.235706806E-1
2.140069480E0	3.211772442E-1	2.498045117E-1	-1.304948926E-1
2.141812537E0	3.302319944E-1	2.801645398E-1	-1.395496428E-1
2.144124480E0	3.323625028E-1	2.886866629E-1	-1.438107044E-1
2.145346729E0	3.339604139E-1	3.036003709E-1	-1.539307088E-1
2.148181903E0	3.355582952E-1	3.195793331E-1	-1.608549356E-1
2.149804037E0	3.360909224E-1	3.403519988E-1	-1.720402092E-1
2.152002268E0	3.366235793E-1	3.467435837E-1	-1.763012707E-1
2.153428499E0	3.360909224E-1	3.595267534E-1	-1.874865443E-1
2.156287057E0	3.360909224E-1	3.733751774E-1	-2.061286718E-1
2.157569422E0	3.350256681E-1	3.882888854E-1	-2.194444835E-1
2.160385326E0	3.360909224E-1	4.069310129E-1	-2.391518652E-1
2.161638075E0	3.371562064E-1	4.351605177E-1	-2.663161159E-1
2.164477749E0	3.392867148E-1	4.516721368E-1	-2.860234976E-1
2.166813518E0	3.371562064E-1	4.719121456E-1	-3.051982522E-1
2.168515249E0	3.318298757E-1	4.905542731E-1	-3.222424984E-1
2.169748345E0	3.254382908E-1	5.044026971E-1	-3.344930410E-1
2.172573364E0	3.174487948E-1	5.187838078E-1	-3.408846259E-1
2.174191652E0	3.067961633E-1	5.384911895E-1	-3.446130455E-1
2.176623057E0	3.009372056E-1	5.597964525E-1	-3.472762108E-1
2.177832575E0	2.876214087E-1	5.885586143E-1	-3.526025414E-1
2.180680864E0	2.727077007E-1	6.146575809E-1	-3.520699143E-1
2.182447345E0	2.561961114E-1	6.471481323E-1	-3.435477912E-1
2.184747095E0	2.343581766E-1	6.796387434E-1	-3.222424984E-1
2.185926768E0	2.162486911E-1	7.099987864E-1	-2.908172011E-1
2.188804134E0	1.970739216E-1	7.414240837E-1	-2.577939928E-1
2.190438268E0	1.810949594E-1	7.669904232E-1	-2.332929224E-1
2.192622922E0	1.661812514E-1	7.893609405E-1	-2.082591951E-1
2.194038614E0	1.560612470E-1	8.106662631E-1	-1.853560209E-1
2.196896903E0	1.518001854E-1	8.309062719E-1	-1.763012707E-1
2.198315883E0	1.512675583E-1	8.538094759E-1	-1.752360016E-1
2.200974518E0	1.512675583E-1	8.602010608E-1	-1.805623323E-1
2.202203614E0	1.544633508E-1	8.596684337E-1	-1.885518134E-1
2.205032172E0	1.539307088E-1	8.436894417E-1	-2.029328793E-1
2.206672883E0	1.512675583E-1	8.159925938E-1	-2.194444835E-1
2.209067980E0	1.416801661E-1	7.696535587E-1	-2.412824035E-1
2.210954960E0	1.326254308E-1	7.110640407E-1	-2.599245310E-1
2.213125749E0	1.257012039E-1	6.583334208E-1	-2.769687474E-1
2.214779729E0	1.182443574E-1	5.789712071E-1	-3.020024598E-1
2.217159557E0	1.155811921E-1	5.555354357E-1	-3.062635362E-1
2.218396152E0	1.187769845E-1	5.145227313E-1	-3.099919558E-1
2.221217441E0	1.230380461E-1	4.745753109E-1	-3.020024598E-1
2.223031845E0	1.347559541E-1	4.170510471E-1	-2.780340314E-1
2.225272672E0	1.411475390E-1	3.978762627E-1	-2.657834888E-1
2.226482652E0	1.507349163E-1	3.499393761E-1	-2.418150306E-1
2.229330441E0	1.635181010E-1	2.924150825E-1	-2.146507949E-1
2.231097306E0	1.757686287E-1	2.066612989E-1	-1.768338978E-1
2.233139229E0	1.832254827E-1	1.794970632E-1	-1.656486243E-1
2.235342460E0	1.949433982E-1	1.294296384E-1	-1.486043930E-1
2.237421557E0	2.237055302E-1	5.965480953E-2	-1.336906850E-1
2.238711960E0	2.434129268E-1	2.077265643E-2	-1.294296384E-1
2.241522210E0	2.668487430E-1	-1.597896591E-2	-1.326254308E-1
2.242754960E0	2.886866629E-1	-5.273059011E-2	-1.491370201E-1
2.245614633E0	3.099919558E-1	-9.161274135E-2	-1.677791476E-1
2.247235537E0	3.344930410E-1	-1.257012039E-1	-1.933455020E-1
2.249664864E0	3.557983339E-1	-1.565938741E-1	-2.210423797E-1
2.250969498E0	3.781688809E-1	-1.885518134E-1	-2.535329461E-1
2.253722556E0	3.978762627E-1	-2.205097377E-1	-2.849582434E-1
2.255361345E0	4.202468395E-1	-2.530003190E-1	-3.126551211E-1
2.257756556E0	4.431500137E-1	-2.860234976E-1	-3.419498801E-1
2.259088268E0	4.681837261E-1	-3.142530024E-1	-3.685815036E-1
2.261814864E0	4.884237647E-1	-3.483414650E-1	-3.920173049E-1
2.263540345E0	5.091964006E-1	-3.818973005E-1	-4.170510471E-1
2.265881749E0	5.310343504E-1	-4.159857631E-1	-4.367584288E-1
2.267114498E0	5.523396134E-1	-4.527373910E-1	-4.564658105E-1
2.269939479E0	5.720469952E-1	-4.889563918E-1	-4.676510990E-1
2.271562037E0	5.896238685E-1	-5.331648588E-1	-4.767058492E-1
2.273862960E0	5.992112756E-1	-5.715143681E-1	-4.820321798E-1
2.275292922E0	6.082659960E-1	-6.114618182E-1	-4.761732221E-1
2.278046787E0	6.119944453E-1	-6.471481323E-1	-4.676510990E-1
2.279447575E0	6.130596995E-1	-6.807039976E-1	-4.575310946E-1
2.282122364E0	6.114618182E-1	-7.126619220E-1	-4.410194755E-1
2.283335306E0	6.050702333E-1	-7.392935157E-1	-4.218447208E-1
2.286180826E0	5.928196907E-1	-7.653924823E-1	-4.010720551E-1
2.287799922E0	5.741775632E-1	-7.952198982E-1	-3.696467578E-1
2.290218133E0	5.656554103E-1	-8.042746782E-1	-3.568635881E-1
2.291445960E0	5.454154015E-1	-8.138620257E-1	-3.312972486E-1
2.294275672E0	5.219795704E-1	-8.159925938E-1	-3.105245829E-1
2.295918152E0	4.841626883E-1	-8.016114831E-1	-2.727077007E-1
2.298324518E0	4.719121456E-1	-7.888283134E-1	-2.615224123E-1
2.299522652E0	4.415521026E-1	-7.584682703E-1	-2.380866110E-1
2.302381672E0	4.170510471E-1	-7.185208797E-1	-2.199771106E-1
2.304102075E0	3.797667921E-1	-6.396912932E-1	-1.954760253E-1
2.306425249E0	3.510046303E-1	-5.757754445E-1	-1.794970632E-1
2.307630806E0	3.270362020E-1	-5.091964006E-1	-1.645833552E-1
2.310482825E0	2.972087860E-1	-4.415521026E-1	-1.523328125E-1
2.312092537E0	2.673813701E-1	-3.733751774E-1	-1.464738697E-1
2.314402498E0	2.380866110E-1	-3.083940744E-1	-1.416801661E-1
2.315726768E0	2.050634027E-1	-2.471413612E-1	-1.352885813E-1
2.318574518E0	1.725728363E-1	-1.816275865E-1	-1.267664731E-1
2.319869960E0	1.427454352E-1	-1.155811921E-1	-1.161138266E-1
2.322671018E0	1.102548689E-1	-4.633900523E-2	-1.017327532E-1
2.323912768E0	8.309062570E-2	2.343581803E-2	-8.096009493E-2
2.326763556E0	5.752427876E-2	9.054747969E-2	-6.178534031E-2
2.328391998E0	3.568635881E-2	1.576591432E-1	-3.728425503E-2
2.330800325E0	1.438106969E-2	2.215750068E-1	-1.118527725E-2
2.332006498E0	-5.326322280E-4	2.812298238E-1	1.225054078E-2
2.334858172E0	-1.438106969E-2	3.360909224E-1	3.355583176E-2
2.336487845E0	-2.450108156E-2	3.840278387E-1	5.592638254E-2
2.338892710E0	-3.195793182E-2	4.245078862E-1	6.870955974E-2
2.340103729E0	-3.568635881E-2	4.569984376E-1	8.096009493E-2
2.342950479E0	-4.207794741E-2	4.735100567E-1	8.681905270E-2
2.344724306E0	-5.379585549E-2	4.761732221E-1	8.681905270E-2
2.347006902E0	-5.858954415E-2	4.708468914E-1	8.362326026E-2
2.348201768E0	-6.338323653E-2	4.591289759E-1	7.669904083E-2
2.351064095E0	-7.403588295E-2	4.479437172E-1	7.243798673E-2
2.352689229E0	-8.309062570E-2	4.255731404E-1	6.285060197E-2
2.354970960E0	-8.948221803E-2	4.170510471E-1	5.645901710E-2
2.356286845E0	-1.033306494E-1	4.037352204E-1	5.273059011E-2
2.359156556E0	-1.150485575E-1	3.941478431E-1	4.740426689E-2
2.360556921E0	-1.336906850E-1	3.904194236E-1	4.527373984E-2
2.363219787E0	-1.528654546E-1	3.898867965E-1	5.060006306E-2
2.364406729E0	-1.752360016E-1	3.978762627E-1	5.965480953E-2
2.367276902E0	-2.024002522E-1	4.170510471E-1	6.977482140E-2
2.368907768E0	-2.364887148E-1	4.591289759E-1	9.960222989E-2
2.371327787E0	-2.487392575E-1	4.751079381E-1	1.065264493E-1
2.372571575E0	-2.801645398E-1	5.091964006E-1	1.187769845E-1
2.375384902E0	-3.083940744E-1	5.416869521E-1	1.336906850E-1
2.377020383E0	-3.669835925E-1	5.976133347E-1	1.512675583E-1
2.379420364E0	-4.090615511E-1	6.343649626E-1	1.619201899E-1
2.380613537E0	-4.564658105E-1	6.716492176E-1	1.667138934E-1
2.383477594E0	-4.996090233E-1	7.089334726E-1	1.778991669E-1
2.385196960E0	-5.416869521E-1	7.515440583E-1	1.874865443E-1
2.387545133E0	-5.826996565E-1	7.866978049E-1	1.970739216E-1
2.388746960E0	-6.215817928E-1	8.159925938E-1	2.082591951E-1
2.391602864E0	-6.593986750E-1	8.404936790E-1	2.231729031E-1
2.393228691E0	-6.950850487E-1	8.596684337E-1	2.418150306E-1
2.395430845E0	-7.243798375E-1	8.697884083E-1	2.593919039E-1
2.396892960E0	-7.478156686E-1	8.761799932E-1	2.806971967E-1
2.399708902E0	-7.584682703E-1	8.804410696E-1	3.057309091E-1
2.400987498E0	-7.627293468E-1	8.708537221E-1	3.275688291E-1
2.403807710E0	-7.595335841E-1	8.548747301E-1	3.573962152E-1
2.405058498E0	-7.472830415E-1	8.261125684E-1	3.818973005E-1
2.407899825E0	-7.281082273E-1	7.856325507E-1	4.101268053E-1
2.409523921E0	-7.036072016E-1	7.302387953E-1	4.351605177E-1
2.411936864E0	-6.684534550E-1	6.663229465E-1	4.623247683E-1
2.413172806E0	-6.301039457E-1	5.912217498E-1	4.948153496E-1
2.415994594E0	-5.853627920E-1	5.113269091E-1	5.198490620E-1
2.417638191E0	-5.422195792E-1	4.239752591E-1	5.395564437E-1
2.420044210E0	-4.825648069E-1	3.323625028E-1	5.491438508E-1
2.421242614E0	-4.287689328E-1	2.370213419E-1	5.507417321E-1
2.424101402E0	-3.728425503E-1	1.464738697E-1	5.560680628E-1
2.425821960E0	-2.881540358E-1	1.491370238E-2	5.566006899E-1
2.428167748E0	-2.641855776E-1	-2.609897964E-2	5.539374948E-1
2.430058691E0	-2.071939409E-1	-9.693906456E-2	5.496764779E-1
2.432224479E0	-1.555286050E-1	-1.603222936E-1	5.480785370E-1
2.433843614E0	-8.735168725E-2	-2.375539690E-1	5.438175201E-1
2.436032844E0	-6.711166352E-2	-2.588592768E-1	5.374259353E-1
2.437457421E0	-2.876213938E-2	-2.972087860E-1	5.283711553E-1
2.440315440E0	-5.326322280E-3	-3.291667104E-1	5.155879855E-1
2.441713229E0	1.065264456E-2	-3.712446690E-1	5.038700700E-1
2.444370133E0	8.522115648E-3	-3.845604658E-1	5.001416802E-1
2.445579806E0	-4.793690052E-3	-4.229099751E-1	5.075985193E-1
2.448427940E0	-4.207794741E-2	-4.767058492E-1	5.139901042E-1
2.450042306E0	-6.338323653E-2	-4.809668958E-1	5.065332651E-1
2.452464517E0	-7.989483327E-2	-4.713795185E-1	4.820321798E-1
2.453663037E0	-1.059938148E-1	-4.628573954E-1	4.532700181E-1
2.456521363E0	-1.251685768E-1	-4.516721368E-1	4.229099751E-1
2.458200998E0	-1.475391239E-1	-4.404868484E-1	3.861583769E-1
2.460556056E0	-1.794970632E-1	-4.303668439E-1	3.467435837E-1
2.462124575E0	-2.151834220E-1	-4.138552547E-1	3.014698327E-1
2.464612863E0	-2.540655732E-1	-3.946804702E-1	2.609897852E-1
2.466370037E0	-2.945456207E-1	-3.669835925E-1	2.263686955E-1
2.468667863E0	-3.382214606E-1	-3.355582952E-1	2.013349831E-1
2.469887844E0	-3.776362538E-1	-2.993393242E-1	1.747033745E-1
2.472724363E0	-4.229099751E-1	-2.631203234E-1	1.544633508E-1
2.474348229E0	-4.649879336E-1	-2.189118415E-1	1.347559541E-1
2.476536229E0	-5.129248500E-1	-1.741707325E-1	1.203748807E-1
2.477967075E0	-5.560680628E-1	-1.267664731E-1	1.070590764E-1
2.480813325E0	-6.045376062E-1	-7.989483327E-2	9.906959534E-2
2.482204229E0	-6.466155052E-1	-3.302319720E-2	9.747169912E-2
2.484867402E0	-6.886934638E-1	9.054748341E-3	9.800432622E-2
2.486103537E0	-7.265103459E-1	4.687163606E-2	1.038632840E-1
2.488924902E0	-7.643272281E-1	7.936219871E-2	1.118527651E-1
2.490574652E0	-8.016114831E-1	1.091896072E-1	1.225054115E-1
2.492980132E0	-8.372978568E-1	1.326254308E-1	1.347559541E-1
2.494189768E0	-8.687231541E-1	1.544633508E-1	1.454086006E-1
2.497037863E0	-8.969526887E-1	1.725728363E-1	1.592570394E-1
2.498656806E0	-9.241169095E-1	1.885518134E-1	1.683117896E-1
2.501070825E0	-9.459548593E-1	2.039981484E-1	1.800296903E-1
2.502341114E0	-9.651296139E-1	2.141181529E-1	1.874865443E-1
2.505127979E0	-9.827064872E-1	2.247707993E-1	1.922802329E-1
2.506968383E0	-9.976201653E-1	2.332929224E-1	2.034655064E-1
2.509193248E0	-1.003479123E0	2.354234457E-1	2.034655064E-1
2.510423421E0	-1.013599157E0	2.391518652E-1	2.071939409E-1
2.513250132E0	-1.013599157E0	2.391518652E-1	2.114549875E-1
2.514948229E0	-1.017327547E0	2.428802997E-1	2.093244642E-1
2.517082421E0	-1.013599157E0	2.407497615E-1	2.130528986E-1
2.518528652E0	-1.010403395E0	2.380866110E-1	2.130528986E-1
2.521356517E0	-1.010403395E0	2.348908186E-1	2.162486911E-1
2.522801267E0	-1.002946496E0	2.279665917E-1	2.231729031E-1
2.525398363E0	-9.992180467E-1	2.194444835E-1	2.242381722E-1
2.526615998E0	-9.917612076E-1	2.114549875E-1	2.290318608E-1
2.529455286E0	-9.848369956E-1	1.997370869E-1	2.306297570E-1
2.531105575E0	-9.779127836E-1	1.869539171E-1	2.338255495E-1
2.533490286E0	-9.720538259E-1	1.736381054E-1	2.370213419E-1
2.534716075E0	-9.651296139E-1	1.533980817E-1	2.380866110E-1
2.537546517E0	-9.587380290E-1	1.363538504E-1	2.412824035E-1
2.539229229E0	-9.518138170E-1	1.145159304E-1	2.434129268E-1
2.541594209E0	-9.459548593E-1	9.054747969E-2	2.444781959E-1
2.542796152E0	-9.400959015E-1	6.711166352E-2	2.460760921E-1
2.545650978E0	-9.379653335E-1	3.994741663E-2	2.482066154E-1
2.547370537E0	-9.337043166E-1	1.065264456E-2	2.482066154E-1
2.549726325E0	-9.337043166E-1	-1.864212751E-2	2.455434501E-1
2.550987460E0	-9.299758673E-1	-4.687163606E-2	2.428802997E-1
2.553782863E0	-9.278453588E-1	-7.456851006E-2	2.439455539E-1
2.555397652E0	-9.267801046E-1	-1.017327532E-1	2.418150306E-1
2.557690691E0	-9.273127317E-1	-1.262338310E-1	2.418150306E-1
2.559013844E0	-9.262474179E-1	-1.523328125E-1	2.407497615E-1
2.561870171E0	-9.257147908E-1	-1.736381054E-1	2.396845073E-1
2.563181537E0	-9.294432402E-1	-1.906823367E-1	2.359560728E-1
2.565966132E0	-9.299758673E-1	-2.098570913E-1	2.343581766E-1
2.567213344E0	-9.299758673E-1	-2.215750068E-1	2.338255495E-1
2.570056632E0	-9.283779860E-1	-2.316950262E-1	2.316950262E-1
2.571770575E0	-9.294432402E-1	-2.364887148E-1	2.279665917E-1
2.574091132E0	-9.294432402E-1	-2.375539690E-1	2.263686955E-1
2.575361037E0	-9.273127317E-1	-2.386192381E-1	2.242381722E-1
2.578147709E0	-9.299758673E-1	-2.514024079E-1	2.226402760E-1
2.579766383E0	-9.864348769E-1	-3.781688809E-1	2.226402760E-1
2.582180901E0	-1.028512836E0	-4.724447727E-1	2.226402760E-1
2.583374729E0	-1.156344533E0	-7.616640925E-1	2.066612989E-1
2.586237094E0	-1.339037418E0	-1.154746652E0	1.757686287E-1
2.587982191E0	-1.591505051E0	-1.674063087E0	1.459412277E-1
2.590292555E0	-1.639441967E0	-1.780056953E0	1.464738697E-1
2.591536114E0	-1.695368409E0	-1.948901296E0	1.576591432E-1
2.594349978E0	-1.728924155E0	-2.136920452E0	1.805623323E-1
2.595947114E0	-1.770469546E0	-2.439455509E0	2.263686955E-1
2.598158844E0	-1.756088495E0	-2.508165121E0	2.657834888E-1
2.599583883E0	-1.706553698E0	-2.413356543E0	2.940129936E-1
2.602440170E0	-1.635180950E0	-2.215749979E0	3.089267015E-1
2.603944806E0	-1.565406084E0	-2.011219263E0	2.977414131E-1
2.606523863E0	-1.522795558E0	-1.863147497E0	2.727077007E-1
2.607770767E0	-1.505751252E0	-1.781122208E0	2.242381722E-1
2.610580786E0	-1.512142897E0	-1.772067428E0	1.699096859E-1
2.612266383E0	-1.538774490E0	-1.828526497E0	1.182443574E-1
2.614632017E0	-1.580852509E0	-1.938781261E0	6.924218684E-2
2.615854806E0	-1.631452560E0	-2.091114044E0	3.408846259E-2
2.618689401E0	-1.675660968E0	-2.255697489E0	1.065264456E-3
2.620298690E0	-1.711879969E0	-2.403769255E0	-2.450108156E-2
2.622722632E0	-1.732652664E0	-2.520948410E0	-4.580637068E-2
2.623927229E0	-1.740642071E0	-2.599777937E0	-7.084008306E-2
2.626779940E0	-1.742240071E0	-2.658900023E0	-9.001484513E-2
2.628596229E0	-1.742772698E0	-2.718554974E0	-1.070590764E-1
2.630846170E0	-1.742240071E0	-2.780340195E0	-1.304948926E-1
2.632069537E0	-1.740109444E0	-2.842658281E0	-1.549959779E-1
2.634903478E0	-1.730522156E0	-2.900715113E0	-1.810949594E-1
2.636555190E0	-1.710282087E0	-2.941195250E0	-2.045307755E-1
2.638743806E0	-1.682585239E0	-2.965696335E0	-2.231729031E-1
2.640157075E0	-1.644235730E0	-2.964098454E0	-2.332929224E-1
2.643009286E0	-1.618136764E0	-2.968892097E0	-2.247707993E-1
2.644295190E0	-1.576058745E0	-2.937466621E0	-2.173139453E-1
2.647106709E0	-1.512675524E0	-2.864496231E0	-1.938781291E-1
2.648335844E0	-1.445031285E0	-2.780872822E0	-1.858886480E-1
2.651198940E0	-1.399757504E0	-2.741458178E0	-2.061286718E-1
2.652821344E0	-1.314003706E0	-2.651975870E0	-1.885518134E-1
2.655234132E0	-1.292165756E0	-2.625876904E0	-2.013349831E-1
2.656452883E0	-1.242098331E0	-2.558765173E0	-2.050634027E-1
2.659291401E0	-1.187769890E0	-2.466619730E0	-2.093244642E-1
2.660972344E0	-1.119592905E0	-2.352636576E0	-2.407497615E-1
2.663340363E0	-1.104679227E0	-2.325472355E0	-2.476739883E-1
2.664539575E0	-1.066862345E0	-2.267415285E0	-2.556634545E-1
2.667397170E0	-1.013599157E0	-2.200836420E0	-2.982740402E-1
2.669132575E0	-9.885654449E-1	-2.181128979E0	-3.201119602E-1
2.671461593E0	-9.587380290E-1	-2.153432131E0	-3.360909224E-1
2.672756383E0	-9.273127317E-1	-2.122006893E0	-3.850930929E-1
2.675518170E0	-9.022790194E-1	-2.102299452E0	-4.420847595E-1
2.677119344E0	-8.692557812E-1	-2.058090925E0	-4.814995229E-1
2.679317767E0	-8.341020942E-1	-2.008023500E0	-5.384911895E-1
2.680738344E0	-8.010788560E-1	-1.972869754E0	-6.013417840E-1
2.683606593E0	-7.637946010E-1	-1.911084414E0	-6.380934119E-1
2.685084152E0	-7.217166424E-1	-1.823200107E0	-6.849650741E-1
2.687681209E0	-6.737797856E-1	-1.697498918E0	-7.110640407E-1
2.688866344E0	-6.391586661E-1	-1.577124000E0	-7.307714224E-1
2.691738324E0	-6.018744111E-1	-1.463140726E0	-7.243798375E-1
2.693345344E0	-5.763080716E-1	-1.354483724E0	-7.041398287E-1
2.695772016E0	-5.496764779E-1	-1.235174179E0	-6.593986750E-1
2.696962652E0	-5.459480286E-1	-1.145159245E0	-6.098638773E-1
2.699828016E0	-5.502091050E-1	-1.072188616E0	-5.091964006E-1
2.701501729E0	-5.661880374E-1	-1.040230751E0	-3.360909224E-1
2.703861862E0	-5.427522659E-1	-9.693906307E-1	-7.350324839E-2
2.705058075E0	-5.017395616E-1	-8.884305358E-1	1.906823367E-1
2.707918747E0	-4.442152679E-1	-7.787083387E-1	3.680488765E-1
2.709652614E0	-3.371562064E-1	-6.258428693E-1	4.841626883E-1
2.711973593E0	-3.004045784E-1	-5.672533512E-1	4.932174385E-1
2.713171383E0	-2.226402760E-1	-4.830974340E-1	5.028048158E-1
2.716029862E0	-1.336906850E-1	-3.994741738E-1	5.214469433E-1
2.717632306E0	7.989482954E-3	-2.865561247E-1	5.299690962E-1
2.719832152E0	5.486112088E-2	-2.567287385E-1	5.161206126E-1
2.721253998E0	1.326254308E-1	-2.093244642E-1	4.767058492E-1
2.724118824E0	1.986718178E-1	-1.842907518E-1	4.298342168E-1
2.725418229E0	2.567287385E-1	-1.837581247E-1	4.127899706E-1
2.728238632E0	3.014698327E-1	-1.944107562E-1	4.085289240E-1
2.729468460E0	3.435477912E-1	-2.050634027E-1	4.122573435E-1
2.732330324E0	3.818973005E-1	-2.087918371E-1	4.090615511E-1
2.733982421E0	4.261057973E-1	-2.348908186E-1	4.229099751E-1
2.736380555E0	4.569984376E-1	-2.524676621E-1	4.383563101E-1
2.737570229E0	4.830974340E-1	-2.636529505E-1	4.431500137E-1
2.740437978E0	5.278385282E-1	-2.540655732E-1	4.165183902E-1
2.742045767E0	5.768406987E-1	-2.274339646E-1	3.440804183E-1
2.744470670E0	6.301039457E-1	-1.842907518E-1	2.391518652E-1
2.745698960E0	6.775081754E-1	-1.688444167E-1	1.246359423E-1
2.748527362E0	7.131945491E-1	-1.629854590E-1	3.568635881E-2
2.750223344E0	7.488809228E-1	-1.619201899E-1	-3.621899337E-2
2.752590670E0	7.845672965E-1	-1.278317273E-1	-9.374327213E-2
2.753775844E0	8.080030680E-1	-1.123853996E-1	-1.427454352E-1
2.756647055E0	8.229168057E-1	-1.139832959E-1	-1.651159972E-1
2.758270344E0	8.415589333E-1	-9.054747969E-2	-2.071939409E-1
2.760475767E0	8.516789079E-1	-7.563377917E-2	-2.471413612E-1
2.761906152E0	8.559399843E-1	-8.948221803E-2	-2.732403278E-1
2.764750324E0	8.628641963E-1	-8.042746782E-2	-3.318298757E-1
2.766137460E0	8.591358066E-1	-1.033306494E-1	-3.637878001E-1
2.768809208E0	8.447546959E-1	-1.432780623E-1	-3.499393761E-1
2.770017998E0	8.367652297E-1	-1.470064968E-1	-3.632551730E-1
2.772866247E0	8.154599667E-1	-1.416801661E-1	-3.488741219E-1
2.774468190E0	7.898935676E-1	-1.416801661E-1	-3.323625028E-1
2.776902131E0	7.744472623E-1	-1.246359423E-1	-3.760383427E-1
2.778895478E0	7.462177277E-1	-1.272991002E-1	-3.627225459E-1
2.780958093E0	7.142598033E-1	-1.225054115E-1	-3.526025414E-1
2.782585383E0	6.833671331E-1	-1.283643693E-1	-3.222424984E-1
2.785005170E0	6.508765817E-1	-1.486043930E-1	-2.391518652E-1
2.786197190E0	6.199839115E-1	-1.619201899E-1	-1.411475390E-1
2.789061554E0	5.917543769E-1	-1.619201899E-1	-3.515372798E-2
2.790789190E0	5.427522659E-1	-1.549959779E-1	1.379517466E-1
2.793136401E0	5.283711553E-1	-1.560612470E-1	1.842907518E-1
2.794336344E0	4.958806038E-1	-1.411475390E-1	2.561961114E-1
2.797192708E0	4.681837261E-1	-1.182443574E-1	2.801645398E-1
2.798802844E0	4.303668439E-1	-4.687163606E-2	2.364887148E-1
2.801003767E0	4.229099751E-1	-2.503371425E-2	2.194444835E-1
2.802418767E0	3.994741738E-1	-3.728425596E-3	2.284992188E-1
2.805281824E0	3.771036267E-1	2.663161140E-3	2.439455539E-1
2.806566960E0	3.579288721E-1	9.054748341E-3	2.354234457E-1
2.809383439E0	3.403519988E-1	3.249056637E-2	1.741707325E-1
2.810604690E0	3.281014562E-1	5.752427876E-2	1.012001261E-1
2.813475862E0	3.254382908E-1	8.096009493E-2	2.769687586E-2
2.815099921E0	3.344930410E-1	1.267664731E-1	-4.207794741E-2
2.817512170E0	3.494067490E-1	1.949433982E-1	-1.049285457E-1
2.818708729E0	3.707120419E-1	2.700445354E-1	-1.518001854E-1
2.821569516E0	3.920173049E-1	3.217098713E-1	-1.581917703E-1
2.823186037E0	4.149205089E-1	3.456783295E-1	-1.288969964E-1
2.825603208E0	4.330300093E-1	3.504720032E-1	-5.379585549E-2
2.826793613E0	4.404868484E-1	3.472762108E-1	4.420847446E-2
2.829659708E0	4.468784332E-1	3.488741219E-1	1.379517466E-1
2.831442267E0	4.607268870E-1	3.691141307E-1	1.965412945E-1
2.833714477E0	4.697816372E-1	4.026699662E-1	1.832254827E-1
2.835025229E0	4.873584807E-1	4.239752591E-1	2.002697140E-1
2.837770823E0	5.081311464E-1	4.197141826E-1	2.013349831E-1
2.839373806E0	5.299690962E-1	4.117247164E-1	1.778991669E-1
2.841563613E0	5.645901561E-1	3.909520507E-1	1.475391239E-1
2.842988075E0	5.896238685E-1	3.456783295E-1	1.438107044E-1
2.845859823E0	6.285060048E-1	2.998719513E-1	1.549959779E-1
2.847169690E0	6.609966159E-1	2.657834888E-1	1.592570394E-1
2.849988093E0	6.950850487E-1	2.348908186E-1	1.683117896E-1
2.851288883E0	7.211840153E-1	2.077265680E-1	1.672465205E-1
2.854080054E0	7.520766854E-1	1.858886480E-1	1.539307088E-1
2.855698383E0	7.930893898E-1	1.459412277E-1	1.320927888E-1
2.858130170E0	8.069378138E-1	1.310275346E-1	1.278317273E-1
2.859325652E0	8.229168057E-1	1.203748807E-1	6.391586363E-2
2.862187785E0	8.372978568E-1	1.155811921E-1	1.171790902E-2
2.863791498E0	8.628641963E-1	1.209075153E-1	-3.249056637E-2
2.866221169E0	8.602010608E-1	1.272991002E-1	-5.805691332E-2
2.867403960E0	8.745821118E-1	1.885518134E-1	-3.222424984E-1
2.870278169E0	8.799084425E-1	2.599245310E-1	-6.354302764E-1
2.871982152E0	8.889631629E-1	3.707120419E-1	-1.140365601E0
2.874344131E0	8.974853158E-1	4.511395097E-1	-1.432780743E0
2.875534806E0	9.235842824E-1	5.512743592E-1	-1.657018900E0
2.878400246E0	9.459548593E-1	6.428871155E-1	-1.790176868E0
2.880018306E0	9.566074610E-1	7.366303802E-1	-1.803492665E0
2.882212421E0	9.582054019E-1	8.287757635E-1	-1.723597884E0
2.883634536E0	9.480853677E-1	8.948221207E-1	-1.556351423E0
2.886506054E0	9.230516553E-1	9.358348250E-1	-1.338504791E0
2.887772998E0	8.878979087E-1	9.709885716E-1	-1.118527651E0
2.890598592E0	8.458199501E-1	1.013066530E0	-9.230516553E-1
2.892266844E0	8.074704409E-1	1.066329718E0	-7.675230503E-1
2.894691054E0	7.728493810E-1	1.120658159E0	-6.498113275E-1
2.896306729E0	7.382282615E-1	1.182443500E0	-5.635249019E-1
2.898727016E0	7.014766335E-1	1.231978297E0	-4.969458580E-1
2.899913306E0	6.673882008E-1	1.271925807E0	-4.490089715E-1
2.902784054E0	6.279733777E-1	1.300155282E0	-3.989415467E-1
2.904400267E0	5.906891227E-1	1.323591113E0	-3.398193717E-1
2.906832208E0	5.438175201E-1	1.337439537E0	-2.679139972E-1
2.908032306E0	5.012069345E-1	1.349157453E0	-1.944107562E-1
2.910888400E0	4.596616030E-1	1.353951097E0	-1.246359423E-1
2.912655536E0	4.154531360E-1	1.347559571E0	-5.273059011E-2
2.914952785E0	3.717772961E-1	1.336906910E0	2.077265643E-2
2.916222460E0	3.291667104E-1	1.320927978E0	9.427590668E-2
2.919009554E0	2.865561247E-1	1.301220536E0	1.773665249E-1
2.920616921E0	2.348908186E-1	1.260740519E0	2.892192900E-1
2.922827652E0	2.119876295E-1	1.251153111E0	3.249056637E-1
2.924240960E0	1.736381054E-1	1.228249907E0	3.952131271E-1
2.927098246E0	1.352885813E-1	1.205346704E0	4.607268870E-1
2.928440075E0	9.747169912E-2	1.181910872E0	5.155879855E-1
2.931137554E0	6.444849819E-2	1.156877160E0	5.688512325E-1
2.932334306E0	3.089267015E-2	1.127049804E0	6.066681147E-1
2.935194246E0	2.130528912E-3	1.084971905E0	6.375607848E-1
2.936810421E0	-3.195793182E-2	1.002946496E0	6.753776670E-1
2.939229592E0	-3.834952042E-2	9.821738005E-1	6.769755483E-1
2.940460959E0	-4.207794741E-2	9.523464441E-1	6.673882008E-1
2.943286400E0	-4.154531285E-2	9.315737486E-1	6.444849968E-1
2.944903421E0	-4.420847446E-2	9.033442736E-1	6.253102422E-1
2.947319708E0	-4.367584363E-2	8.831042051E-1	6.237123609E-1
2.948527190E0	-4.314320907E-2	8.735168576E-1	6.253102422E-1
2.951376631E0	-4.633900523E-2	8.516789079E-1	6.396912932E-1
2.953143267E0	-5.006742850E-2	8.458199501E-1	6.524744630E-1
2.955432246E0	-4.793690145E-2	8.426241875E-1	6.695187092E-1
2.956621690E0	-4.900216311E-2	8.426241875E-1	6.913566589E-1
2.959488592E0	-4.687163606E-2	8.479505181E-1	7.142598033E-1
2.961117613E0	-4.154531285E-2	8.596684337E-1	7.414240837E-1
2.963313113E0	-3.941478580E-2	8.703210354E-1	7.685883045E-1
2.964729267E0	-3.249056637E-2	8.820389509E-1	8.037420511E-1
2.967577400E0	-2.769687586E-2	9.001484513E-1	8.325041533E-1
2.968888459E0	-2.183792181E-2	9.203884602E-1	8.655273914E-1
2.971672592E0	-1.491370238E-2	9.475527406E-1	8.958874345E-1
2.973472613E0	-4.793690052E-3	9.773801565E-1	9.246495366E-1
2.975764169E0	4.261057824E-3	1.012533903E0	9.518138170E-1
2.977450652E0	1.384843793E-2	1.053013921E0	9.789780378E-1
2.979814438E0	2.982740477E-2	1.093493938E0	1.008805394E0
2.981021152E0	4.048004746E-2	1.141430855E0	1.043426514E0
2.983870169E0	5.539375171E-2	1.193096161E0	1.076449752E0
2.985497690E0	7.190535218E-2	1.254348874E0	1.107342362E0
2.987902900E0	9.001484513E-2	1.319862604E0	1.135571957E0
2.989103190E0	1.107875034E-1	1.388572216E0	1.163801432E0
2.991958861E0	1.315601617E-1	1.457814455E0	1.188302517E0
2.993708613E0	1.608549356E-1	1.570199847E0	1.228249907E0
2.996024438E0	1.715075821E-1	1.612810373E0	1.234641552E0
2.997279306E0	1.944107562E-1	1.696433663E0	1.268197298E0
3.000080131E0	2.157160491E-1	1.782187462E0	1.296426892E0
3.001730459E0	2.439455539E-1	1.925465465E0	1.349690080E0
3.003930383E0	2.519350350E-1	1.970206618E0	1.366201639E0
3.005353729E0	2.689792812E-1	2.060754061E0	1.402953267E0
3.008183015E0	2.806971967E-1	2.151301622E0	1.430650115E0
3.009539190E0	2.908172011E-1	2.235457420E0	1.463140726E0
3.012210284E0	2.972087860E-1	2.311091185E0	1.493500710E0
3.013407959E0	3.041329980E-1	2.376605034E0	1.521197677E0
3.016265592E0	3.099919558E-1	2.445847273E0	1.543568254E0
3.017974536E0	3.121224940E-1	2.542786360E0	1.565406084E0
3.020299515E0	3.137203753E-1	2.574211597E0	1.567536592E0
3.021555498E0	3.174487948E-1	2.635996819E0	1.568069220E0
3.024355515E0	3.131877482E-1	2.716424465E0	1.563808203E0
3.026017344E0	3.110572100E-1	2.759034872E0	1.550492406E0
3.028402977E0	3.073287904E-1	2.794721365E0	1.530784965E0
3.029604383E0	2.998719513E-1	2.820287704E0	1.508414507E0
3.032459323E0	2.945456207E-1	2.836799145E0	1.474326015E0
3.034191806E0	2.908172011E-1	2.843190908E0	1.437574387E0
3.036535630E0	2.849582434E-1	2.839462519E0	1.398159623E0
3.037841113E0	2.790992856E-1	2.822418213E0	1.355548978E0
3.040591938E0	2.721750736E-1	2.794721365E0	1.309742689E0
3.042288190E0	2.673813701E-1	2.755839109E0	1.261805773E0
3.044557152E0	2.593919039E-1	2.702043295E0	1.212270975E0
3.045923767E0	2.540655732E-1	2.631735802E0	1.160605669E0
3.048681938E0	2.503371537E-1	2.549710512E0	1.102548718E0
3.049973690E0	2.418150306E-1	2.453304052E0	1.048220277E0
3.052778746E0	2.343581766E-1	2.343581915E0	9.880327582E-1
3.054036690E0	2.263686955E-1	2.222674370E0	9.331716895E-1
3.056870053E0	2.178465873E-1	2.091646671E0	8.788431883E-1
3.058546459E0	2.082591951E-1	1.955292940E0	8.218515515E-1
3.060904630E0	1.965412945E-1	1.809884310E0	7.643272281E-1
3.062115882E0	1.837581247E-1	1.656486273E0	7.158577442E-1
3.064961053E0	1.683117896E-1	1.496696591E0	6.668555737E-1
3.066592652E0	1.528654546E-1	1.335841656E0	6.178534031E-1
3.068993515E0	1.347559541E-1	1.178715110E0	5.731122494E-1
3.070203690E0	1.187769845E-1	1.022121191E0	5.315669775E-1
3.073050053E0	1.017327532E-1	8.713863492E-1	4.974785149E-1
3.074844306E0	7.723167539E-2	6.551376581E-1	4.420847595E-1
3.077104976E0	6.551376730E-2	5.858954787E-1	4.245078862E-1
3.078331729E0	4.154531285E-2	4.511395097E-1	3.877562582E-1
3.081162284E0	1.597896591E-2	3.233077526E-1	3.510046303E-1
3.082795036E0	-2.237055451E-2	1.443433315E-1	3.004045784E-1
3.085003844E0	-3.462109342E-2	8.841694891E-2	2.892192900E-1
3.086380844E0	-5.965480953E-2	-1.171790902E-2	2.615224123E-1
3.089252246E0	-8.096009493E-2	-9.587380290E-2	2.508697808E-1
3.090570036E0	-1.113201380E-1	-2.045307755E-1	2.492718846E-1
3.093294130E0	-1.198422536E-1	-2.375539690E-1	2.444781959E-1
3.094489806E0	-1.406149119E-1	-2.854908705E-1	2.242381722E-1
3.097350669E0	-1.699096859E-1	-3.281014562E-1	1.874865443E-1
3.099009459E0	-1.949433982E-1	-3.419498801E-1	1.629854590E-1
3.101401246E0	-2.173139453E-1	-3.499393761E-1	1.336906850E-1
3.102659536E0	-2.412824035E-1	-3.478088379E-1	1.075917110E-1
3.105458476E0	-2.647182047E-1	-3.403519988E-1	8.096009493E-2
3.107065806E0	-2.854908705E-1	-3.275688291E-1	5.858954415E-2
3.109492784E0	-2.982740402E-1	-3.110572100E-1	3.675162420E-2
3.110721921E0	-3.083940744E-1	-2.918824553E-1	1.917476021E-2
3.113549938E0	-3.089267015E-1	-2.673813701E-1	4.793690052E-3
3.115265036E0	-3.046656251E-1	-2.439455539E-1	-1.065264456E-2
3.117614592E0	-2.972087860E-1	-2.183792144E-1	-2.450108156E-2
3.118827652E0	-2.833603323E-1	-1.922802329E-1	-3.781688958E-2
3.121671130E0	-2.684466541E-1	-1.651159972E-1	-5.379585549E-2
3.123318421E0	-2.487392575E-1	-1.368864775E-1	-6.977482140E-2
3.125490306E0	-2.300971150E-1	-1.091896072E-1	-9.108011425E-2
3.126939575E0	-2.098570913E-1	-8.309062570E-2	-1.070590764E-1
3.129776092E0	-1.917476058E-1	-6.072007492E-2	-1.251685768E-1
3.131126690E0	-1.736381054E-1	-3.675162420E-2	-1.470064968E-1
3.133871745E0	-1.518001854E-1	-1.438106969E-2	-1.704423130E-1
3.135153998E0	-1.315601617E-1	6.391586736E-3	-1.944107562E-1
3.137963861E0	-1.139832959E-1	2.876213938E-2	-2.210423797E-1
3.139772267E0	-9.214537591E-2	4.580637068E-2	-2.466087192E-1
3.141999476E0	-7.403588295E-2	6.551376730E-2	-2.716424465E-1
3.143264575E0	-5.273059011E-2	9.161274135E-2	-2.961435318E-1
3.146057053E0	-3.355583176E-2	1.225054115E-1	-3.190467060E-1
3.147823075E0	2.130528912E-3	1.640507281E-1	-3.605920076E-1
3.150104976E0	1.118527725E-2	1.763012707E-1	-3.744404614E-1
3.151376229E0	3.249056637E-2	2.061286718E-1	-4.000068009E-1
3.154162361E0	5.699164793E-2	2.247707993E-1	-4.223773479E-1
3.155983998E0	9.001484513E-2	2.471413612E-1	-4.516721368E-1
3.158228899E0	1.017327532E-1	2.530003190E-1	-4.617921412E-1
3.159455690E0	1.272991002E-1	2.593919039E-1	-4.793690145E-1
3.162286745E0	1.486043930E-1	2.636529505E-1	-4.910869002E-1
3.163914536E0	1.896170676E-1	2.609897852E-1	-5.049353242E-1
3.166111344E0	2.151834220E-1	2.535329461E-1	-5.145227313E-1
3.167633229E0	2.412824035E-1	2.444781959E-1	-5.214469433E-1
3.170378861E0	2.663161159E-1	2.348908186E-1	-5.241101384E-1
3.171871421E0	2.966761589E-1	2.183792144E-1	-5.273059011E-1
3.174460784E0	3.206445873E-1	2.002697140E-1	-5.267732739E-1
3.175677536E0	3.510046303E-1	1.810949594E-1	-5.262406468E-1
3.178517861E0	3.765709996E-1	1.597896665E-1	-5.241101384E-1
3.180166344E0	4.042678475E-1	1.368864775E-1	-5.219795704E-1
3.182553438E0	4.314320982E-1	1.091896072E-1	-5.145227313E-1
3.183786075E0	4.548679292E-1	8.202536404E-2	-5.118595958E-1
3.186610437E0	4.820321798E-1	5.805691332E-2	-5.060006380E-1
3.188263113E0	5.065332651E-1	3.036003746E-2	-5.017395616E-1
3.190643168E0	5.289037824E-1	3.728425596E-3	-4.953479767E-1
3.191875652E0	5.534048676E-1	-2.609897964E-2	-4.932174385E-1
3.194699899E0	5.747101903E-1	-5.858954415E-2	-4.958806038E-1
3.196495998E0	5.960154533E-1	-9.374327213E-2	-4.942827225E-1
3.198753899E0	6.103965044E-1	-1.336906850E-1	-4.990763962E-1
3.199993305E0	6.205165386E-1	-1.810949594E-1	-5.044026971E-1
3.202810322E0	6.237123609E-1	-2.386192381E-1	-5.235774517E-1
3.204476959E0	6.226470470E-1	-3.009372056E-1	-5.454154015E-1
3.206661152E0	6.173207760E-1	-3.728425503E-1	-5.747101903E-1
3.208081690E0	6.034722924E-1	-4.516721368E-1	-6.087986231E-1
3.210899284E0	5.869607329E-1	-5.411543250E-1	-6.498113275E-1
3.212231036E0	5.645901561E-1	-6.338323355E-1	-6.892260909E-1
3.214997899E0	5.427522659E-1	-7.281082273E-1	-7.297061682E-1
3.216273690E0	5.150553584E-1	-8.239820600E-1	-7.648598552E-1
3.219088976E0	4.910869002E-1	-9.155948162E-1	-7.984157205E-1
3.220787459E0	4.532700181E-1	-1.039165497E0	-8.468852639E-1
3.223138476E0	4.415521026E-1	-1.077515006E0	-8.596684337E-1
3.224626229E0	4.159857631E-1	-1.146757245E0	-8.831042051E-1
3.227194437E0	3.973436356E-1	-1.212803602E0	-9.054747820E-1
3.228855305E0	3.760383427E-1	-1.285241604E0	-9.177253246E-1
3.231226168E0	3.733751774E-1	-1.303883672E0	-9.150621891E-1
3.232507575E0	3.749730885E-1	-1.322525859E0	-9.001484513E-1
3.235281899E0	3.893541694E-1	-1.327852130E0	-8.724516034E-1
3.237054382E0	4.266384244E-1	-1.310275316E0	-8.154599667E-1
3.239346707E0	4.644553065E-1	-1.278317332E0	-7.723167539E-1
3.240674498E0	5.091964006E-1	-1.238369942E0	-7.185208797E-1
3.243402822E0	5.571333170E-1	-1.189367771E0	-6.663229465E-1
3.245174729E0	6.072007418E-1	-1.130245566E0	-6.141249537E-1
3.247337382E0	6.636597514E-1	-1.063666582E0	-5.640575290E-1
3.248678190E0	7.169229984E-1	-9.901633263E-1	-5.102616549E-1
3.251505206E0	7.760451436E-1	-9.113337398E-1	-4.655205607E-1
3.253149959E0	8.325041533E-1	-8.319715261E-1	-4.202468395E-1
3.255610476E0	8.873652816E-1	-7.515440583E-1	-3.834952116E-1
3.256984229E0	9.448895454E-1	-6.748450398E-1	-3.579288721E-1
3.259666437E0	9.938917160E-1	-5.976133347E-1	-3.419498801E-1
3.262000822E0	1.042893887E0	-5.294364095E-1	-3.318298757E-1
3.263700745E0	1.088167667E0	-4.649879336E-1	-3.323625028E-1
3.265114767E0	1.127582431E0	-4.042678475E-1	-3.392867148E-1
3.267756129E0	1.166997194E0	-3.563309610E-1	-3.520699143E-1
3.269628190E0	1.199487805E0	-3.126551211E-1	-3.701793849E-1
3.271802822E0	1.233576298E0	-2.769687474E-1	-3.952131271E-1
3.273098113E0	1.260207891E0	-2.476739883E-1	-4.202468395E-1
3.275857899E0	1.282045722E0	-2.253034264E-1	-4.516721368E-1
3.277778228E0	1.308677435E0	-2.093244642E-1	-5.060006380E-1
3.279930514E0	1.314536333E0	-2.071939409E-1	-5.225121975E-1
3.281276113E0	1.325721622E0	-2.066612989E-1	-5.592638254E-1
3.283985668E0	1.336906910E0	-2.066612989E-1	-5.901564956E-1
3.285642344E0	1.343831062E0	-2.157160491E-1	-6.306365728E-1
3.287920844E0	1.345961690E0	-2.210423797E-1	-6.412891746E-1
3.289345152E0	1.348092198E0	-2.316950262E-1	-6.572681665E-1
3.292073168E0	1.349157453E0	-2.402171344E-1	-6.668555737E-1
3.293378882E0	1.355548978E0	-2.455434501E-1	-6.625944972E-1
3.296174360E0	1.362473249E0	-2.482066154E-1	-6.402239203E-1
3.297434882E0	1.376321673E0	-2.498045117E-1	-6.018744111E-1
3.300265129E0	1.394431114E0	-2.471413612E-1	-5.544701219E-1
3.301932844E0	1.448759675E0	-2.418150306E-1	-4.394215941E-1
3.304300168E0	1.485511303E0	-2.418150306E-1	-3.568635881E-1
3.305537844E0	1.522795558E0	-2.498045117E-1	-2.950782478E-1
3.308356591E0	1.548361897E0	-2.652508616E-1	-2.439455539E-1
3.309982575E0	1.566471338E0	-2.876214087E-1	-2.039981484E-1
3.312389668E0	1.570732474E0	-3.142530024E-1	-1.763012707E-1
3.313587459E0	1.567536592E0	-3.392867148E-1	-1.597896665E-1
3.316446091E0	1.563275576E0	-3.653857112E-1	-1.523328125E-1
3.318227421E0	1.550492406E0	-3.904194236E-1	-1.549959779E-1
3.320500091E0	1.533980846E0	-4.111920893E-1	-1.592570394E-1
3.321756536E0	1.516936541E0	-4.298342168E-1	-1.709749401E-1
3.324556283E0	1.495098710E0	-4.410194755E-1	-1.757686287E-1
3.326167190E0	1.475923896E0	-4.479437172E-1	-1.768338978E-1
3.328354805E0	1.456749201E0	-4.474110603E-1	-1.651159972E-1
3.329782690E0	1.442900658E0	-4.447479248E-1	-1.411475390E-1
3.332645629E0	1.438639641E0	-4.271710515E-1	-7.882957160E-2
3.334109152E0	1.426389098E0	-4.218447208E-1	-4.793690052E-3
3.336760129E0	1.407214403E0	-4.245078862E-1	7.084008306E-2
3.337968267E0	1.391767979E0	-4.277036786E-1	1.395496428E-1
3.340817091E0	1.375256419E0	-4.404868484E-1	1.997370869E-1
3.342463228E0	1.359810114E0	-4.633900523E-1	2.476739883E-1
3.344867898E0	1.349690080E0	-4.862932265E-1	2.641855776E-1
3.346101536E0	1.344363689E0	-5.065332651E-1	2.673813701E-1
3.348925052E0	1.341700554E0	-5.283711553E-1	2.535329461E-1
3.350558075E0	1.339037418E0	-5.464806557E-1	2.221076339E-1
3.352958014E0	1.338504791E0	-5.656554103E-1	1.853560209E-1
3.354260882E0	1.337972164E0	-5.858954787E-1	1.352885813E-1
3.357014706E0	1.331047893E0	-6.034722924E-1	9.054747969E-2
3.358740613E0	1.325721622E0	-6.348975897E-1	2.663161233E-2
3.361079629E0	1.323058486E0	-6.423544884E-1	5.858954508E-3
3.362279728E0	1.314536333E0	-6.599313021E-1	-2.450108156E-2
3.365135821E0	1.308677435E0	-6.689860821E-1	-3.408846259E-2
3.366761344E0	1.288969994E0	-6.897587180E-1	-2.982740477E-2
3.368963228E0	1.280980468E0	-6.966829300E-1	-2.130528912E-2
3.370408036E0	1.257544637E0	-7.169229984E-1	7.989482954E-3
3.373238898E0	1.235706806E0	-7.281082273E-1	4.420847446E-2
3.374545267E0	1.205346704E0	-7.275756001E-1	1.075917110E-1
3.377364360E0	1.187237263E0	-7.233145833E-1	1.443433315E-1
3.378587267E0	1.173388839E0	-7.131945491E-1	1.688444167E-1
3.381456014E0	1.161138296E0	-6.950850487E-1	1.805623323E-1
3.383058651E0	1.159007788E0	-6.689860821E-1	1.885518134E-1
3.385491283E0	1.160605669E0	-6.423544884E-1	1.890844405E-1
3.386717844E0	1.158475041E0	-6.173207760E-1	1.890844405E-1
3.389548514E0	1.156344533E0	-5.933523178E-1	1.874865443E-1
3.391183459E0	1.149953008E0	-5.699164867E-1	1.810949594E-1
3.393596783E0	1.146757245E0	-5.459480286E-1	1.720402092E-1
3.394806651E0	1.140365601E0	-5.273059011E-1	1.661812514E-1
3.397653552E0	1.131310821E0	-5.081311464E-1	1.576591432E-1
3.399372267E0	1.117462397E0	-4.884237647E-1	1.427454352E-1
3.401719244E0	1.105744481E0	-4.756405652E-1	1.310275346E-1
3.402961036E0	1.086037159E0	-4.580637217E-1	1.193096191E-1
3.405776360E0	1.073253989E0	-4.452805519E-1	1.070590764E-1
3.407392921E0	1.054611802E0	-4.314320982E-1	9.480853379E-2
3.409592305E0	1.034904361E0	-4.154531360E-1	8.681905270E-2
3.411015536E0	1.017327547E0	-3.994741738E-1	7.882957160E-2
3.413867744E0	9.954896569E-1	-3.856257200E-1	7.243798673E-2
3.415332536E0	9.773801565E-1	-3.755057156E-1	6.604639441E-2
3.417926244E0	9.576727748E-1	-3.664509654E-1	6.018744037E-2
3.419208113E0	9.374327064E-1	-3.568635881E-1	5.699164793E-2
3.421983283E0	9.182579517E-1	-3.542004228E-1	5.432848632E-2
3.423622036E0	8.857674003E-1	-3.552657068E-1	5.326322466E-2
3.426018167E0	8.756473660E-1	-3.557983339E-1	4.900216311E-2
3.427268459E0	8.506136537E-1	-3.685815036E-1	4.900216311E-2
3.430075590E0	8.277105093E-1	-3.797667921E-1	4.367584363E-2
3.431688421E0	7.920241356E-1	-4.085289240E-1	3.462109342E-2
3.434109821E0	7.765777707E-1	-4.181163013E-1	2.929477207E-2
3.435309151E0	7.456851006E-1	-4.420847595E-1	1.970739290E-2
3.438166475E0	7.169229984E-1	-4.644553065E-1	7.989482954E-3
3.439936728E0	6.652576327E-1	-4.964132309E-1	-2.130528912E-3
3.442221090E0	6.476807594E-1	-5.075985193E-1	-6.924218964E-3
3.443432075E0	6.093312502E-1	-5.267732739E-1	-1.704423130E-2
3.446277744E0	5.715143681E-1	-5.416869521E-1	-2.343581803E-2
3.447899113E0	5.113269091E-1	-5.539374948E-1	-3.834952042E-2
3.450105959E0	4.724447727E-1	-5.571333170E-1	-4.420847446E-2
3.451631728E0	4.351605177E-1	-5.566006899E-1	-5.432848632E-2
3.454369552E0	3.946804702E-1	-5.491438508E-1	-6.072007492E-2
3.455677844E0	3.616572917E-1	-5.358279943E-1	-7.297061384E-2
3.458489590E0	3.270362020E-1	-5.219795704E-1	-7.989483327E-2
3.459739613E0	2.929477394E-1	-4.937500656E-1	-9.374327213E-2
3.462581821E0	2.625876963E-1	-4.655205607E-1	-1.012001261E-1
3.464297575E0	2.338255495E-1	-4.293015897E-1	-1.043959185E-1
3.466632898E0	2.055960447E-1	-3.872236311E-1	-1.145159304E-1
3.467952536E0	1.837581247E-1	-3.403519988E-1	-1.203748807E-1
3.470690167E0	1.608549356E-1	-2.854908705E-1	-1.257012039E-1
3.472308267E0	1.400822699E-1	-2.231729031E-1	-1.272991002E-1
3.474723783E0	1.230380461E-1	-1.581917703E-1	-1.225054115E-1
3.475947882E0	1.059938148E-1	-8.894958347E-2	-1.193096191E-1
3.478781398E0	8.415589482E-2	-1.917476021E-2	-1.086569726E-1
3.480522459E0	6.657902896E-2	5.273059011E-2	-9.374327213E-2
3.482847359E0	5.006742850E-2	1.209075153E-1	-7.829693705E-2
3.484042228E0	3.036003746E-2	1.837581247E-1	-5.699164793E-2
3.486904706E0	9.054748341E-3	2.439455539E-1	-3.888215125E-2
3.488523921E0	-4.793690052E-3	2.934803665E-1	-1.810949668E-2
3.490752651E0	-2.343581803E-2	3.424825370E-1	2.130528912E-3
3.492153690E0	-3.941478580E-2	3.802994192E-1	1.970739290E-2
3.495010052E0	-5.006742850E-2	4.127899706E-1	3.408846259E-2
3.496440267E0	-6.551376730E-2	4.362258017E-1	4.846953228E-2
3.499116398E0	-7.190535218E-2	4.506068528E-1	5.273059011E-2
3.500324728E0	-7.723167539E-2	4.596616030E-1	5.592638254E-2
3.503173859E0	-8.096009493E-2	4.612595141E-1	5.060006306E-2
3.504830228E0	-8.468852192E-2	4.532700181E-1	3.994741663E-2
3.507213744E0	-8.202536404E-2	4.516721368E-1	3.302319720E-2
3.508496267E0	-8.202536404E-2	4.415521026E-1	1.384843793E-2
3.511270975E0	-7.084008306E-2	4.191815555E-1	-1.597896591E-2
3.512893805E0	-6.498113275E-2	4.069310129E-1	-4.846953228E-2
3.515319782E0	-5.273059011E-2	3.914846778E-1	-7.510114461E-2
3.516519690E0	-3.834952042E-2	3.808320463E-1	-1.107875034E-1
3.519376513E0	-2.503371425E-2	3.669835925E-1	-1.443433315E-1
3.521087344E0	-7.989482954E-3	3.573962152E-1	-1.773665249E-1
3.523451167E0	3.728425596E-3	3.499393761E-1	-2.178465873E-1
3.524655536E0	2.237055451E-2	3.446130455E-1	-2.530003190E-1
3.527508398E0	3.888215125E-2	3.376888335E-1	-2.897519469E-1
3.529108382E0	5.486112088E-2	3.344930410E-1	-3.302319944E-1
3.531317998E0	7.243798673E-2	3.318298757E-1	-3.659183383E-1
3.532737882E0	8.735168725E-2	3.286340833E-1	-4.000068009E-1
3.535600167E0	1.017327532E-1	3.233077526E-1	-4.293015897E-1
3.536884498E0	1.139832959E-1	3.169161677E-1	-4.639226794E-1
3.539698205E0	1.272991002E-1	3.105245829E-1	-4.921521842E-1
3.540920767E0	1.374191195E-1	3.020024598E-1	-5.198490620E-1
3.543789821E0	1.464738697E-1	2.918824553E-1	-5.470132828E-1
3.545420305E0	1.539307088E-1	2.785666585E-1	-5.720469952E-1
3.547825859E0	1.597896665E-1	2.673813701E-1	-5.922870636E-1
3.549007882E0	1.651159972E-1	2.545982003E-1	-6.119944453E-1
3.551883051E0	1.720402092E-1	2.434129268E-1	-6.253102422E-1
3.553480805E0	1.736381054E-1	2.284992188E-1	-6.370281577E-1
3.555916551E0	1.773665249E-1	2.119876295E-1	-6.423544884E-1
3.557098998E0	1.773665249E-1	1.928128600E-1	-6.455502510E-1
3.559973051E0	1.805623323E-1	1.778991669E-1	-6.514092088E-1
3.561703498E0	1.789644361E-1	1.581917703E-1	-6.546050310E-1
3.564029167E0	1.789644361E-1	1.528654546E-1	-6.572681665E-1
3.565226498E0	1.800296903E-1	1.475391239E-1	-6.578007936E-1
3.568086321E0	1.789644361E-1	1.448759735E-1	-6.540724039E-1
3.569690728E0	1.741707325E-1	1.464738697E-1	-6.572681665E-1
3.571913805E0	1.720402092E-1	1.496696621E-1	-6.562029123E-1
3.573331767E0	1.629854590E-1	1.539307088E-1	-6.599313021E-1
3.576178244E0	1.560612470E-1	1.651159972E-1	-6.631271243E-1
3.577652882E0	1.454086006E-1	1.917476058E-1	-6.721818447E-1
3.580235398E0	1.443433315E-1	2.024002522E-1	-6.785734296E-1
3.581424459E0	1.331580579E-1	2.210423797E-1	-6.918892860E-1
3.584292205E0	1.246359423E-1	2.514024079E-1	-7.030745149E-1
3.585987305E0	1.182443574E-1	2.743056118E-1	-7.089334726E-1
3.588341474E0	1.139832959E-1	2.929477394E-1	-7.153250575E-1
3.589560574E0	1.123853996E-1	3.115898669E-1	-7.195861340E-1
3.592398744E0	1.118527651E-1	3.291667104E-1	-7.286409140E-1
3.594087228E0	1.139832959E-1	3.472762108E-1	-7.408914566E-1
3.596431397E0	1.182443574E-1	3.611246645E-1	-7.584682703E-1
3.597655421E0	1.283643693E-1	3.701793849E-1	-7.733820081E-1
3.600488590E0	1.400822699E-1	3.787015080E-1	-7.893609405E-1
3.602210574E0	1.555286050E-1	3.834952116E-1	-8.058725595E-1
3.604554590E0	1.757686287E-1	3.861583769E-1	-8.282431364E-1
3.605763190E0	1.981391907E-1	3.861583769E-1	-8.468852639E-1
3.608610705E0	2.242381722E-1	3.813646734E-1	-8.665926456E-1
3.610231728E0	2.545982003E-1	3.760383427E-1	-8.873652816E-1
3.612460767E0	2.854908705E-1	3.659183383E-1	-9.065400362E-1
3.613868190E0	3.201119602E-1	3.520699143E-1	-9.310411215E-1
3.616716513E0	3.568635881E-1	3.387540877E-1	-9.571400881E-1
3.618008036E0	3.930825889E-1	3.217098713E-1	-9.795106649E-1
3.620813513E0	4.335626364E-1	2.982740402E-1	-1.005077004E0
3.622069382E0	4.724447727E-1	2.732403278E-1	-1.022653818E0
3.624904974E0	5.123922229E-1	2.471413612E-1	-1.032241225E0
3.626556228E0	5.550028086E-1	2.189118415E-1	-1.042361259E0
3.628940782E0	5.944175720E-1	1.901497096E-1	-1.041296005E0
3.630163959E0	6.380934119E-1	1.581917703E-1	-1.038100243E0
3.632997551E0	6.791061163E-1	1.267664731E-1	-1.030110717E0
3.634761767E0	7.419567108E-1	7.882957160E-2	-1.006674886E0
3.637046282E0	7.579356432E-1	6.977482140E-2	-9.981527925E-1
3.638268497E0	7.696535587E-1	6.870955974E-2	-9.736517072E-1
3.641103090E0	7.701861858E-1	6.072007492E-2	-9.534116983E-1
3.642985344E0	7.952198982E-1	6.391586736E-3	-9.353021979E-1
3.645166320E0	7.962851524E-1	-2.503371425E-2	-9.305084944E-1
3.646375921E0	7.957525253E-1	-1.129180342E-1	-9.102684855E-1
3.649223051E0	7.861651778E-1	-2.258360684E-1	-8.767126203E-1
3.650834613E0	7.494135499E-1	-4.420847595E-1	-8.181231022E-1
3.653067959E0	6.950850487E-1	-6.247776151E-1	-7.765777707E-1
3.654462497E0	6.562029123E-1	-7.286409140E-1	-7.563377619E-1
3.657312705E0	4.921521842E-1	-1.105744481E0	-6.833671331E-1
3.658819036E0	3.542004228E-1	-1.406149030E0	-6.269081235E-1
3.661372705E0	2.045307755E-1	-1.722000003E0	-5.566006899E-1
3.662601190E0	5.326322466E-2	-2.035187721E0	-4.751079381E-1
3.665429936E0	-8.202536404E-2	-2.349440813E0	-3.760383427E-1
3.667081421E0	-1.933455020E-1	-2.666357040E0	-2.684466541E-1
3.669465666E0	-2.838929892E-1	-2.962500334E0	-1.576591432E-1
3.670715574E0	-3.419498801E-1	-3.215500832E0	-5.486112088E-2
3.673522320E0	-3.696467578E-1	-3.400856733E0	3.728425503E-2
3.675247113E0	-3.621899188E-1	-3.511644363E0	1.315601617E-1
3.677555051E0	-3.291667104E-1	-3.551591635E0	2.380866110E-1
3.678752074E0	-2.721750736E-1	-3.532949686E0	3.526025414E-1
3.681611743E0	-2.018676102E-1	-3.457848310E0	4.436826408E-1
3.683373190E0	-1.203748807E-1	-3.345995665E0	5.123922229E-1
3.685667359E0	-3.462109342E-2	-3.202184916E0	5.725796223E-1
3.686985421E0	4.793690145E-2	-3.028546810E0	6.247776151E-1
3.689724820E0	1.235706806E-1	-2.826146603E0	6.673882008E-1
3.691363536E0	2.029328793E-1	-2.598180056E0	7.115966678E-1
3.693524190E0	2.775014043E-1	-2.357962847E0	7.478156686E-1
3.695023767E0	3.456783295E-1	-2.101766825E0	7.749798894E-1
3.697816436E0	4.117247164E-1	-1.829591751E0	7.978830934E-1
3.699082767E0	4.649879336E-1	-1.545698762E0	8.165252209E-1
3.701908743E0	5.102616549E-1	-1.263936281E0	8.309062719E-1
3.703162305E0	5.528722405E-1	-9.800432920E-1	8.298410177E-1
3.706000897E0	5.832322836E-1	-6.972155571E-1	8.170578480E-1
3.707618882E0	6.215817928E-1	-2.860234976E-1	7.840346098E-1
3.710051166E0	6.338323355E-1	-1.576591432E-1	7.707188129E-1
3.711259459E0	6.503439546E-1	9.267801046E-2	7.398261428E-1
3.714107628E0	6.679208279E-1	3.243730366E-1	7.057377100E-1
3.715742997E0	6.929545403E-1	6.593986750E-1	6.487460732E-1
3.718140820E0	7.020092607E-1	7.648598552E-1	6.285060048E-1
3.719366613E0	7.158577442E-1	9.757822156E-1	5.864281058E-1
3.722197089E0	7.344998717E-1	1.177117229E0	5.496764779E-1
3.723899574E0	7.637946010E-1	1.468999743E0	5.118595958E-1
3.726261705E0	7.824367285E-1	1.639974594E0	4.862932265E-1
3.727466036E0	8.074704409E-1	1.791774869E0	4.522047639E-1
3.730318628E0	8.250473142E-1	1.917476058E0	4.186489284E-1
3.731956728E0	8.479505181E-1	2.024535179E0	3.861583769E-1
3.734140728E0	8.671252728E-1	2.109223604E0	3.494067490E-1
3.735555767E0	8.921589851E-1	2.171009064E0	3.142530024E-1
3.738424474E0	9.161274433E-1	2.215217352E0	2.764361203E-1
3.739869074E0	9.432916641E-1	2.237587929E0	2.354234457E-1
3.742504089E0	9.704559445E-1	2.247175455E0	1.992044598E-1
3.743716728E0	9.981527925E-1	2.237587929E0	1.624528319E-1
3.746561705E0	1.025317073E0	2.218413115E0	1.304948926E-1
3.748191420E0	1.051416039E0	2.188585758E0	1.006674916E-1
3.750597243E0	1.083906531E0	2.152899504E0	7.030745596E-2
3.751785690E0	1.116929770E0	2.115615129E0	4.527373984E-2
3.754654974E0	1.154746652E0	2.079928875E0	2.929477207E-2
3.756288805E0	1.185639381E0	2.047971010E0	1.438106969E-2
3.758704205E0	1.215466738E0	2.010686636E0	1.118527725E-2
3.759924151E0	1.235706806E0	1.967010856E0	2.450108156E-2
3.762761897E0	1.246359468E0	1.920139194E0	4.048004746E-2
3.764477574E0	1.259142637E0	1.874865413E0	6.338323653E-2
3.766837397E0	1.268729925E0	1.825330615E0	8.628641814E-2
3.768027151E0	1.272991061E0	1.780589581E0	1.086569726E-1
3.770894128E0	1.275121570E0	1.731054783E0	1.251685768E-1
3.772534844E0	1.274056315E0	1.684715748E0	1.395496428E-1
3.774764305E0	1.269795179E0	1.635180950E0	1.480717659E-1
3.776125997E0	1.263936281E0	1.591505051E0	1.587243974E-1
3.778983897E0	1.257012010E0	1.540904999E0	1.709749401E-1
3.780288190E0	1.249022603E0	1.488707066E0	1.752360016E-1
3.783096089E0	1.238369942E0	1.431182742E0	1.768338978E-1
3.784324805E0	1.229315162E0	1.373125911E0	1.816275865E-1
3.787188243E0	1.217597246E0	1.315601587E0	1.805623323E-1
3.788892305E0	1.198422551E0	1.221325755E0	1.810949594E-1
3.791224243E0	1.190433025E0	1.188835144E0	1.778991669E-1
3.792443036E0	1.173921466E0	1.121190786E0	1.784317940E-1
3.795280858E0	1.140898228E0	1.019458055E0	1.800296903E-1
3.796944190E0	1.111070871E0	9.475527406E-1	1.837581247E-1
3.799314051E0	1.073786616E0	8.703210354E-1	1.906823367E-1
3.800501536E0	1.027980208E0	7.877630591E-1	1.981391907E-1
3.803370358E0	9.875001311E-1	7.057377100E-1	2.093244642E-1
3.805133843E0	9.438242912E-1	6.221144199E-1	2.119876295E-1
3.807424435E0	9.012137055E-1	5.448827744E-1	2.087918371E-1
3.808634613E0	8.628641963E-1	4.692489803E-1	2.029328793E-1
3.811480743E0	8.207862377E-1	3.973436356E-1	1.938781291E-1
3.813082228E0	7.819041014E-1	3.265035450E-1	1.794970632E-1
3.815283920E0	7.430219650E-1	2.599245310E-1	1.656486243E-1
3.816697228E0	7.068029642E-1	1.944107562E-1	1.496696621E-1
3.819569974E0	6.785734296E-1	1.358212233E-1	1.251685768E-1
3.821075074E0	6.476807594E-1	8.042746782E-2	1.086569726E-1
3.823643089E0	6.231797338E-1	3.195793182E-2	8.841694891E-2
3.824841343E0	6.013417840E-1	-9.054748341E-3	6.711166352E-2
3.827700281E0	5.784385800E-1	-4.420847446E-2	4.633900523E-2
3.829381959E0	5.571333170E-1	-7.776430249E-2	2.769687586E-2
3.831751397E0	5.342301130E-1	-1.038632840E-1	1.438106969E-2
3.832949613E0	5.097290277E-1	-1.310275346E-1	3.195793368E-3
3.835808627E0	4.841626883E-1	-1.565938741E-1	-2.663161140E-3
3.837419420E0	4.623247683E-1	-1.747033745E-1	-5.858954508E-3
3.839842358E0	4.420847595E-1	-1.912149638E-1	-1.065264456E-2
3.841047843E0	4.234426320E-1	-2.034655064E-1	-9.587380104E-3
3.843899473E0	4.000068009E-1	-2.135855258E-1	-9.054748341E-3
3.845602690E0	3.723099232E-1	-2.290318608E-1	-5.858954508E-3
3.847964281E0	3.632551730E-1	-2.359560728E-1	-6.924218964E-3
3.849155228E0	3.462109566E-1	-2.487392575E-1	-7.989482954E-3
3.852021320E0	3.249056637E-1	-2.615224123E-1	-1.118527725E-2
3.853640420E0	2.956108749E-1	-2.897519469E-1	-2.183792181E-2
3.855929343E0	2.828277051E-1	-2.966761589E-1	-2.876213938E-2
3.857268151E0	2.625876963E-1	-3.099919558E-1	-4.367584363E-2
3.860126358E0	2.434129268E-1	-3.169161677E-1	-6.391586363E-2
3.861424843E0	2.274339646E-1	-3.158509135E-1	-8.202536404E-2
3.864217781E0	2.119876295E-1	-3.057309091E-1	-1.043959185E-1
3.865452882E0	1.928128600E-1	-2.817624509E-1	-1.379517466E-1
3.868309858E0	1.778991669E-1	-2.625876963E-1	-1.587243974E-1
3.869998267E0	1.656486243E-1	-2.444781959E-1	-1.731054783E-1
3.872346512E0	1.549959779E-1	-2.194444835E-1	-1.906823367E-1
3.873585997E0	1.448759735E-1	-1.906823367E-1	-2.029328793E-1
3.876403512E0	1.368864775E-1	-1.619201899E-1	-2.141181529E-1
3.878065420E0	1.283643693E-1	-1.326254308E-1	-2.205097377E-1
3.880452127E0	1.182443574E-1	-1.038632840E-1	-2.263686955E-1
3.881692920E0	1.012001261E-1	-7.829693705E-2	-2.295644879E-1
3.884509512E0	7.882957160E-2	-5.006742850E-2	-2.300971150E-1
3.886233190E0	5.219795927E-2	-2.450108156E-2	-2.290318608E-1
3.888575166E0	2.290318534E-2	3.195793368E-3	-2.279665917E-1
3.889788805E0	-5.858954508E-3	3.302319720E-2	-2.237055302E-1
3.892632089E0	-3.728425503E-2	6.231797114E-2	-2.210423797E-1
3.894266843E0	-7.190535218E-2	8.948221803E-2	-2.157160491E-1
3.896445074E0	-1.059938148E-1	1.123853996E-1	-2.109223604E-1
3.897882036E0	-1.416801661E-1	1.320927888E-1	-2.055960447E-1
3.900723242E0	-1.741707325E-1	1.470064968E-1	-2.008023560E-1
3.902204459E0	-2.039981484E-1	1.613875628E-1	-1.880191714E-1
3.904793896E0	-2.359560728E-1	1.736381054E-1	-1.752360016E-1
3.905981805E0	-2.636529505E-1	1.805623323E-1	-1.592570394E-1
3.908850896E0	-2.902845740E-1	1.853560209E-1	-1.411475390E-1
3.910490536E0	-3.185140789E-1	1.848233789E-1	-1.241033077E-1
3.912886473E0	-3.376888335E-1	1.869539171E-1	-1.091896072E-1
3.914081305E0	-3.600593805E-1	1.826928556E-1	-9.161274135E-2
3.916943473E0	-3.765709996E-1	1.757686287E-1	-8.042746782E-2
3.918623613E0	-3.962783813E-1	1.608549356E-1	-6.338323653E-2
3.920977704E0	-4.010720551E-1	1.555286050E-1	-6.125270575E-2
3.922170920E0	-4.085289240E-1	1.470064968E-1	-5.752427876E-2
3.925035012E0	-4.111920893E-1	1.358212233E-1	-5.326322466E-2
3.926767190E0	-4.143878818E-1	1.166464612E-1	-4.367584363E-2
3.929090589E0	-4.138552547E-1	1.097222418E-1	-3.941478580E-2
3.930280651E0	-4.101268053E-1	9.427590668E-2	-3.355583176E-2
3.933146742E0	-4.042678475E-1	7.350324839E-2	-2.556634694E-2
3.934808497E0	-3.914846778E-1	4.367584363E-2	-1.331580617E-2
3.936944959E0	-3.856257200E-1	2.876213938E-2	-9.054748341E-3
3.938370497E0	-3.733751774E-1	4.793690052E-3	-1.597896684E-3
3.941237704E0	-3.568635881E-1	-4.474110901E-2	2.077265643E-2
3.942538997E0	-3.446130455E-1	-8.096009493E-2	4.048004746E-2
3.945335358E0	-3.339604139E-1	-1.193096191E-1	5.965480953E-2
3.946579613E0	-3.227751255E-1	-1.549959779E-1	8.042746782E-2
3.949427512E0	-3.099919558E-1	-1.896170676E-1	9.960222989E-2
3.951046343E0	-2.956108749E-1	-2.284992188E-1	1.187769845E-1
3.953479319E0	-2.849582434E-1	-2.684466541E-1	1.310275346E-1
3.954681843E0	-2.684466541E-1	-3.057309091E-1	1.427454352E-1
3.957536473E0	-2.545982003E-1	-3.403519988E-1	1.528654546E-1
3.959159382E0	-2.380866110E-1	-3.701793849E-1	1.587243974E-1
3.961570242E0	-2.221076339E-1	-4.026699662E-1	1.592570394E-1
3.962765805E0	-2.050634027E-1	-4.330300093E-1	1.608549356E-1
3.965627627E0	-1.880191714E-1	-4.601942301E-1	1.624528319E-1
3.967361690E0	-1.725728363E-1	-4.846953154E-1	1.619201899E-1
3.969693358E0	-1.533980817E-1	-5.091964006E-1	1.619201899E-1
3.970945997E0	-1.352885813E-1	-5.320996046E-1	1.635181010E-1
3.973750704E0	-1.209075153E-1	-5.534048676E-1	1.651159972E-1
3.975374882E0	-1.102548689E-1	-5.779059529E-1	1.677791476E-1
3.977581805E0	-9.800432622E-2	-6.029396653E-1	1.688444167E-1
3.978997613E0	-8.681905270E-2	-6.274407506E-1	1.725728363E-1
3.981858742E0	-7.669904083E-2	-6.535397172E-1	1.704423130E-1
3.983389574E0	-6.444849819E-2	-6.743124127E-1	1.725728363E-1
3.985913858E0	-5.858954415E-2	-7.004113793E-1	1.656486243E-1
3.987153497E0	-4.687163606E-2	-7.249124646E-1	1.581917703E-1
3.989971550E0	-3.888215125E-2	-7.494135499E-1	1.523328125E-1
3.991679459E0	-2.769687586E-2	-7.909588814E-1	1.336906850E-1
3.994007627E0	-2.237055451E-2	-8.069378138E-1	1.294296384E-1
3.995265728E0	-2.077265643E-2	-8.367652297E-1	1.161138266E-1
3.998064588E0	-1.651159860E-2	-8.665926456E-1	1.049285457E-1
3.999702266E0	-1.438106969E-2	-9.155948162E-1	8.681905270E-2
4.002112242E0	-1.438106969E-2	-9.331716895E-1	8.255799860E-2
4.003300536E0	-1.917476021E-2	-9.635316730E-1	7.403588295E-2
4.006168973E0	-2.396845073E-2	-9.986854196E-1	6.072007492E-2
4.007892420E0	-3.515372798E-2	-1.049818158E0	4.420847446E-2
4.010212088E0	-4.314320907E-2	-1.066862345E0	3.781688958E-2
4.011438343E0	-5.539375171E-2	-1.100418210E0	2.290318534E-2
4.014269319E0	-8.149272949E-2	-1.151550889E0	3.195793368E-3
4.015876497E0	-1.017327532E-1	-1.187237263E0	-1.065264456E-2
4.018128728E0	-1.267664731E-1	-1.216531992E0	-2.290318534E-2
4.019504228E0	-1.555286050E-1	-1.247424722E0	-3.941478580E-2
4.022359973E0	-1.864212751E-1	-1.276719451E0	-5.539375171E-2
4.023659420E0	-2.189118415E-1	-1.301753163E0	-7.084008306E-2
4.026465588E0	-2.588592768E-1	-1.323591113E0	-8.735168725E-2
4.027710613E0	-2.950782478E-1	-1.341700554E0	-1.033306494E-1
4.030558165E0	-3.339604139E-1	-1.357146859E0	-1.187769845E-1
4.032241613E0	-3.755057156E-1	-1.363005877E0	-1.363538504E-1
4.034593934E0	-4.154531360E-1	-1.368332148E0	-1.565938741E-1
4.035807420E0	-4.612595141E-1	-1.369397402E0	-1.778991669E-1
4.038651857E0	-5.070658922E-1	-1.366734266E0	-2.013349831E-1
4.040319689E0	-5.518069863E-1	-1.361940622E0	-2.269013226E-1
4.042685780E0	-5.965480804E-1	-1.356081605E0	-2.519350350E-1
4.043894420E0	-6.423544884E-1	-1.343298435E0	-2.775014043E-1
4.046742896E0	-6.854977012E-1	-1.331047893E0	-3.004045784E-1
4.048487843E0	-7.297061682E-1	-1.309742689E0	-3.265035450E-1
4.050799203E0	-7.669904232E-1	-1.283643723E0	-3.478088379E-1
