"Time (s)"	"Linear Acceleration x (m/s^2)"	"Linear Acceleration y (m/s^2)"	"Linear Acceleration z (m/s^2)"
1.547803900E-2	5.492975712E-1	-6.498527527E-1	-9.497342110E-1
2.345573100E-2	6.280839443E-1	-6.386008263E-1	-7.223320007E-1
3.174576900E-2	7.358541489E-1	-5.875601768E-1	-2.955498695E-1
3.966026900E-2	8.696863651E-1	-6.026644707E-1	1.665735245E-1
4.739380800E-2	9.308221340E-1	-5.633974075E-1	6.842522621E-1
5.595761500E-2	1.200481653E0	-6.496829987E-1	1.143185616E0
6.405542300E-2	1.341608524E0	-7.079620361E-1	1.554033279E0
7.224169200E-2	1.441200972E0	-7.074084282E-1	1.890758514E0
8.024200000E-2	9.852781296E-1	-4.338264465E-1	1.578587532E0
8.820711500E-2	1.033007503E0	-3.938109875E-1	1.386313438E0
9.644369200E-2	1.141509295E0	-4.358417988E-1	1.121112823E0
1.045697310E-1	1.158398986E0	-4.764759541E-1	9.331321716E-1
1.127486920E-1	9.742010832E-1	-5.749514103E-1	8.288316727E-1
1.207830770E-1	7.018179893E-1	-6.279258728E-1	8.783788681E-1
1.285537690E-1	4.265985489E-1	-6.686971188E-1	8.896141052E-1
1.371573080E-1	1.495375633E-1	-6.070528030E-1	8.802585602E-1
1.451521540E-1	7.450072765E-1	-9.015986919E-1	-8.461189270E-2
1.533728080E-1	3.469581604E-1	-1.354700923E0	1.480951309E-1
1.613634610E-1	2.091441154E-1	-1.341555357E0	1.075836182E0
1.693346920E-1	4.477803707E-1	-9.238214493E-1	7.930192947E-1
1.775824230E-1	1.602334976E-1	-1.187399745E0	1.778191566E0
1.856886920E-1	-6.743526459E-1	-1.053737521E0	1.900635719E0
1.938908460E-1	-9.285930395E-1	-4.537147284E-1	1.282554626E0
2.019437310E-1	-4.528796673E-1	-1.301913261E-1	1.023076057E0
2.097175770E-1	3.116320372E-1	-2.265501022E-2	5.194053650E-1
2.182268080E-1	1.173918962E0	1.381978989E-1	-2.149972916E-1
2.246730640E-1	1.503492117E0	1.746209860E-1	-2.577610016E-1
2.263291150E-1	1.675874591E0	5.012238026E-2	-3.343753815E-1
2.345454610E-1	1.795840025E0	1.051710844E-1	-1.211123466E0
2.425770000E-1	1.577774048E0	9.405994415E-2	-1.530289650E0
2.504894230E-1	5.095615983E-1	-8.454838991E-1	-1.301132202E0
2.587410000E-1	-7.277619839E-2	-9.496861696E-1	-7.043123245E-1
2.668426540E-1	-3.158361912E-1	-6.665762663E-1	-8.327341080E-1
2.750421920E-1	-1.772024632E-1	-3.297684193E-1	-1.079756737E0
2.830266150E-1	-3.309664726E-1	-3.367874622E-1	-9.555091858E-1
2.907672310E-1	-6.034809351E-1	-5.343661308E-1	-8.451461792E-1
2.993718840E-1	-4.575591087E-1	-1.024525166E0	-8.399162292E-1
3.057653330E-1	-4.428023100E-1	-1.709256411E0	-1.089357376E0
3.074807310E-1	-5.050514936E-1	-1.931917071E0	-1.127664566E0
3.155856540E-1	-9.474077225E-1	-2.642817497E0	-1.324506760E0
3.236550770E-1	-1.241538763E0	-2.432720184E0	-1.728955746E0
3.315750380E-1	-1.610442400E0	-1.751441956E0	-1.343292236E0
3.398103460E-1	-1.796945810E0	-8.459476829E-1	-6.051445007E-1
3.462656790E-1	-2.031953096E0	-2.987018228E-1	8.847236633E-3
3.479170000E-1	-2.101385355E0	-1.861743927E-1	2.075653076E-1
3.561330000E-1	-2.577416420E0	2.353359461E-1	1.075082779E0
3.641249610E-1	-2.900243282E0	4.612469673E-1	1.869054794E0
3.718812310E-1	-3.168912411E0	4.367355108E-1	3.240172386E0
3.804093460E-1	-1.884840131E0	4.063534737E-2	4.045614243E0
3.887765380E-1	-4.226397276E-1	-3.571938276E-1	2.978526115E0
3.967758460E-1	2.892427444E-1	-7.835257053E-2	3.245372772E0
4.047726540E-1	2.657408237E0	4.932398796E-1	3.459070206E0
4.126533840E-1	3.854065180E0	6.638026237E-1	3.620696068E0
4.210042690E-1	4.162649632E0	6.110068560E-1	2.208849907E0
4.274038710E-1	2.629787683E0	2.465145588E-1	2.950048447E-1
4.290555000E-1	2.071938753E0	2.991869450E-1	-2.580556870E-1
4.372598460E-1	-9.060193300E-1	1.293634415E0	-2.666587830E-1
4.452611920E-1	-4.665750265E-1	1.078873158E0	-7.465496063E-1
4.531984230E-1	1.262539387E0	2.070312500E-1	-1.491227150E0
4.615947310E-1	1.859702110E0	3.709959984E-2	-1.647172928E0
4.702037690E-1	1.816154242E0	8.418107033E-2	-1.099914074E0
4.777673460E-1	1.518402338E0	-3.535988331E-1	-1.738014221E-1
4.858142300E-1	1.532447815E0	-1.077093363E0	1.287805557E0
4.937420770E-1	1.730486393E0	-1.097131491E0	1.781939507E0
5.020992690E-1	2.414372921E0	-1.148199797E0	1.516162872E0
5.101934230E-1	2.886919022E0	-1.022426367E0	1.337177277E0
5.182913840E-1	2.389149666E0	8.433246613E-2	1.160294533E0
5.262069610E-1	1.456005573E0	3.599929810E-1	1.093963623E0
5.340855380E-1	1.006748676E0	-1.145672798E-1	5.101523399E-1
5.425690000E-1	5.831637383E-1	-1.263079643E0	-5.235671997E-2
5.507344610E-1	3.178310394E-2	-2.133971691E0	-7.230863571E-1
5.589565000E-1	-8.535923958E-1	-2.148244619E0	-7.770967484E-1
5.669501540E-1	-9.646329880E-1	-1.876098394E0	-7.608356476E-1
5.747966530E-1	-1.304324150E0	-1.410537481E0	-7.881226540E-1
5.830275770E-1	-1.516991138E0	-1.383170605E0	-7.698402405E-1
5.917396920E-1	-1.123792171E0	-1.770425081E0	-6.848640442E-1
5.993191920E-1	-1.194983959E0	-1.779424429E0	-4.571595192E-1
6.073124230E-1	-1.248126507E0	-1.541772366E0	-2.500119209E-1
6.151039610E-1	-1.019405365E0	-1.564394951E0	-9.757661819E-2
6.236544610E-1	-1.243804932E0	-1.570104122E0	1.709837914E-1
6.300717160E-1	-1.498532772E0	-1.721875668E0	4.295630455E-1
6.316972300E-1	-1.498532772E0	-1.784124851E0	4.415340424E-1
6.399129230E-1	-1.582135677E0	-2.023415565E0	7.199010849E-1
6.480707300E-1	-1.557884693E0	-2.103421211E0	6.613841057E-1
6.558962300E-1	-1.851511955E0	-1.887490749E0	4.586036205E-1
6.641370380E-1	-1.861066341E0	-1.769424438E0	4.132652283E-2
6.723347300E-1	-1.418509960E0	-1.823816776E0	-7.362859249E-1
6.804121530E-1	-1.123734474E0	-1.562231064E0	-7.160668373E-1
6.885875000E-1	-1.086343765E0	-1.267965317E0	-1.223707199E-2
6.962354230E-1	-1.140847206E0	-1.105210304E0	7.709414959E-1
7.047628070E-1	-1.363327026E0	-1.225693226E0	1.526252747E0
7.129330000E-1	-9.787235260E-1	-1.634588718E0	2.064235210E0
7.210560000E-1	-5.838050842E-1	-1.950755119E0	2.461266041E0
7.290878840E-1	-1.449060440E-2	-2.097217083E0	2.924467802E0
7.371105380E-1	5.920605659E-1	-2.104824543E0	3.116642475E0
7.452150760E-1	1.059616089E0	-1.793394566E0	3.283075809E0
7.533283460E-1	1.146159172E0	-1.504528046E0	3.508431435E0
7.625964230E-1	3.441820145E-1	-1.241436481E0	3.111515999E0
7.707888460E-1	-7.593488693E-1	-1.140751362E0	2.769049168E0
7.785330000E-1	-2.497563362E0	-1.135260105E0	1.425751448E0
7.870110380E-1	-3.029444695E0	-1.289771557E0	2.857131362E-1
7.953959610E-1	-3.118696690E0	-1.032210827E0	1.066045761E0
8.031688840E-1	-2.113046646E0	-8.766765594E-1	1.482965589E0
8.111959230E-1	-1.124687195E0	-9.950361252E-1	2.004453897E0
8.192501530E-1	-2.684235573E-1	-1.336304188E0	2.151977539E0
8.274474610E-1	2.505068779E-1	-1.570905209E0	1.687990546E0
8.356652300E-1	3.733725548E-1	-1.300411701E0	1.356252909E0
8.437561150E-1	1.024894238E0	-1.316254616E0	2.026879787E0
8.518032690E-1	1.611496449E0	-1.528016567E0	1.696795940E0
8.596069230E-1	1.498228550E0	-1.576414585E0	1.141506791E0
8.680533840E-1	3.905248642E-1	-1.136152267E0	9.110122919E-1
8.761696530E-1	-2.595376968E-1	-6.792407036E-1	3.094261587E-1
8.844524990E-1	-9.012098312E-1	-3.340086937E-1	-1.036506295E-1
8.924178070E-1	-1.676773548E0	-2.335176468E-1	-1.641163230E-2
9.002991920E-1	-1.832777977E0	-2.856559753E-1	2.092494816E-1
9.086621530E-1	-1.451156139E0	-3.594508171E-1	3.664614558E-1
9.167689990E-1	-8.852548599E-1	-4.620862007E-1	9.782416821E-1
9.248785760E-1	-4.109849930E-1	-7.286086082E-1	1.180767059E0
9.329598070E-1	6.104135513E-2	-9.556021690E-1	1.148705721E0
9.406718460E-1	6.870613098E-1	-8.559865952E-1	1.865357757E0
9.491201530E-1	1.973532677E0	-4.333024025E-1	2.866881371E0
9.574251920E-1	2.429697037E0	-2.211680412E-1	2.644644022E0
9.637119080E-1	2.608670712E0	-4.787826538E-2	2.502213955E0
9.654754220E-1	2.673313618E0	-2.393627167E-2	2.468694925E0
9.735008460E-1	2.536067486E0	5.775880814E-2	2.173983335E0
9.814376530E-1	1.804545403E0	-1.615605354E-1	1.599749327E0
9.900019990E-1	1.065309525E0	-4.155364037E-1	1.079852104E0
9.978085380E-1	2.796325684E-1	-6.073393822E-1	1.122240424E0
1.005998038E0	-4.180979729E-1	-6.773843765E-1	1.604383111E0
1.012320138E0	-7.841506004E-1	-5.933070183E-1	1.752503276E0
1.013960038E0	-8.559765816E-1	-6.268258095E-1	1.776445270E0
1.021713499E0	-1.233295441E0	-1.004956722E0	1.486293077E0
1.030232884E0	-4.572367668E-1	-1.234609604E0	1.768671870E0
1.038375307E0	2.498044968E-1	-1.420221329E0	1.784352303E0
1.046595576E0	6.269264221E-1	-1.705465555E0	1.439425945E0
1.054551692E0	6.650619507E-1	-1.977987528E0	7.371711731E-1
1.062512653E0	1.102573395E0	-2.113969803E0	4.421871901E-1
1.070818807E0	1.767876625E0	-1.936775208E0	6.348370314E-1
1.079012999E0	1.885337830E0	-1.578077316E0	7.562519312E-1
1.087028538E0	1.677463531E0	-1.034494162E0	7.206001282E-1
1.095093153E0	1.534786224E0	-6.675763130E-1	5.498180389E-1
1.111397384E0	1.284379959E-1	-4.862499237E-1	5.070798397E-1
1.119479807E0	-7.060604095E-1	-4.129939079E-1	7.105475664E-1
1.127663807E0	-6.916799545E-1	-3.683271408E-1	2.800750732E-1
1.135640961E0	1.322193146E-1	-3.429367542E-1	2.399469614E-1
1.143735461E0	8.857517242E-1	-6.135632992E-1	1.028734803E0
1.151840884E0	1.085911751E0	-9.071896076E-1	1.873307705E0
1.159918538E0	1.184384346E0	-1.175698757E0	1.551485419E0
1.168094499E0	6.450195312E-1	-1.409137607E0	8.204123974E-1
1.176688115E0	4.899978638E-2	-1.439041615E0	5.309338570E-1
1.183902499E0	2.834033966E-2	-1.072830439E0	4.021480083E-1
1.192390192E0	4.011621475E-1	-4.015316963E-1	5.455429554E-1
1.200527307E0	6.853361130E-1	1.043486595E-2	2.681102753E-1
1.208822115E0	8.142395020E-1	1.150956154E-1	-4.834890366E-2
1.216880884E0	9.103107452E-1	3.175806999E-2	-2.078572512E-1
1.224734999E0	9.938106537E-1	-8.116412163E-2	-2.146536112E-1
1.233040691E0	8.956966400E-1	1.773834229E-2	-4.517959356E-1
1.241164191E0	1.288105011E0	-9.995055199E-2	-9.230171442E-1
1.249239961E0	1.705977440E0	-2.924950123E-1	-1.075194597E0
1.257182730E0	2.331491470E0	-6.669151783E-1	-8.011982441E-1
1.265121345E0	2.555784225E0	-1.122435212E0	-7.252879143E-1
1.273515038E0	2.634129524E0	-1.701649070E0	-6.093336344E-1
1.281711538E0	2.695432663E0	-2.114744663E0	-4.125944376E-1
1.289834884E0	2.629408836E0	-1.966143608E0	7.297337055E-2
1.298148499E0	2.692292213E0	-1.679816484E0	-9.395873547E-2
1.305807115E0	2.593407631E0	-1.128427982E0	1.735049486E-1
1.314141422E0	2.572807312E0	-4.737915993E-1	-8.215737343E-2
1.322146884E0	2.623459816E0	2.490448952E-2	-4.926444292E-1
1.330372307E0	2.396651268E0	1.519024849E0	-1.726403356E0
1.338384307E0	2.218631744E0	2.058004856E0	-1.457477808E0
1.346129730E0	1.872340202E0	1.063206196E0	-5.446318388E-1
1.354647499E0	1.743504524E0	-8.492610455E-1	-1.045689821E0
1.362782768E0	2.011184692E0	-1.901149035E0	-9.266679287E-1
1.371198307E0	1.367396355E0	-2.612313509E0	4.434748888E-1
1.378940384E0	1.077727318E0	-3.168774366E0	5.829198360E-1
1.386968230E0	1.263478279E0	-3.619886875E0	-8.511422873E-1
1.395182614E0	1.941515923E0	-4.218400955E0	-1.298970699E0
1.403351230E0	3.210818291E0	-5.253173828E0	1.226040602E0
1.411712499E0	3.507590771E0	-5.834611893E0	7.806525230E-1
1.419658922E0	2.429452419E0	-6.049437523E0	4.149408340E-1
1.427377461E0	9.155282974E-1	-6.148319244E0	3.162598610E-2
1.435801153E0	3.099699020E-1	-5.899668694E0	-3.119859695E-1
1.442245213E0	-2.403573990E-1	-5.962955475E0	-3.454463482E-1
1.443907191E0	-4.163885117E-2	-5.670863152E0	-9.894866943E-1
1.452079461E0	4.461321831E-1	-6.493915081E0	-1.722576618E0
1.460082922E0	-2.064094543E-1	-6.636371613E0	-2.227985620E0
1.468636922E0	-3.129835844E0	-5.666721344E0	-5.245477676E0
1.476284499E0	-1.180768871E1	-2.669505596E0	-1.494901562E1
1.484632230E0	-4.935690880E0	-5.412394524E0	-8.363382339E0
1.492781230E0	-7.338838577E-1	-7.590797901E0	-1.983836174E0
1.500751537E0	-6.688780785E0	-6.572272301E0	3.745367527E-1
1.508376037E0	-1.261646843E1	-3.693685055E0	1.022622347E0
1.516936384E0	-1.749959183E1	-3.089165688E-1	-1.680312157E-1
1.524954614E0	-1.699943542E1	1.305313110E-1	6.327097416E-1
1.533389268E0	-8.548010826E0	-1.012012959E0	2.898209572E0
1.541244653E0	-3.525740623E0	-7.650690079E-1	3.644902945E0
1.549173537E0	-3.049733162E0	8.673715591E-1	3.674026966E0
1.557560807E0	-3.161175013E0	2.851414680E0	5.508409500E0
1.565547960E0	-1.641518831E0	4.483902931E0	6.620990276E0
1.573799807E0	1.322461605E0	5.159111023E0	6.298113823E0
1.580140790E0	2.678307533E0	5.166760445E0	5.319235325E0
1.581782153E0	3.293617249E0	4.939311028E0	4.596187115E0
1.588230597E0	4.192646980E0	6.056093216E0	4.014492035E0
1.589705537E0	4.226165771E0	6.664220810E0	3.468613863E0
1.598089730E0	3.357084751E0	9.486144066E0	9.758698940E-1
1.606366422E0	1.765133619E0	1.071846294E1	-1.196890950E0
1.614637037E0	-5.466461182E-3	1.271589279E1	-3.337619781E0
1.622364114E0	-2.810068130E-1	1.453430843E1	-5.842330933E0
1.630317845E0	-1.430101156E0	1.588744926E1	-7.117119789E0
1.638628537E0	-1.115825415E0	1.509085464E1	-7.446252823E0
1.646820114E0	-1.161252499E0	9.798348427E0	-6.125904083E0
1.654990076E0	-3.468654156E-1	4.706180573E0	-4.344945431E0
1.663021114E0	6.715509892E-1	1.032251358E0	-2.571023464E0
1.670690268E0	8.927731514E-1	-8.437175751E-1	-1.521385670E0
1.677590212E0	8.732683659E-1	-1.997366428E0	-7.446591854E-1
1.679202691E0	8.493263721E-1	-2.445081711E0	-3.376448154E-1
1.687362730E0	8.441717625E-1	-3.164822102E0	5.231850147E-1
1.695628422E0	7.379555702E-1	-3.410420895E0	1.206557274E0
1.703541807E0	6.093459129E-1	-2.960742474E0	1.581348419E0
1.711511307E0	6.395218372E-1	-2.150867939E0	1.577192783E0
1.719766922E0	7.279102802E-1	-1.391836643E0	1.235925198E0
1.728540328E0	8.066940308E-1	-9.041304588E-1	5.499854088E-1
1.736009922E0	9.086730480E-1	-5.564761162E-1	-3.490381241E-1
1.744024153E0	9.663352966E-1	-3.742265701E-1	-1.138530374E0
1.751809999E0	8.884594440E-1	-2.750110626E-1	-1.726302147E0
1.760346460E0	9.518034458E-1	-1.508426666E-1	-2.201857805E0
1.768581960E0	5.937190056E-1	-7.636356354E-2	-2.291870832E0
1.776986037E0	2.357525826E-1	-2.598190308E-2	-1.998586655E0
1.784717653E0	9.781074524E-2	2.098178864E-2	-1.539590955E0
1.792621191E0	1.126222610E-1	3.163337708E-3	-1.039251447E0
1.800871730E0	8.666419983E-2	1.718521118E-3	-5.241460800E-1
1.808984960E0	-9.535741806E-2	-4.740238190E-2	-1.622939110E-2
1.817180153E0	-2.381896973E-1	-8.497714996E-2	2.888052464E-1
1.825227576E0	-2.190232277E-1	-8.385753632E-2	3.547613621E-1
1.832935653E0	2.048882484E0	-4.151754379E-1	4.575681686E-1
1.841479999E0	7.656111717E-1	-1.421890259E-1	3.228716850E-1
1.849550114E0	7.208094597E-1	-1.413412094E-1	-2.215170860E-2
1.857804653E0	-8.837258816E-1	-9.605407715E-3	2.007346153E-1
1.865767037E0	-9.981768131E-1	1.736297607E-1	6.676199436E-1
1.873748306E0	-8.276801109E-1	-1.017074585E-1	2.693371773E-1
1.881977383E0	-1.550508738E0	-2.226121426E0	8.628375530E-1
1.890070383E0	-5.589158535E-1	-3.557358742E0	1.332494974E0
1.898267729E0	1.262304783E0	-2.552791595E0	2.367587090E-1
1.906300537E0	2.390404224E0	-3.666005135E-1	-1.132485628E0
1.914073729E0	1.224049568E0	5.965375900E-1	-9.715851545E-1
1.922596960E0	5.374431610E-2	3.239154816E-1	-4.294676781E-1
1.930723922E0	4.723291397E-1	1.754922867E-1	-2.087459564E-1
1.938991345E0	1.136037350E0	6.318664551E-2	-5.138421059E-1
1.946981153E0	9.058604240E-1	-1.441974640E-1	-6.264834404E-1
1.954843153E0	3.173255920E-1	-4.825844765E-1	-6.482300758E-1
1.963134845E0	7.227993011E-2	-5.324912071E-1	-3.627648354E-1
1.971255576E0	1.399578571E0	-4.263114929E-2	-1.440062523E-1
1.979503306E0	1.075748444E0	3.300666809E-2	3.341169357E-1
1.987458383E0	1.391979218E0	1.171360016E-1	7.434668541E-1
1.995220652E0	1.622681618E0	2.027482986E-1	1.011289358E0
2.003844922E0	9.160490036E-1	2.072372437E-1	8.514523506E-1
2.011945460E0	1.292514801E-1	1.481752396E-1	4.402935505E-1
2.020095806E0	8.663415909E-2	5.515861511E-2	2.948894501E-1
2.028122576E0	-2.823452950E-1	-2.418665886E-1	2.967381477E-1
2.035949576E0	-5.648379326E-1	-3.902087212E-1	-3.317124844E-1
2.044291460E0	-3.818635941E-1	-6.667795181E-1	-7.090823650E-1
2.052409768E0	-1.643185616E-1	-8.644733429E-1	-8.127290010E-1
2.060616422E0	1.479625702E-1	-9.073767662E-1	-7.251672745E-1
2.068630922E0	7.774114609E-2	-8.419547081E-1	-4.798588753E-1
2.075135211E0	1.671862602E-1	-6.452112198E-1	-1.788637638E-1
2.076404806E0	1.576094627E-1	-6.236634254E-1	-7.112455368E-2
2.084967883E0	3.176612854E-1	-3.537316322E-1	1.449236870E-1
2.093028268E0	4.822425842E-1	3.988561630E-1	2.310950756E-1
2.101286652E0	1.879134178E-1	6.689720154E-1	3.703255653E-1
2.109231037E0	-1.249423027E-1	5.582227707E-1	3.630523682E-1
2.117114537E0	1.894974709E-1	9.240255356E-1	2.669305801E-1
2.125504499E0	4.548459053E-1	1.211197853E0	1.961424351E-1
2.133571960E0	-9.119606018E-2	1.062783241E0	3.137726784E-1
2.141796075E0	-3.677668571E-1	1.023906708E0	2.011022568E-1
2.149786768E0	-2.580671310E-1	1.147010803E0	6.107521057E-2
2.157551037E0	6.492233276E-2	1.120576859E0	3.459095955E-2
2.166813518E0	4.513392448E-1	8.389000893E-1	6.107783318E-2
2.174174345E0	2.813863754E-2	6.465873718E-1	-2.243623734E-1
2.182427037E0	-2.046074867E-1	2.019920349E-1	-4.848029613E-1
2.190412498E0	-1.700032473E0	-3.044176102E-2	-6.638643742E-1
2.198296114E0	-9.851565361E-1	1.304855347E-1	-1.924192905E-1
2.206648460E0	1.830253601E-1	-3.125667572E-2	1.759247780E-1
2.214757806E0	6.080989838E-1	2.981519699E-1	7.184767723E-2
2.223006652E0	-5.527782440E-1	8.102426529E-1	4.658899307E-1
2.231078114E0	-1.426496506E0	8.020162582E-1	6.794459820E-1
2.238683498E0	-1.195353270E0	6.503868103E-1	8.112075329E-1
2.247216998E0	-1.211218834E-1	-1.397824287E-1	9.392893314E-1
2.255343345E0	5.158529282E-1	-1.210730076E0	8.244571686E-1
2.263522652E0	7.004270554E-1	-1.598327637E0	8.783984184E-1
2.271542998E0	6.488981247E-1	-1.574467659E0	8.094112873E-1
2.279431268E0	8.948326111E-2	-1.476898193E0	2.065241337E-1
2.287782345E0	-1.739253998E-1	-1.133456230E0	-3.208222389E-1
2.295898152E0	-7.425260544E-2	-9.133553505E-1	-8.972791433E-1
2.304086345E0	3.389792442E-1	-8.837780952E-1	-1.242488027E0
2.312075498E0	6.490402222E-1	-3.509111404E-1	-1.568361998E0
2.319850652E0	7.680282593E-1	1.071512222E0	-1.845392227E0
2.328373768E0	-2.172708511E-1	1.976164818E0	-1.829562902E0
2.336465729E0	-8.614401817E-1	2.249094009E0	-1.393709421E0
2.344706691E0	-8.796687126E-1	2.082607269E0	-9.148211479E-1
2.352675037E0	-8.004183769E-1	1.878007889E0	-6.718754768E-1
2.360540268E0	-9.282333851E-1	1.622386932E0	-7.205306292E-1
2.368889114E0	-1.582876921E0	1.068665504E0	-1.087112188E0
2.376987306E0	-1.314080000E0	5.662326813E-1	-1.319625139E0
2.385179960E0	-8.478629589E-1	8.412265778E-2	-1.618410587E0
2.393209921E0	-8.276751041E-1	-1.810932159E-1	-1.096358776E0
2.400967652E0	-8.395178318E-1	-1.854085922E-1	1.092698574E-1
2.409498921E0	-7.847187519E-1	4.627513885E-2	1.681718826E0
2.417615306E0	-7.311029434E-1	2.703800201E-1	2.805825233E0
2.425802883E0	9.431886673E-2	7.090349197E-1	3.275539875E0
2.433821806E0	1.275067329E-1	6.192684174E-1	2.819900990E0
2.441689268E0	4.238700867E-1	3.616132736E-1	1.802848577E0
2.450022768E0	2.041535378E-1	-4.331107140E-1	-1.309287548E-1
2.458181268E0	1.823109627E0	-4.399938583E-1	-1.388893127E-1
2.466349498E0	2.375174046E0	-1.172399521E-1	-8.163633347E-1
2.474324344E0	1.789023876E0	-1.649951935E-2	-1.233261347E0
2.482187460E0	1.364427090E0	-1.949973106E-1	-1.529583693E0
2.490553268E0	6.215338707E-1	-1.514682770E-1	-1.317716360E0
2.498639691E0	3.206806183E-1	-5.131053925E-2	-1.054347634E0
2.506939960E0	4.151244164E-1	-5.067253113E-2	-5.105483532E-1
2.514923806E0	5.148620605E-1	-1.052021980E-1	-5.480551720E-2
2.522779114E0	4.165577888E-1	-2.233953476E-1	1.827139854E-1
2.531081960E0	2.845315933E-1	-4.929037094E-1	4.063589573E-1
2.539207344E0	2.653250694E-1	-7.169466019E-1	5.398817062E-1
2.547354460E0	2.423148155E-1	-9.017782211E-1	6.078629494E-1
2.555381152E0	3.511371613E-1	-1.002264023E0	6.472113132E-1
2.563166883E0	2.855472565E-1	-9.390730858E-1	6.640582085E-1
2.571758498E0	2.399501801E-1	-8.202686310E-1	6.994848251E-1
2.579748998E0	1.203250885E-1	-7.299399376E-1	6.407883167E-1
2.587965191E0	1.879823208E0	-1.319777012E0	-4.176762581E0
2.595933267E0	-3.216485977E-1	-1.435632229E0	2.862837315E-1
2.603922037E0	-7.586565018E-1	-1.102402687E0	2.601937056E0
2.612218883E0	2.100173473E0	-8.853168488E-1	6.798751354E-1
2.620280652E0	1.902973652E0	-1.440073967E0	-3.154201508E-1
2.628580614E0	1.740282059E0	-1.625613689E0	1.193568945E0
2.636536767E0	2.232136250E0	-1.666499138E0	1.626467943E0
2.644274152E0	7.264337540E-1	-9.687438011E-1	2.501062870E0
2.652804421E0	-1.853661537E-1	-2.391152382E-1	2.841533422E0
2.660955921E0	-8.018183708E-1	3.451862335E-1	2.607462645E0
2.669115190E0	-1.617407799E-1	3.470067978E-1	1.869331360E0
2.677101306E0	1.171441555E0	-3.159523010E-1	1.247983694E0
2.685065383E0	1.419663429E0	-7.666187286E-1	9.479072094E-1
2.693326729E0	-5.764818192E-2	-1.153738976E0	-1.135356426E-1
2.701481460E0	-3.235503674E0	-1.844609261E0	-1.343068600E0
2.709630306E0	-8.225862503E0	-7.931089401E-1	6.850748062E-1
2.717610190E0	2.079787254E-1	-1.257040024E0	1.403627157E0
2.725399113E0	2.374509811E0	-1.480865002E0	1.272586346E0
2.733962844E0	4.922175407E-1	-1.722288132E0	8.327324390E-1
2.742019921E0	1.088544369E0	-6.086530685E-1	1.474155903E0
2.750206575E0	4.387982368E0	7.730484009E-3	1.706050158E0
2.758253344E0	1.698519707E0	5.117712021E-1	1.168026447E0
2.766116575E0	2.105689049E0	1.464540482E0	7.966644764E-1
2.774455037E0	2.493824959E-1	9.968190193E-1	3.624434471E-1
2.782565190E0	1.437592506E-1	2.772603035E-1	-6.020975113E-2
2.790771113E0	-3.330211878E0	-1.902956963E0	-1.896789074E-1
2.798782037E0	-1.595163345E-1	-2.472150803E0	-4.276676178E-1
2.806547960E0	-5.688972473E-1	-2.401701450E0	-3.618817329E-1
2.815078806E0	2.762165546E0	-1.118974209E0	-8.621215820E-3
2.823164690E0	1.131349087E0	-7.221426964E-1	4.807927608E-1
2.831409844E0	-3.589053154E0	-8.230757713E-1	1.000971794E-1
2.839354113E0	-6.651320457E-1	8.507471085E-1	5.480480194E-1
2.847148960E0	-3.518619537E-1	1.263885498E0	1.538369894E0
2.855677806E0	2.360768318E-1	1.078843117E0	1.636099577E0
2.863770460E0	2.560810089E0	1.232952595E0	1.272488832E0
2.871963536E0	1.236714649E1	3.413097858E0	7.490377426E-1
2.879999190E0	6.345736027E0	4.652856827E0	1.474956512E0
2.887750844E0	-6.298197269E0	3.047497749E0	2.722804546E-1
2.896281767E0	-3.248489380E0	2.702085018E0	-3.325287104E-1
2.904380998E0	-4.824762344E-1	1.780895233E0	-1.384906769E-1
2.912613229E0	-1.855334997E0	2.703323364E-1	-4.425740242E-2
2.920597036E0	-2.722134352E0	-9.704465866E-1	1.934180260E-1
2.928412421E0	-2.836302042E0	-2.371807575E0	2.216608524E-1
2.936790306E0	-2.610804558E0	-3.303841114E0	3.412733078E-1
2.944882729E0	-1.245677471E0	-2.303618908E0	1.109534740E0
2.953112575E0	-1.787806988E0	-1.608748913E0	9.762966633E-1
2.961085959E0	-1.845020533E0	-1.439330578E0	9.522790909E-1
2.968862844E0	-2.020189524E0	-1.613299847E0	9.268186092E-1
2.977426498E0	-1.992637873E0	-1.700099468E0	8.694589138E-1
2.985473613E0	-2.260094166E0	-1.665177822E0	9.202051163E-1
2.993686459E0	-2.143458128E0	-1.374421120E0	9.517011642E-1
3.001706113E0	-2.516420126E0	-1.048789024E0	9.466922283E-1
3.009493536E0	-2.727126360E0	-7.711019516E-1	6.747202873E-1
3.017951113E0	-2.554763794E0	-4.431104660E-1	5.619268417E-1
3.025995075E0	-1.725379944E0	2.154827118E-2	5.054950714E-1
3.034167344E0	-9.451031685E-1	5.151543617E-1	6.615731716E-1
3.042279075E0	-3.203625679E-1	8.421645164E-1	1.030218601E0
3.049947113E0	2.112474442E-1	1.061818600E0	1.415820360E0
3.058487652E0	6.327743530E-1	1.305181980E0	1.743353128E0
3.066562075E0	8.791103363E-1	1.383438110E0	1.789737940E0
3.074806344E0	6.235580444E-1	1.191451073E0	1.783982992E0
3.082772113E0	8.626136780E-1	7.309951782E-1	1.320174217E0
3.090550075E0	2.999377251E-1	7.487773895E-2	1.000837803E0
3.098995729E0	5.234651566E-1	-7.006545067E-1	3.352763653E-1
3.107044113E0	1.115069389E-1	-1.095214367E0	-5.188262463E-1
3.115237882E0	-4.854035378E-1	-1.175976753E0	-2.776830196E-1
3.123290729E0	-6.124281883E-1	-1.132491112E0	-4.091262817E-2
3.131078498E0	-4.964900017E-1	-1.133583069E0	-1.455006599E-1
3.139739498E0	-1.413702965E-1	-1.083833218E0	-2.956175804E-1
3.147783152E0	-1.097579002E-1	-9.408278465E-1	-3.527731895E-1
3.155961652E0	9.807109833E-3	-8.208060265E-1	-2.669985294E-1
3.163889767E0	-4.820775986E-2	-6.866011620E-1	-1.113941669E-1
3.171847998E0	-1.014137268E-2	-5.583114624E-1	6.970334053E-2
3.180135921E0	6.785154343E-2	-4.504489899E-1	1.863780022E-1
3.188235536E0	1.644177437E-1	-3.836169243E-1	2.137823105E-1
3.196452305E0	4.684667587E-1	-3.842620850E-1	2.042219639E-1
3.204442652E0	1.044287205E0	-3.539919853E-1	-1.570057869E-1
3.212194075E0	2.071538925E0	-2.870054245E-1	-6.460285187E-1
3.220739998E0	1.943577290E0	-3.803248405E-1	-8.087346554E-1
3.228820921E0	1.199290276E0	-5.665092468E-1	-7.700328827E-1
3.237040075E0	-7.270112038E-1	-1.085062027E0	1.714015007E-1
3.245164767E0	-1.759586811E0	-1.355088234E0	9.256157875E-1
3.253144767E0	-1.930168867E0	-1.596841335E0	1.180768013E0
3.262000822E0	-1.196176529E0	-2.004576683E0	1.184555531E0
3.269413305E0	-2.579870224E-1	-2.162246704E0	9.957075119E-1
3.277747382E0	5.575819016E-1	-1.917603016E0	8.289766312E-1
3.285633613E0	1.122165680E0	-1.100696087E0	6.555504799E-1
3.292073168E0	9.530348778E-1	-8.143219948E-1	5.972166061E-1
3.293371075E0	6.561541557E-1	-7.831974030E-1	5.852456093E-1
3.301871382E0	-1.835106611E0	-1.376177311E0	1.347729921E0
3.309959113E0	-2.181977034E0	-2.194530487E0	1.804216623E0
3.318202652E0	-2.245955467E-1	-1.241464615E0	6.045544147E-1
3.326140882E0	8.308124542E-1	-7.671561241E-1	7.715868950E-2
3.334084613E0	-9.290223122E-1	-1.090604782E0	2.862114906E-1
3.342436536E0	-1.437361717E0	-1.195225239E0	4.032254219E-2
3.350531998E0	1.587773800E0	-1.295900345E0	8.664205074E-1
3.358715267E0	3.285182476E0	-1.277704239E0	1.055994034E0
3.366741382E0	2.403966427E0	-1.140762806E0	1.020985365E0
3.374525651E0	9.662194252E-1	-8.120203018E-1	5.493206978E-1
3.383042459E0	1.829615593E0	-4.169058800E-1	1.036643267E0
3.391161844E0	2.640206814E0	-1.696572304E-1	1.483792782E0
3.399351344E0	2.763902664E0	-7.175302505E-2	1.325823188E0
3.407376882E0	2.795891285E0	9.070491791E-2	1.242327690E0
3.415304921E0	2.499185085E0	3.713517189E-1	1.376744628E0
3.423594382E0	2.302356243E0	6.941967010E-1	1.547161937E0
3.431671036E0	2.233301640E0	1.159289837E0	1.443890691E0
3.439917536E0	2.254055500E0	1.727586746E0	7.387895584E-1
3.447873267E0	2.056206703E0	2.164223671E0	5.791330338E-2
3.455654998E0	2.037874222E0	2.596144199E0	-6.028258801E-2
3.464275459E0	2.017848015E0	2.828847408E0	2.272412777E-1
3.472293151E0	1.598742962E0	2.654276371E0	6.965707541E-1
3.480505882E0	-1.327662468E-1	1.850678444E0	5.699446201E-1
3.488507574E0	-2.023583174E0	8.945050240E-1	1.267647147E-1
3.496424459E0	-3.230575562E0	5.017757416E-2	-1.530901790E-1
3.504808651E0	-3.713857174E0	-7.656192780E-1	-2.963527441E-1
3.512876767E0	-3.646511555E0	-1.192853451E0	-4.821079373E-1
3.521067959E0	-3.471678019E0	-1.359888077E0	-7.157299519E-1
3.529088767E0	-3.164391518E0	-1.116621971E0	-1.088340282E0
3.536861651E0	-2.888377428E0	-6.579146385E-1	-1.518756628E0
3.545393344E0	-2.418078184E0	-7.721233368E-2	-1.939772725E0
3.553462267E0	-2.065416813E0	4.569740295E-1	-2.252007484E0
3.561687267E0	-1.810960531E0	7.523565292E-1	-2.539034128E0
3.569672728E0	-1.499072552E0	8.303661346E-1	-2.763495922E0
3.577628651E0	-1.097602367E0	6.213350296E-1	-3.023779869E0
3.585961421E0	-4.113936424E-1	4.238929749E-1	-2.916897774E0
3.594064613E0	1.692891121E-1	2.582120895E-1	-2.530077934E0
3.602183690E0	1.030338287E0	1.344518661E-1	-1.981304407E0
3.610207074E0	1.748392582E0	-4.279327393E-2	-1.337702274E0
3.617983382E0	2.467370510E0	-1.735563278E-1	-9.312480092E-1
3.626530036E0	2.742750645E0	-1.747331619E-1	-7.001529932E-1
3.634732882E0	2.477123737E0	-2.418270111E-1	-4.731268585E-1
3.642953113E0	2.528002739E0	-2.331104279E-1	-1.506731987E0
3.650807959E0	2.706325531E0	1.290512085E-2	-1.125242949E0
3.658780728E0	2.817029953E0	4.193029404E-1	-3.508250952E0
3.667042382E0	1.764746189E0	3.351116180E-1	-3.531402349E0
3.675224728E0	2.294206142E0	-2.399702072E-1	9.454216957E-1
3.683339228E0	2.019506454E0	-9.602513313E-1	3.962822437E0
3.691334959E0	2.961116314E0	-1.963960648E0	3.492345333E0
3.699063536E0	2.410280704E0	-2.024987221E0	2.400449514E0
3.707611420E0	2.035302639E0	-1.907721043E0	7.997386456E-1
3.715713113E0	1.294578552E0	-1.493875504E0	4.577592015E-2
3.723880882E0	2.708415985E-1	-9.418931007E-1	-3.862649202E-2
3.731932882E0	-1.126890182E-1	-5.363545418E-1	3.257840872E-1
3.739846344E0	-5.113458633E-2	-3.495521545E-1	7.455853820E-1
3.748164151E0	-6.944704056E-2	-9.149646759E-2	9.461552501E-1
3.756264420E0	-7.027673721E-2	-1.679553986E-1	1.109980464E0
3.764461151E0	-1.106729507E0	4.238157272E-1	2.910732329E-1
3.772518844E0	-1.054057121E0	5.446825027E-1	-8.935318887E-2
3.780263728E0	-7.254776955E-1	4.282836914E-1	-3.377708793E-1
3.788802344E0	-5.781059265E-1	3.321304321E-1	-3.627406359E-1
3.796921805E0	-5.832438469E-1	4.661397934E-1	-6.992164254E-1
3.805114151E0	-1.064583302E0	1.024083138E0	-1.397622466E0
3.813060690E0	-6.388096809E-1	9.880084991E-1	-1.313179255E0
3.821056574E0	-5.001740456E-1	9.850502014E-1	-9.727543592E-1
3.829360074E0	-5.839476585E-1	9.179239273E-1	-6.047535539E-1
3.837398805E0	-9.913396835E-1	1.277850151E0	-5.224068165E-1
3.845586190E0	-1.284951210E0	1.430785179E0	-2.615770698E-1
3.853620613E0	-1.122751713E0	1.300866127E0	-2.473068237E-2
3.861407536E0	-4.427995682E-1	9.208269119E-1	3.587415814E-2
3.878047651E0	1.711697578E-1	4.936504364E-2	3.384305239E-1
3.886209074E0	2.727012634E-1	1.368341446E-1	-1.713803411E-1
3.894241805E0	3.689723015E-1	1.640739441E-1	-7.001144886E-1
3.902179228E0	4.846024513E-1	1.519804001E-1	-7.911955118E-1
3.910467882E0	1.961946487E-1	7.989025116E-2	-5.942320824E-1
3.918598843E0	3.366770744E-1	-4.099178314E-2	-3.588795066E-1
3.926744613E0	7.263855934E-1	-1.506500244E-1	-1.495955884E-1
3.934731074E0	5.997457504E-1	-3.284358978E-2	-1.149749756E-2
3.942512574E0	3.196768761E-1	3.881645203E-2	2.068161964E-3
3.951025497E0	-2.805767059E-1	2.483024597E-1	-1.361773908E-1
3.959136805E0	-3.028745651E-1	2.722158432E-1	-2.388710976E-1
3.967338959E0	-4.528574944E-1	1.207933426E-1	-2.426171303E-1
3.975351997E0	-9.740729332E-1	6.383800507E-2	-2.778998315E-1
3.983359574E0	-1.346484900E0	1.150751114E-1	-3.406741619E-1
3.991658228E0	-1.295083284E0	-3.148555756E-2	-2.055497468E-1
3.999673997E0	-1.344195604E0	-3.445243835E-2	-1.448704004E-1
4.007865574E0	-1.420087814E0	3.095817566E-2	-1.463635266E-1
4.015856151E0	-1.358828545E0	1.583414078E-1	-2.567424178E-1
4.023626036E0	-1.198621511E0	2.350816727E-1	-4.349911809E-1
4.032219420E0	-1.002156019E0	2.299518585E-1	-5.157782435E-1
4.040295766E0	-4.183840752E-1	3.482751846E-1	-6.288596988E-1
4.048464766E0	7.508182526E-2	3.665666580E-1	-6.176155210E-1
4.056443420E0	5.108232498E-1	2.781600952E-1	-6.129552722E-1
4.064376689E0	9.756951332E-1	1.484899521E-1	-8.080434203E-1
4.072657266E0	1.653816223E0	-6.926536560E-3	-9.734514356E-1
4.080855151E0	2.065646648E0	-1.569137573E-1	-1.041503429E0
4.088965959E0	2.348924160E0	-2.671890259E-1	-1.012024879E0
4.097007036E0	2.633129120E0	-3.889904022E-1	-9.342863560E-1
4.104750843E0	2.838173866E0	-5.967836380E-1	-8.155289888E-1
4.113382382E0	2.890410423E0	-8.843502998E-1	-7.360079288E-1
4.121406305E0	2.971323967E0	-1.283774376E0	-5.902149677E-1
4.129673228E0	2.625941277E0	-1.677395344E0	-4.094501436E-1
4.137670343E0	2.568811893E0	-1.961585999E0	-4.094012976E-1
4.145707036E0	2.394248962E0	-2.074356556E0	-6.678780317E-1
4.153844112E0	2.207026958E0	-1.986089230E0	-1.085555315E0
4.161993420E0	1.858415127E0	-1.710531235E0	-1.443861008E0
4.170141766E0	1.604179382E0	-1.369576454E0	-1.590403795E0
4.178156728E0	1.266099930E0	-1.062416553E0	-1.579002857E0
4.185890343E0	9.185352325E-1	-8.004994392E-1	-1.342030048E0
4.194429497E0	6.104259491E-1	-5.613698959E-1	-9.327477813E-1
4.202545882E0	3.107762337E-1	-3.011636734E-1	-5.382114053E-1
4.210855959E0	-8.856201172E-2	1.058177948E-1	-7.406151295E-2
4.218821074E0	-5.378241539E-1	4.651107788E-1	5.422216058E-1
4.226653805E0	-1.023232937E0	8.289718628E-1	1.161141992E0
4.234947843E0	-2.254970551E0	9.179878235E-1	1.952508092E0
4.243109997E0	-1.628694773E0	1.134665489E0	2.309240818E0
4.251341035E0	-1.331296921E0	1.298932076E0	2.447421312E0
4.259256074E0	-1.168838024E0	1.346455574E0	2.387698174E0
4.267035535E0	-8.238554001E-1	1.409181595E0	1.853088140E0
4.275541574E0	-6.810693741E-1	1.407672882E0	1.299913883E0
4.283665035E0	-9.493474960E-1	1.478797913E0	1.190730810E0
4.291878189E0	-1.093766689E0	1.554967880E0	8.604672551E-1
4.299841151E0	-1.516938210E0	1.682592392E0	4.271295071E-1
4.307769535E0	-1.818934679E0	1.803705215E0	-1.094131470E-1
4.316204420E0	-1.658728838E0	1.992797852E0	-4.226145148E-1
4.324183420E0	-1.808530331E0	1.980571747E0	-6.370805502E-1
4.332423805E0	-1.971031189E0	1.922173500E0	-8.401405811E-1
4.340410651E0	-2.075481653E0	1.607290268E0	-8.348901272E-1
4.348169035E0	-2.006817579E0	1.182895660E0	-7.293411493E-1
4.356737420E0	-1.858583927E0	3.551340103E-1	-3.774777949E-1
4.364837112E0	-1.867474556E0	-4.925031662E-1	-7.199193537E-2
4.373009997E0	-1.901316166E0	-1.250642300E0	1.269252002E-1
4.381029420E0	-1.662988901E0	-1.884481907E0	3.821797669E-1
4.388948728E0	-1.236564875E0	-1.699681759E0	8.690061569E-1
4.397268997E0	-9.245443344E-1	-1.031468391E0	1.626492143E0
4.405404689E0	-6.408467293E-1	-2.145166397E-1	2.729594707E0
4.413561612E0	-5.552906990E-1	4.653606415E-1	3.616955280E0
4.421545766E0	-7.080264091E-1	1.168992996E0	3.991364002E0
4.429400958E0	-6.434102058E-1	1.832436562E0	3.960399866E0
4.437979266E0	-4.452004433E-1	2.532413483E0	3.580269337E0
4.445952574E0	-2.623281479E-1	3.045478821E0	3.049096107E0
4.454180228E0	-7.521071434E-1	3.360829353E0	2.677084208E0
4.462192497E0	-3.418469429E-1	3.526826859E0	2.362406254E0
4.470012958E0	2.181034088E-1	3.323550224E0	2.058203697E0
4.478430420E0	2.969331741E-1	2.744288445E0	1.708805799E0
4.486521343E0	-1.168322563E-1	1.754602432E0	1.625393152E0
4.494750305E0	-6.394667625E-1	7.187843323E-1	1.690660715E0
4.502749920E0	-1.039970875E0	-7.128810883E-2	2.059750319E0
4.510605266E0	-1.484064102E0	-8.224825859E-1	2.449574232E0
4.519060381E0	-1.772676229E0	-1.543733120E0	2.692196846E0
4.527063228E0	-2.129355669E0	-2.165808678E0	2.671492577E0
4.535288343E0	-1.847349644E0	-2.693070889E0	2.820252180E0
4.543338420E0	-1.096308231E0	-2.651046753E0	2.349462271E0
4.551146151E0	-5.866761208E-1	-2.504995346E0	2.452798367E0
4.559524728E0	1.106262207E-3	-2.039359570E0	2.423465014E0
4.567601343E0	7.621612549E-1	-1.884179115E0	2.223001480E0
4.575801843E0	1.115845680E0	-1.843519211E0	1.408388734E0
4.583827035E0	1.339104652E0	-1.718016148E0	7.849401236E-1
4.591592997E0	1.204762936E0	-1.957627296E0	1.358721495E0
4.600132112E0	1.910598278E0	-2.546586037E0	2.270704269E0
4.608823151E0	2.860693455E0	-2.803125858E0	2.610639572E0
4.616472112E0	3.438727856E0	-3.268680096E0	3.075120449E0
4.624495843E0	2.966935635E0	-3.331174374E0	3.090658188E0
4.632322343E0	1.578550339E0	-3.153974533E0	1.863067985E0
4.640692458E0	-5.364165306E-1	-2.430512428E0	-9.750247002E-2
4.648794189E0	-1.557131767E0	-1.676004410E0	-1.360475421E0
4.657028958E0	-1.969119549E0	-1.076431751E0	-1.798397660E0
4.664967112E0	-2.147521734E0	-5.907039642E-1	-1.746797085E0
4.672741497E0	-2.288058996E0	-2.997741699E-1	-1.242976189E0
4.681358420E0	-2.327352285E0	-1.917638779E-1	-4.366560578E-1
4.689391881E0	-2.540176868E0	1.164913177E-1	7.368775606E-1
4.697554074E0	-2.178568363E0	4.474048615E-1	1.695343256E0
4.705613266E0	-1.962471247E0	8.068513870E-1	2.035075665E0
4.713518689E0	-1.919794321E0	1.125915527E0	1.832062364E0
4.721861881E0	-1.758586884E0	1.315474510E0	1.516466737E0
4.730035651E0	-2.009868145E0	1.403120041E0	1.029294133E0
4.738110227E0	-2.280184984E0	1.574204445E0	5.822387934E-1
4.746161381E0	-2.804347754E0	1.503840446E0	4.694381952E-1
4.754041074E0	-3.126983881E0	1.142681122E0	5.929664373E-1
4.762445804E0	-2.464735270E0	8.693790436E-1	5.121326447E-1
4.770583112E0	-1.423164606E0	8.754606247E-1	2.941721678E-1
4.778778804E0	-7.908287048E-1	9.785213470E-1	4.096276760E-1
4.786753497E0	-9.205067158E-1	9.848051071E-1	4.268771410E-2
4.794546458E0	-1.113227367E0	9.930791855E-1	-3.698989749E-1
4.803039074E0	-1.233181238E0	9.019832611E-1	-5.780632496E-1
4.811124881E0	-1.110200644E0	7.159261703E-1	-6.801530123E-1
4.819241727E0	-9.572277069E-1	4.648675919E-1	-7.143691778E-1
4.827252766E0	-9.126884937E-1	2.826614380E-1	-7.135627270E-1
4.835064381E0	-8.265719414E-1	1.124248505E-1	-5.570298433E-1
4.843607727E0	-6.040992737E-1	-4.636383057E-2	-1.622694135E-1
4.851660612E0	-4.096281528E-1	-1.581001282E-2	4.103074670E-1
4.859848766E0	-2.629745007E-1	1.877918243E-1	5.642988086E-1
4.867982881E0	-4.753668308E-1	3.429965973E-1	6.534925103E-1
4.875759035E0	-6.057701111E-1	6.477441788E-1	7.855987549E-1
4.884094420E0	-4.494745731E-1	7.847557068E-1	1.210681200E0
4.892273766E0	-3.865520954E-1	6.780881882E-1	1.689890862E0
4.900399112E0	4.003963470E-1	7.274255753E-1	9.044339657E-1
4.908391112E0	3.562467098E-1	8.200178146E-1	4.014746547E-1
4.916162920E0	-1.543915272E-1	7.845239639E-1	-9.392696619E-2
4.924705035E0	-6.910252571E-1	6.345129013E-1	-2.444619536E-1
4.932859650E0	-8.552982807E-1	3.859224319E-1	-5.335164070E-2
4.941025266E0	-8.879125118E-1	1.437501907E-1	2.408436537E-1
4.949013381E0	-5.555336475E-1	3.084182739E-3	8.804634809E-1
4.956929458E0	1.699073315E-1	1.886987686E-1	1.254493356E0
4.965236150E0	1.224363565E0	9.080142975E-1	1.159481287E0
4.973331843E0	2.352075100E0	2.048004150E0	4.728200436E-1
4.981630650E0	3.141771317E0	3.134673119E0	-4.644043446E-1
4.989559150E0	3.152480364E0	3.020236015E0	-1.440623879E0
4.997376073E0	3.516136646E0	2.262984276E0	-1.786698103E0
5.005958920E0	4.082836151E0	1.340482712E0	-1.542938948E0
5.014236920E0	4.524720192E0	5.521726608E-1	-1.113691330E0
5.022377650E0	3.985843182E0	-8.065071106E-1	-1.075304985E0
5.030147112E0	3.095421553E0	-2.042434692E0	-9.961316586E-1
5.037957266E0	2.131619930E0	-2.890511036E0	-7.572413087E-1
5.046426420E0	1.563078880E0	-3.354471207E0	-4.134231210E-1
5.054499650E0	1.381534338E0	-3.613688469E0	-4.558378458E-2
5.062668189E0	1.338360071E0	-3.696376324E0	3.061327338E-1
5.070688881E0	1.575524569E0	-3.747848988E0	5.300139189E-1
5.078493881E0	2.033570766E0	-3.744871140E0	5.928972363E-1
5.087104458E0	2.600717068E0	-3.546828747E0	3.689312935E-1
5.095106727E0	3.018440723E0	-3.328538418E0	-7.052260637E-2
5.103355458E0	3.192245483E0	-2.980163097E0	-6.032966971E-1
5.111314881E0	2.968039036E0	-2.638765812E0	-1.136286259E0
5.119200304E0	3.156838417E0	-2.508418560E0	-1.437352180E0
5.127555227E0	3.497776031E0	-2.443781853E0	-1.566330433E0
5.135644381E0	3.407354355E0	-2.380702496E0	-1.628990054E0
5.143884650E0	3.035202980E0	-2.217350960E0	-1.531001687E0
5.151855689E0	2.668445587E0	-1.949571609E0	-1.328054667E0
5.159725343E0	2.513440609E0	-1.665415764E0	-1.135184407E0
5.168151419E0	2.387775898E0	-1.324028492E0	-9.297772646E-1
5.176231881E0	2.204595566E0	-9.462957382E-1	-7.104386687E-1
5.184429266E0	1.992693901E0	-5.366935730E-1	-4.873591661E-1
5.192476804E0	1.581478119E0	-1.128983498E-1	-3.015784025E-1
5.200346881E0	1.113778591E0	1.642580032E-1	-1.795940101E-1
5.208672766E0	7.413702011E-1	3.109488487E-1	-1.938467175E-1
5.216788496E0	4.278469086E-1	3.514280319E-1	-2.861572504E-1
5.225090650E0	8.268213272E-2	3.768610954E-1	-4.044309556E-1
5.233000150E0	-2.948307991E-1	4.142608643E-1	-5.286169648E-1
5.240864919E0	-6.435856819E-1	4.664955139E-1	-6.554729939E-1
5.249362612E0	-9.365944862E-1	5.351796150E-1	-7.153718472E-1
5.257453842E0	-1.146404266E0	6.196527481E-1	-7.521272302E-1
5.265648227E0	-1.324559212E0	7.499508858E-1	-7.314233780E-1
5.273612535E0	-1.443078995E0	8.882665634E-1	-6.712135077E-1
5.281441727E0	-1.497735977E0	9.848203659E-1	-5.735232830E-1
5.289838035E0	-1.641372204E0	1.188964844E0	-3.316710889E-1
5.297932612E0	-1.757056236E0	1.425452709E0	-1.222259551E-1
5.306085996E0	-1.796916008E0	1.608393192E0	-1.178032160E-2
5.314148573E0	-1.734833717E0	1.725111961E0	7.855147123E-3
5.321894265E0	-1.663906097E0	1.757531166E0	-4.096364975E-2
5.330416304E0	-1.507692337E0	1.609564304E0	-1.224309504E-1
5.338509112E0	-1.215294838E0	1.289483547E0	-9.846025705E-2
5.346824381E0	-9.096460342E-1	9.643287659E-1	-2.553045750E-3
5.354722304E0	-6.014070511E-1	6.740770340E-1	7.680761814E-2
5.362626573E0	-3.228039742E-1	4.272890091E-1	1.477387100E-1
5.371013535E0	-8.272504807E-2	1.755399704E-1	2.110520899E-1
5.379014612E0	1.176648140E-1	-6.293296814E-2	2.554489672E-1
5.387223112E0	2.818040848E-1	-2.603120804E-1	3.500978351E-1
5.395229612E0	4.710931778E-1	-4.657387733E-1	4.675249159E-1
5.402973573E0	1.559739113E-1	-6.030864716E-1	5.528861284E-1
5.411508150E0	7.718153000E-1	-8.034749031E-1	7.307457924E-1
5.419604304E0	1.469144344E0	-1.003808975E0	7.205873728E-1
5.427826112E0	1.692451000E0	-1.123003483E0	6.396061182E-1
5.435828458E0	1.495073795E0	-1.092572212E0	5.468369722E-1
5.443716227E0	1.356177807E0	-1.025117874E0	4.543055892E-1
5.452088688E0	1.422539234E0	-1.003984928E0	3.322629333E-1
5.460151727E0	1.534789562E0	-1.024768353E0	2.096388042E-1
5.468353958E0	1.538623810E0	-1.009997845E0	6.664831936E-2
5.476379804E0	1.457987785E0	-9.484705925E-1	-1.199187040E-1
5.484142881E0	1.325898170E0	-8.774223328E-1	-3.379009962E-1
5.492686073E0	1.194653511E0	-7.842998505E-1	-5.577510595E-1
5.500769842E0	1.020734787E0	-6.940832138E-1	-6.916028261E-1
5.509008112E0	7.619481087E-1	-6.017069817E-1	-7.685284019E-1
5.516927150E0	4.507288933E-1	-5.387659073E-1	-8.697769642E-1
5.524823919E0	1.355228424E-1	-4.561872482E-1	-8.836544752E-1
5.533164342E0	-1.623902321E-1	-4.347310066E-1	-8.320886493E-1
5.541262881E0	-3.483924866E-1	-4.341983795E-1	-6.942933798E-1
5.549455150E0	-4.186925888E-1	-4.641313553E-1	-4.924916029E-1
5.557509919E0	-4.291820526E-1	-3.899111748E-1	-3.008320034E-1
5.565268111E0	-4.713096619E-1	-2.399964333E-1	-1.587134153E-1
5.573774881E0	-5.193257332E-1	6.494808197E-2	-8.029644191E-2
5.581917150E0	-5.716156960E-1	3.417129517E-1	-3.859424591E-2
5.590099958E0	-7.127666473E-1	6.703848839E-1	2.341187745E-2
5.598196804E0	-8.405213356E-1	9.370937347E-1	9.299477190E-2
5.606010265E0	-9.612283707E-1	1.179511547E0	2.162377536E-1
5.614345381E0	-1.131072044E0	1.373705864E0	3.248629868E-1
5.622410496E0	-1.351134300E0	1.512114525E0	3.973589540E-1
5.630626419E0	-1.579163074E0	1.620058537E0	5.316999555E-1
5.638611727E0	-1.725967884E0	1.681948662E0	6.845983863E-1
5.646345842E0	-1.845940113E0	1.761633873E0	7.933191061E-1
5.655004458E0	-1.903014660E0	1.899394512E0	9.083092213E-1
5.662977919E0	-1.943061352E0	2.096259594E0	9.877200127E-1
5.671193034E0	-1.889804840E0	2.362456799E0	9.456205964E-1
5.679228534E0	-1.809247971E0	2.660759926E0	8.124530911E-1
5.687088958E0	-1.647753239E0	2.926423550E0	6.410112381E-1
5.695420073E0	-1.602234840E0	3.075781345E0	4.866836667E-1
5.703511458E0	-1.468960762E0	3.164004326E0	2.951737046E-1
5.711725765E0	-1.359839916E0	3.078464985E0	1.413353086E-1
5.719756534E0	-1.271647930E0	2.916757584E0	1.056134701E-1
5.727540919E0	-1.149609566E0	2.545026302E0	2.235669494E-1
5.736053188E0	-1.051700115E0	2.040419102E0	4.264510870E-1
5.744123688E0	-8.560490608E-1	1.585028172E0	6.190243959E-1
5.752389534E0	-7.424745560E-1	1.164874077E0	8.475141525E-1
5.760335150E0	-6.903538704E-1	7.735705376E-1	1.127964020E0
5.768185996E0	-6.041121483E-1	3.808808327E-1	1.330995083E0
5.776557804E0	-3.478040695E-1	1.988077164E-2	1.509884238E0
5.784653496E0	-2.754406929E-1	-2.171487808E-1	1.586799145E0
5.792844073E0	-3.027105331E-1	-4.430532455E-1	1.595364451E0
5.800859765E0	-2.647209167E-1	-6.609888077E-1	1.461557984E0
5.808605073E0	-1.842799187E-1	-1.191929340E0	7.513453960E-1
5.817159073E0	-2.149806023E-1	-1.993707180E0	-4.671489000E-1
5.825252188E0	-2.037429810E-1	-2.385787010E0	-8.392235041E-1
5.833506227E0	-5.496921539E-1	-2.211295128E0	-3.514027596E-2
5.841486611E0	-2.467694283E-1	-2.225686550E0	6.063817739E-1
5.849350534E0	2.027416229E-2	-2.345083714E0	7.929304838E-1
5.857662765E0	4.335632324E-1	-2.593297482E0	7.057161331E-1
5.865752842E0	2.622432709E-1	-2.400265694E0	5.465130806E-1
5.873966304E0	2.483892441E-1	-2.245635033E0	-2.231183052E-1
5.881928419E0	-1.638426781E-1	-1.951103210E0	5.890579224E-1
5.889709996E0	1.784477234E-1	-1.572674274E0	6.085983515E-1
5.898235727E0	1.335101604E0	-1.604754925E0	5.092411041E-1
5.906430188E0	1.300849915E0	-1.439987183E0	9.840098619E-1
5.914578534E0	1.567635536E-1	-7.483134270E-1	1.787943363E0
5.922645842E0	-3.246040344E-1	-3.487539291E-1	2.193230391E0
5.930374765E0	-2.104372978E-1	-3.751373291E-1	2.427223682E0
5.939054804E0	7.181167603E-4	-4.891395569E-1	2.372461081E0
5.947054957E0	-5.486106873E-2	-5.457582474E-1	2.151901722E0
5.955172419E0	-2.626485825E-1	-6.495318413E-1	1.876075745E0
5.963200842E0	-3.692245483E-1	-7.294554710E-1	1.647421122E0
5.970958111E0	-3.399600983E-1	-7.371697426E-1	1.438819647E0
5.979492419E0	-4.131360054E-1	-6.988887787E-1	1.071657419E0
5.987701188E0	-5.807991028E-1	-6.663699150E-1	7.643849850E-1
5.995790688E0	-8.562188148E-1	-8.808612823E-1	6.570088863E-1
6.003797227E0	-7.820858955E-1	-9.356412888E-1	5.442602634E-1
6.011587457E0	-5.620036125E-1	-9.161643982E-1	4.260392189E-1
6.019988573E0	-3.462901115E-1	-7.875332832E-1	2.982025146E-1
6.028100880E0	-2.985377312E-1	-5.271329880E-1	2.789187431E-1
6.036258227E0	-4.212999344E-1	-2.420368195E-1	3.133494854E-1
6.044318034E0	-4.806313515E-1	-4.123687744E-3	2.598211765E-1
6.052116573E0	-5.082793236E-1	1.552271843E-1	1.090269089E-1
6.060623996E0	-5.370831490E-1	3.624796867E-1	-2.803490162E-1
6.068720611E0	-5.919585228E-1	4.863309860E-1	-5.843818188E-1
6.076937380E0	-5.509209633E-1	6.527023315E-1	-8.781931400E-1
6.084963842E0	-6.074151993E-1	7.769560814E-1	-1.126518846E0
6.092851611E0	-7.686629295E-1	9.530506134E-1	-1.260351181E0
6.101100496E0	-9.441123009E-1	1.113828659E0	-1.304678917E0
6.109236457E0	-9.205594063E-1	1.250319481E0	-1.264168978E0
6.115665234E0	-8.347721100E-1	1.287280083E0	-1.206684589E0
6.117418842E0	-8.419547081E-1	1.299250603E0	-1.197107792E0
6.125381611E0	-8.240346909E-1	1.327379227E0	-9.531590939E-1
6.133134457E0	-7.535614967E-1	1.314685822E0	-5.999529958E-1
6.141680226E0	-5.073156357E-1	1.256009102E0	-2.073733807E-1
6.149795188E0	-2.504534721E-1	1.148903847E0	2.893400192E-2
6.157970842E0	-6.210231781E-2	1.063073158E0	2.436165810E-1
6.166045765E0	1.098299026E-1	9.936904907E-1	3.738852739E-1
6.173776919E0	2.699165344E-1	9.406347275E-1	3.849775791E-1
6.182276342E0	4.014396667E-1	8.687925339E-1	2.029391527E-1
6.190266073E0	4.292063713E-1	8.099422455E-1	-1.751043797E-1
6.198464765E0	3.570737839E-1	7.825794220E-1	-6.886337399E-1
6.206483688E0	3.665862083E-1	7.346010208E-1	-9.569460154E-1
6.214255265E0	4.075055122E-1	6.323757172E-1	-1.065894604E0
6.222769073E0	5.395884514E-1	4.660863876E-1	-1.183587074E0
6.230996457E0	5.937752724E-1	3.464984894E-1	-1.313300848E0
6.239143265E0	6.747431755E-1	1.515426636E-1	-1.467066407E0
6.247081149E0	5.823750496E-1	-3.698825836E-2	-1.565464854E0
6.255017226E0	4.477968216E-1	-2.444219589E-1	-1.574961185E0
6.263286765E0	4.121580124E-1	-4.125213623E-1	-1.493004560E0
6.271383573E0	4.227890968E-1	-5.863480568E-1	-1.312462807E0
6.279593419E0	5.467090607E-1	-8.914704323E-1	-1.010042906E0
6.287608842E0	7.164440155E-1	-1.156780243E0	-7.174175382E-1
6.295373957E0	8.916587830E-1	-1.370731831E0	-4.858328104E-1
6.303915803E0	1.044867992E0	-1.553866863E0	-2.738812566E-1
6.311982303E0	1.126256943E0	-1.571284771E0	-2.875908017E-1
6.320192919E0	1.167951584E0	-1.536065578E0	-4.196112454E-1
6.328241496E0	1.084887981E0	-1.454888821E0	-5.713388920E-1
6.336156419E0	8.813276291E-1	-1.295279980E0	-7.152987123E-1
6.344437765E0	5.572991371E-1	-9.975562096E-1	-8.261654377E-1
6.352551303E0	1.928186417E-1	-6.372351646E-1	-8.670108914E-1
6.360852034E0	-1.753268242E-1	-2.703428268E-1	-8.209599257E-1
6.368719496E0	-4.455904961E-1	9.829235077E-2	-7.551828623E-1
6.376465303E0	-6.347312927E-1	4.226245880E-1	-6.415987611E-1
6.385035342E0	-7.559971809E-1	7.155475616E-1	-5.430905819E-1
6.393095380E0	-8.067336082E-1	9.563503265E-1	-5.187736750E-1
6.401340111E0	-8.593006134E-1	1.157843590E0	-4.672537446E-1
6.409324457E0	-8.813018799E-1	1.223012924E0	-4.544775486E-1
6.417191880E0	-9.139342308E-1	1.203940392E0	-3.432137966E-1
6.425554919E0	-9.397258759E-1	1.071373940E0	-2.391045392E-1
6.433642034E0	-9.605593681E-1	8.356428146E-1	-1.781499088E-1
6.441850842E0	-9.772615433E-1	5.388326645E-1	-1.663430035E-1
6.449863803E0	-9.542694092E-1	1.949586868E-1	-1.555358469E-1
6.457606995E0	-9.490437508E-1	-1.615161896E-1	-1.014695466E-1
6.466143034E0	-9.538474083E-1	-5.076961517E-1	-4.089546204E-2
6.474315034E0	-1.003609657E0	-7.892432213E-1	5.130869150E-2
6.482503842E0	-1.086993217E0	-1.066991806E0	5.689007044E-2
6.490488765E0	-1.179308414E0	-1.216611862E0	-8.274269104E-2
6.498246765E0	-1.322079897E0	-1.331997395E0	-3.081995249E-1
6.506599418E0	-1.539211750E0	-1.479435444E0	-6.550529003E-1
6.514751995E0	-1.700256109E0	-1.677376747E0	-9.337168932E-1
6.522991803E0	-1.846579313E0	-1.929127693E0	-1.129733205E0
6.531094265E0	-2.011390209E0	-2.224866867E0	-1.358870387E0
6.538811765E0	-2.245139360E0	-2.607502460E0	-1.443194270E0
6.547224688E0	-2.418362617E0	-2.974154472E0	-1.416241288E0
6.555228149E0	-2.743715525E0	-3.332731724E0	-1.401015759E0
6.563475495E0	-3.239049196E0	-3.716295242E0	-1.374479294E0
6.571438688E0	-3.286904335E0	-3.884338379E0	-1.260337353E0
6.579264265E0	-3.438020229E0	-3.885309219E0	-1.336742878E0
6.587672072E0	-3.394936085E0	-3.661978722E0	-1.252653837E0
6.595740572E0	-3.174655676E0	-3.246850967E0	-1.194806576E0
6.604026995E0	-3.107183695E0	-2.753015518E0	-1.275114894E0
6.611920418E0	-3.024186611E0	-2.316666126E0	-1.281343937E0
6.619691495E0	-2.563897371E0	-2.139607906E0	-9.924275875E-1
6.628332341E0	-2.316856384E0	-2.091071606E0	-9.932007790E-1
6.636338572E0	-1.920959949E0	-1.847192287E0	-8.443386555E-1
6.644559034E0	-1.985295534E0	-1.490761757E0	-6.971554756E-1
6.652564841E0	-1.972854614E0	-1.176632404E0	-3.345289230E-1
6.660381765E0	-1.831631660E0	-7.340841293E-1	3.295183182E-3
6.668915034E0	-1.667274237E0	-5.824503899E-1	2.132058144E-1
6.676878765E0	-1.438122272E0	-9.235744476E-1	-2.716302872E-2
6.685078034E0	-1.130961418E0	-1.404149055E0	-6.721508503E-1
6.693139957E0	-7.933583260E-1	-1.651691437E0	-1.360161304E0
6.700952688E0	-3.975291252E-1	-1.669525623E0	-1.932697058E0
6.709403957E0	-5.144596100E-3	-1.282057285E0	-2.364785433E0
6.717492764E0	4.677934647E-1	-4.363379478E-1	-2.409376383E0
6.725723841E0	7.883110046E-1	7.904496193E-1	-2.260505676E0
6.733678995E0	1.275238037E0	2.023945332E0	-1.690792322E0
6.741537341E0	1.503088951E0	2.665527821E0	-9.410405159E-1
6.749908188E0	1.968773365E0	2.399798393E0	1.217646599E-1
6.758052726E0	2.273959637E0	1.346284866E0	7.802124023E-1
6.766211380E0	2.128683090E0	2.621207237E-1	1.053393841E0
6.774759880E0	2.304350376E0	-9.807648659E-1	1.116770267E0
6.781980418E0	2.151432514E0	-1.732104301E0	9.111866951E-1
6.790501111E0	1.602173805E0	-2.507883549E0	3.959364891E-1
6.798611072E0	1.319393635E0	-3.055459976E0	1.531438828E-1
6.806810764E0	1.231077194E0	-3.462667227E0	2.836613655E-1
6.814831034E0	1.270995140E0	-3.744009495E0	9.625473022E-1
6.822729957E0	1.423954487E0	-3.998644829E0	1.971358299E0
6.831072187E0	1.987030506E0	-4.384353638E0	3.105416298E0
6.839166957E0	2.238149166E0	-4.697185516E0	3.895358562E0
6.847470226E0	2.287439823E0	-4.993243217E0	3.960770130E0
6.855450303E0	2.030312061E0	-5.253829002E0	3.148382664E0
6.863115495E0	1.705065250E0	-5.228038788E0	2.098488808E0
6.871664995E0	1.502017975E0	-4.843147278E0	1.574175835E0
6.879785841E0	1.403285980E0	-4.239302635E0	1.735062599E0
6.887970572E0	1.124157906E0	-3.172228336E0	2.173183441E0
6.895999918E0	1.042224884E0	-1.943120599E0	2.337127686E0
6.903890841E0	8.561124802E-1	-6.633474827E-1	2.290896416E0
6.912363111E0	5.779995918E-1	4.977860451E-1	2.052501678E0
6.920431610E0	2.624621391E-1	1.177552223E0	1.463195324E0
6.928611957E0	1.159863472E-1	1.159805775E0	8.576693535E-1
6.936656995E0	-3.442764282E-2	7.465755939E-1	5.474519730E-1
6.944406534E0	-1.479310989E-1	2.996931076E-1	4.029145241E-1
6.952958303E0	-2.535285950E-1	-6.735920906E-2	2.471432686E-1
6.961034764E0	-3.421435356E-1	-2.021284103E-1	9.161615372E-2
6.969232457E0	-4.404697418E-1	-8.316755295E-2	1.201062202E-1
6.977235534E0	-6.665205956E-1	2.208955288E-1	5.769658089E-1
6.985124534E0	-7.312083244E-1	5.859563351E-1	1.361108303E0
6.993526495E0	-7.071962357E-1	8.584856987E-1	2.558811188E0
7.001585918E0	-6.586327553E-1	8.265547752E-1	3.099385738E0
7.009755687E0	-6.241393089E-1	3.359684944E-1	2.897181988E0
7.017788572E0	-3.698143959E-1	-4.961534739E-1	2.309997559E0
7.025569264E0	3.677225113E-2	-1.331064701E0	1.919759750E0
7.034075033E0	5.837182999E-1	-2.089732409E0	1.697957516E0
7.050412418E0	1.507751465E0	-2.929691315E0	2.231099129E0
7.058402918E0	1.912630558E0	-2.945203304E0	2.615336418E0
7.066394303E0	2.043573380E0	-2.739668131E0	2.768077850E0
7.074610957E0	1.744919777E0	-2.198178291E0	2.745100021E0
7.082715880E0	1.469990730E0	-1.730175018E0	2.643945694E0
7.090975033E0	1.416963577E0	-1.343691349E0	2.605887413E0
7.098930880E0	1.556883812E0	-1.065107346E0	2.625008583E0
7.106688495E0	1.640415192E0	-8.670678139E-1	2.710079193E0
7.115225841E0	1.624450684E0	-7.470203042E-1	2.800357819E0
7.123340803E0	1.467306614E0	-5.468604565E-1	2.841774940E0
7.129808961E0	1.430030823E0	-3.931412697E-1	2.706133842E0
7.131543533E0	1.451578617E0	-3.021615744E-1	2.624731064E0
7.139578918E0	1.445821285E0	-3.492689133E-2	2.535419464E0
7.147367764E0	1.445925713E0	1.296073198E-1	2.556751251E0
7.155879649E0	1.472457409E0	7.381343842E-2	2.718137741E0
7.164008918E0	1.328692913E0	2.890825272E-3	2.930116653E0
7.172242956E0	1.006207943E0	-5.500519276E-2	2.941796303E0
7.180216995E0	8.364357948E-1	-1.613513231E-1	2.678176880E0
7.187985533E0	7.508602142E-1	-1.522607803E-1	2.483260155E0
7.196567226E0	7.781224251E-1	-1.167625189E-1	2.455368042E0
7.204596841E0	8.979873657E-1	-1.241241693E-1	2.592809677E0
7.212849764E0	1.066294670E0	-1.095782518E-1	2.786157608E0
7.220797418E0	1.165730476E0	-1.212961674E-1	2.882297516E0
7.228595956E0	1.159369946E0	-1.023273468E-1	2.748810768E0
7.237195995E0	1.125654221E0	-5.638885498E-2	2.506932259E0
7.245223803E0	1.196871758E0	-2.183437347E-3	2.358143806E0
7.253450033E0	1.353953362E0	6.916975975E-2	2.340884209E0
7.261446803E0	1.494985104E0	1.601533890E-1	2.429770947E0
7.269222341E0	1.540142536E0	2.303206921E-1	2.426661968E0
7.277834264E0	1.484742165E0	3.463166952E-1	2.360402107E0
7.285873918E0	1.370689869E0	4.163795710E-1	2.229875565E0
7.294082264E0	1.276909828E0	3.843926191E-1	2.078563690E0
7.302083303E0	1.109076500E0	3.560581207E-1	1.947832108E0
7.309973649E0	9.929051399E-1	2.702541351E-1	1.859851360E0
7.318279995E0	8.870568275E-1	1.610078812E-1	1.786291122E0
7.326432456E0	7.777624130E-1	9.356737137E-2	1.628481865E0
7.334821033E0	6.837840080E-1	5.849242210E-2	1.571759701E0
7.342598687E0	6.013078690E-1	5.516886711E-2	1.534246445E0
7.350327226E0	4.771456718E-1	4.306793213E-3	1.518843651E0
7.358955072E0	3.886432648E-1	-6.218266487E-2	1.580046177E0
7.367124226E0	3.221807480E-1	-1.370627880E-1	1.692032337E0
7.375205841E0	3.049559593E-1	-2.149908543E-1	1.683460712E0
7.383196687E0	3.108601570E-1	-3.150386810E-1	1.590157509E0
7.391055726E0	2.968616486E-1	-3.981781006E-1	1.453188419E0
7.399387226E0	3.726892471E-1	-4.792618752E-1	1.347868443E0
7.407505187E0	4.359688759E-1	-5.278007984E-1	1.319517612E0
7.415699726E0	5.815939903E-1	-5.829014778E-1	1.309338570E0
7.423707149E0	6.033244133E-1	-5.799455643E-1	1.281788349E0
7.431480687E0	7.021546364E-1	-6.428763866E-1	1.253562450E0
7.440018187E0	6.792621613E-1	-6.710102558E-1	1.261835098E0
7.448091341E0	6.520795822E-1	-7.626228333E-1	1.157138348E0
7.456294725E0	5.653238297E-1	-7.749998569E-1	1.103041172E0
7.464343149E0	5.411143303E-1	-8.423018456E-1	1.114101887E0
7.472158187E0	5.655150414E-1	-9.230394363E-1	1.072380543E0
7.480564264E0	6.678028107E-1	-1.020225763E0	1.032956123E0
7.488734764E0	7.124447823E-1	-1.054121971E0	1.052190304E0
7.496806802E0	7.689013481E-1	-1.096452713E0	1.070229530E0
7.504864687E0	8.560829163E-1	-1.131414652E0	1.083206177E0
7.512584841E0	8.541150093E-1	-1.166023493E0	1.048240662E0
7.521131033E0	8.848128319E-1	-1.189152956E0	1.041318417E0
7.529258918E0	9.030475616E-1	-1.197549820E0	9.832315445E-1
7.537451379E0	1.028676033E0	-1.139392853E0	9.862184525E-1
7.545432495E0	1.074490070E0	-1.096675158E0	9.602661133E-1
7.553313456E0	1.063739300E0	-1.104806662E0	8.081040382E-1
7.561769572E0	1.075376987E0	-1.083141327E0	6.983466148E-1
7.569851648E0	1.045171261E0	-1.082020283E0	5.969147682E-1
7.577954110E0	9.937353134E-1	-1.042235374E0	5.317111015E-1
7.585946533E0	9.052548409E-1	-9.986352921E-1	3.999643326E-1
7.593706379E0	8.217034340E-1	-1.020727158E0	2.098703384E-1
7.602239418E0	6.936893463E-1	-1.026234150E0	9.376907349E-2
7.610325495E0	5.863075256E-1	-1.044280052E0	-6.925296783E-2
7.618538879E0	5.388345718E-1	-1.046257973E0	-1.222839355E-1
7.626543379E0	5.009407997E-1	-1.035076618E0	-2.280540466E-1
7.634434379E0	4.319486618E-1	-1.013281345E0	-3.242416382E-1
7.642769072E0	3.852944374E-1	-9.938831329E-1	-4.487304688E-1
7.650955918E0	3.660602570E-1	-9.846081734E-1	-4.769959450E-1
7.659103764E0	3.191394806E-1	-9.211387634E-1	-4.943113327E-1
7.667061187E0	1.599793434E-1	-7.595338821E-1	-5.120983124E-1
7.674837110E0	-1.105928421E-1	-6.396274567E-1	-6.084122658E-1
7.683382187E0	-3.942165375E-1	-3.771247864E-1	-7.442660332E-1
7.691453610E0	-6.261854172E-1	-2.102637291E-1	-9.032888412E-1
7.699722379E0	-8.966703415E-1	-9.740447998E-2	-1.055459261E0
7.707657610E0	-1.023984909E0	-6.929016113E-2	-1.166699409E0
7.715446418E0	-1.254018307E0	-3.912782669E-2	-1.348812819E0
7.723856687E0	-1.537018776E0	-8.926868439E-3	-1.508603096E0
7.732033341E0	-1.794235229E0	-2.339315414E-2	-1.617022276E0
7.740142302E0	-1.937267303E0	-1.016936302E-1	-1.601019859E0
7.748207995E0	-2.040326834E0	-3.623175621E-1	-1.581749439E0
7.755970225E0	-2.016335726E0	-6.858110428E-1	-1.508123159E0
7.764461071E0	-1.826883316E0	-1.144837379E0	-1.436134100E0
7.772583918E0	-1.639477730E0	-1.559750557E0	-1.264840126E0
7.780806379E0	-1.510801315E0	-1.959051609E0	-9.311294556E-1
7.788829071E0	-1.520157337E0	-2.285110950E0	-7.166302204E-1
7.796643110E0	-1.670549870E0	-2.503167629E0	-6.315860748E-1
7.805090302E0	-1.884737015E0	-2.482707024E0	-6.697492599E-1
7.813088302E0	-2.188933134E0	-2.441312790E0	-8.629837036E-1
7.821295571E0	-2.480226517E0	-2.187154293E0	-1.061036706E0
7.829285571E0	-2.682236910E0	-1.997211933E0	-1.241410851E0
7.837050494E0	-2.922225952E0	-1.887267590E0	-1.241024494E0
7.846103841E0	-3.153485060E0	-1.713480949E0	-1.077462196E0
7.853679687E0	-3.210275412E0	-1.620094776E0	-8.192573786E-1
7.861886379E0	-3.160498381E0	-1.523924351E0	-6.354043484E-1
7.869909071E0	-3.083587408E0	-1.482419014E0	-5.010654926E-1
7.877730302E0	-3.013146639E0	-1.327760696E0	-3.905293941E-1
7.886244648E0	-3.018209219E0	-1.101436615E0	-4.553335905E-1
7.894346379E0	-3.080088377E0	-7.660479546E-1	-6.519330740E-1
7.902574687E0	-3.107950449E0	-4.462661743E-1	-8.696447015E-1
7.910552302E0	-3.123749495E0	-2.249712944E-1	-1.032740116E0
7.918276302E0	-3.074168921E0	-4.495000839E-2	-1.100410223E0
7.926862725E0	-2.915864468E0	4.780340195E-2	-1.060593486E0
7.935012494E0	-2.628723383E0	1.412858963E-1	-1.042293668E0
7.943116648E0	-2.417607784E0	2.176256180E-1	-8.968502283E-1
7.951302687E0	-2.157823324E0	3.119759560E-1	-6.628538966E-1
7.959582417E0	-1.920983791E0	4.738397598E-1	-4.261482954E-1
7.967277225E0	-1.647315979E0	6.285257339E-1	-2.629945874E-1
7.975424571E0	-1.470839977E0	7.253184319E-1	-1.589373350E-1
7.983571033E0	-1.326851845E0	8.118648529E-1	-9.100079536E-2
7.991605956E0	-1.200767040E0	8.880047798E-1	-1.401821375E-1
7.999537148E0	-1.021224022E0	9.384441376E-1	-2.449775934E-1
8.007805379E0	-8.580641747E-1	9.227352142E-1	-3.462103009E-1
8.015818417E0	-7.113366127E-1	8.394718170E-1	-5.009104609E-1
8.024157571E0	-5.425267220E-1	6.881122589E-1	-6.140955091E-1
8.032149956E0	-3.842415810E-1	5.587749481E-1	-6.548883915E-1
8.040595571E0	-2.327260971E-1	4.383077621E-1	-6.047608852E-1
8.048302956E0	-1.456546783E-1	3.668642044E-1	-5.132419467E-1
8.056454917E0	-2.698755264E-2	3.045682907E-1	-4.176019728E-1
8.064621417E0	2.333164215E-3	2.297677994E-1	-3.626314998E-1
8.072596610E0	-8.611202240E-3	1.622390747E-1	-3.646742404E-1
8.080415610E0	-5.000352859E-2	6.573581696E-2	-4.494892061E-1
8.088841610E0	-1.263718605E-1	-3.773593903E-2	-5.485007763E-1
8.097117687E0	-2.033233643E-1	-1.135959625E-1	-6.273559332E-1
8.105156187E0	-2.802042961E-1	-2.077388763E-1	-6.105511189E-1
8.113707840E0	-3.716769218E-1	-2.570099831E-1	-5.513974428E-1
8.121589956E0	-4.810509682E-1	-2.774219513E-1	-4.314513803E-1
8.129323033E0	-5.227413177E-1	-2.367410660E-1	-4.687740803E-1
8.137494879E0	-5.073132515E-1	-1.598882675E-1	-6.518219113E-1
8.145619340E0	-4.566311836E-1	-5.614948273E-2	-8.239995241E-1
8.153625340E0	-3.991184235E-1	3.359985352E-2	-9.327729940E-1
8.161521302E0	-3.206934929E-1	7.603645325E-2	-9.638744593E-1
8.169846263E0	-1.944961548E-1	9.472179413E-2	-9.480955005E-1
8.178017533E0	-7.460927963E-2	9.782218933E-2	-9.258616567E-1
8.186204033E0	3.881406784E-2	1.189737320E-1	-8.345689774E-1
8.194150340E0	9.971475601E-2	1.346387863E-1	-6.932760477E-1
8.202611340E0	1.287064552E-1	2.157154083E-1	-6.203732491E-1
8.210345686E0	1.249318123E-1	3.364334106E-1	-6.893429160E-1
8.218461302E0	6.126403809E-2	5.125083923E-1	-8.267931938E-1
8.226616610E0	-3.551721573E-2	6.837310791E-1	-9.446170926E-1
8.234651494E0	-1.484079361E-1	8.474607468E-1	-9.435396194E-1
8.242485263E0	-2.243309021E-1	9.578495026E-1	-7.745006084E-1
8.250853263E0	-3.068323135E-1	9.346914291E-1	-5.343186855E-1
8.259038840E0	-4.990773201E-1	8.594636917E-1	-2.720581889E-1
8.267090302E0	-6.210217476E-1	7.486362457E-1	-5.843618512E-2
8.275169033E0	-8.146939278E-1	6.514835358E-1	6.875212491E-2
8.283669263E0	-1.000978470E0	5.808477402E-1	4.994487762E-2
8.291392686E0	-1.082760811E0	5.187473297E-1	-2.651119232E-2
8.299524879E0	-1.128583908E0	4.785032272E-1	-1.021282077E-1
8.307690110E0	-1.157071590E0	4.948434830E-1	-1.488984227E-1
8.315703263E0	-1.146238804E0	5.355358124E-1	-2.092253566E-1
8.323516494E0	-1.090443611E0	5.824537277E-1	-2.603457868E-1
8.331861648E0	-9.267444611E-1	5.740871429E-1	-2.993026674E-1
8.338335533E0	-8.205599785E-1	5.842046738E-1	-3.009116054E-1
8.339893186E0	-7.774643898E-1	5.889930725E-1	-2.841522098E-1
8.348202571E0	-5.069551468E-1	5.329027176E-1	-2.326012552E-1
8.356221648E0	-2.064657211E-1	4.349374771E-1	-1.676408947E-1
8.364662802E0	9.924650192E-2	2.678174973E-1	-1.047008932E-1
8.372355494E0	3.120031357E-1	9.391212463E-2	3.948234022E-2
8.380531686E0	4.528427124E-1	-1.022596359E-1	2.249486446E-1
8.388685648E0	5.986061096E-1	-2.775783539E-1	3.466819227E-1
8.396736071E0	7.246937752E-1	-3.948812485E-1	3.073375821E-1
8.404549686E0	7.728490829E-1	-4.932985306E-1	1.642394662E-1
8.412905340E0	1.197123051E0	-7.107028961E-1	6.011509895E-2
8.420901609E0	2.388749123E-1	-3.049478531E-1	-1.042167693E-1
8.429130686E0	5.306520462E-1	-3.261508942E-1	-1.626600921E-1
8.437193456E0	5.566906929E-1	-3.003807068E-1	-1.657568365E-1
8.445641302E0	3.319959641E-1	-2.077846527E-1	-1.729047298E-1
8.453360148E0	2.595648766E-1	-1.579675674E-1	-1.757757813E-1
8.461537263E0	2.494373322E-1	-1.918611526E-1	-7.777656615E-2
8.469667532E0	2.686834335E-1	-2.403917313E-1	2.916073799E-2
8.477732379E0	2.476654053E-1	-2.938747406E-1	7.277553529E-2
8.485583879E0	2.296419144E-1	-3.452243805E-1	6.949850917E-2
8.493896840E0	1.208682060E-1	-3.439445496E-1	2.130087093E-2
8.501920148E0	-2.189397812E-2	-2.742853165E-1	-7.515464723E-2
8.510148071E0	-1.750988960E-1	-2.126274109E-1	-1.295064092E-1
8.518307340E0	-3.027639389E-1	-1.494178772E-1	-1.303171515E-1
8.526675763E0	-4.714336395E-1	-1.064882278E-1	-1.246670261E-1
8.534379032E0	-6.087160110E-1	-6.500148773E-2	-2.231876180E-2
8.542507917E0	-7.391753197E-1	-3.799057007E-2	1.129717827E-1
8.550687763E0	-8.614034653E-1	-4.307079315E-2	1.788004488E-1
8.557067648E0	-9.431099892E-1	-5.069351196E-2	2.144095749E-1
8.558685148E0	-9.574756622E-1	-5.787658691E-2	2.455341965E-1
8.566503917E0	-9.817276001E-1	-6.662654877E-2	2.868809700E-1
8.574978532E0	-1.033429623E0	-1.251258850E-1	2.818742096E-1
8.583025417E0	-1.077914715E0	-2.071342468E-1	2.422766387E-1
8.591118302E0	-1.095798969E0	-2.887878418E-1	2.614688277E-1
8.599193148E0	-1.238614559E0	-3.934550285E-1	4.003102779E-1
8.607732302E0	-1.305742502E0	-5.182890892E-1	5.909661055E-1
8.615375379E0	-1.319651365E0	-6.156725883E-1	7.091248631E-1
8.623570802E0	-1.323477983E0	-7.322721481E-1	8.133362532E-1
8.631692379E0	-1.349228621E0	-8.194708824E-1	7.982228994E-1
8.639698302E0	-1.407659769E0	-8.249015808E-1	6.737713814E-1
8.647575032E0	-1.523501873E0	-7.776765823E-1	5.428742170E-1
8.655924340E0	-1.665393353E0	-7.936539650E-1	4.229967594E-1
8.663906840E0	-1.929996729E0	-7.670402527E-1	2.407952547E-1
8.672260686E0	-2.388604403E0	-9.200448990E-1	-1.461071968E-1
8.680289686E0	-2.914397478E0	-1.211306095E0	-5.096786022E-1
8.688652994E0	-3.343546629E0	-1.616034031E0	-7.983195782E-1
8.696454302E0	-3.576981068E0	-2.085555077E0	-1.044810534E0
8.700115071E0	-3.581827164E0	-2.263573647E0	-1.260859728E0
8.702942993E0	-3.579432964E0	-2.459897995E0	-1.306349516E0
8.704559225E0	-3.577038765E0	-2.596367836E0	-1.342262506E0
8.712731302E0	-3.607230663E0	-3.163392544E0	-1.659178972E0
8.720762648E0	-3.579041958E0	-3.698283672E0	-1.975682378E0
8.728579686E0	-3.438174248E0	-4.184355259E0	-2.218636274E0
8.737113109E0	-3.269890308E0	-4.594736099E0	-2.379916430E0
8.745235994E0	-3.109237194E0	-4.964574814E0	-2.489716530E0
8.753417109E0	-2.854299068E0	-5.207807541E0	-2.484413385E0
8.761419801E0	-2.648628235E0	-5.360643387E0	-2.425960064E0
8.769885032E0	-2.198453665E0	-5.321583748E0	-2.204208851E0
8.777592532E0	-1.609817505E0	-4.943844318E0	-1.842637539E0
8.785679186E0	-9.338846207E-1	-4.275496483E0	-1.094022989E0
8.793894994E0	-2.954707146E-1	-3.277682304E0	-2.083387375E-1
8.801877071E0	1.495885849E-1	-2.232048512E0	6.805977821E-1
8.809719532E0	7.110104561E-1	-1.555413723E0	1.354783058E0
8.818107494E0	1.387768269E0	-1.255051136E0	1.635018349E0
8.826115917E0	1.827990532E0	-1.285698414E0	1.336260796E0
8.834449340E0	2.352723598E0	-1.700653553E0	2.929997444E-1
8.842509032E0	2.324160576E0	-1.965709209E0	-7.022113800E-1
8.850972955E0	2.355297565E0	-2.023932934E0	-1.445014477E0
8.858639340E0	2.321486950E0	-1.644618511E0	-2.052367210E0
8.866734032E0	2.365236282E0	-6.569113731E-1	-2.451551914E0
8.874980494E0	2.476027966E0	6.210217476E-1	-2.539942265E0
8.882941340E0	2.726394176E0	1.920340538E0	-2.387445688E0
8.890764455E0	2.693690777E0	2.767756939E0	-1.847170830E0
8.899107878E0	2.253114700E0	2.836071491E0	-7.470989227E-1
8.907147301E0	1.155815601E0	2.289169312E0	2.406711578E-1
8.915417955E0	2.606039047E-1	1.530689240E0	8.139905930E-1
8.923398417E0	-2.453374863E-1	9.220218658E-1	5.703182220E-1
8.931843724E0	-8.157877922E-1	3.250193596E-1	-1.288604736E-1
8.940139455E0	-1.183168411E0	-3.005385399E-1	-1.016718864E0
8.947703263E0	-1.547465563E0	-9.308862686E-1	-1.383461952E0
8.955892455E0	-1.667846680E0	-1.435011148E0	-1.638311863E0
8.963921263E0	-1.336322784E0	-1.968268394E0	-1.662233353E0
8.971762071E0	-4.560298920E-1	-2.794526577E0	-1.239118576E0
8.980213032E0	3.825025558E-1	-3.503321648E0	-4.975590706E-1
8.988259224E0	1.336692810E0	-4.168241501E0	4.506297112E-1
8.996513494E0	2.612405300E0	-4.862721443E0	1.559387207E0
9.004464801E0	3.499123096E0	-5.214848995E0	2.499199390E0
9.012919840E0	4.123240948E0	-5.343545914E0	3.064953327E0
9.020610417E0	4.409080029E0	-5.125079155E0	3.334156990E0
9.028727994E0	3.855280399E0	-4.338448048E0	3.522843838E0
9.036955532E0	3.433424950E0	-3.558222294E0	3.403165340E0
9.044939186E0	2.806426048E0	-2.624778509E0	3.195709229E0
9.052763263E0	2.132844925E0	-1.749717712E0	2.892698288E0
9.061177109E0	1.951802731E0	-1.313459873E0	2.475376606E0
9.069215609E0	1.870794296E0	-1.210764647E0	1.750839233E0
9.077446994E0	1.470995903E0	-1.085651278E0	1.123105049E0
9.085464724E0	1.268180847E0	-1.020132184E0	6.694307327E-1
9.093900494E0	1.078860283E0	-9.053069353E-1	3.104801178E-1
9.101494878E0	8.059659004E-1	-6.752240658E-1	2.157564163E-1
9.109706647E0	4.846730232E-1	-4.298185110E-1	2.311344147E-1
9.117880532E0	3.248901367E-1	-2.561793327E-1	3.437671661E-1
9.125918647E0	2.642331123E-1	-4.987406731E-2	4.328584671E-1
9.134353647E0	9.038448334E-2	4.774487019E-2	7.319307327E-1
9.142249994E0	2.333798409E-1	6.013798714E-2	1.122220993E0
9.150354724E0	3.744182587E-1	4.361612797E-1	1.943657875E0
9.158659417E0	7.718653679E-1	6.292334795E-1	2.632365227E0
9.166551763E0	7.945828438E-1	6.899040937E-1	3.159414291E0
9.174444840E0	9.232482910E-1	3.308368921E-1	3.152221680E0
9.182798493E0	9.099354744E-1	-3.228302598E-1	3.086869240E0
9.191035109E0	8.931374550E-1	-7.954564095E-1	3.306357384E0
9.199135878E0	9.247474670E-1	-1.077853203E0	3.377271652E0
9.207096340E0	1.295916080E0	-1.522211552E0	2.807365417E0
9.215630878E0	1.519013405E0	-1.957740068E0	2.226450920E0
9.223485609E0	1.252808094E0	-2.152483940E0	2.278101921E0
9.232146647E0	1.221367836E0	-2.112487793E0	2.660264969E0
9.239781070E0	1.174212456E0	-1.785458326E0	2.944866180E0
9.247777917E0	1.291108131E0	-1.439471841E0	3.187664032E0
9.255666763E0	1.524517059E0	-1.163514972E0	3.272206306E0
9.263845724E0	1.748871326E0	-1.038421154E0	3.327085495E0
9.272047532E0	1.859099388E0	-1.050402403E0	3.361786842E0
9.280280878E0	1.960501194E0	-1.088333011E0	3.325999260E0
9.288205993E0	2.167382240E0	-1.183640361E0	3.270236015E0
9.296660493E0	2.251875401E0	-1.175464392E0	3.161106110E0
9.304689993E0	2.263319016E0	-1.199702740E0	3.044539452E0
9.312746686E0	2.195619583E0	-1.331379890E0	3.110399246E0
9.320954340E0	1.994488239E0	-1.434537292E0	3.187108040E0
9.328972763E0	1.692332268E0	-1.543753624E0	3.151815414E0
9.336785763E0	1.284204483E0	-1.591504216E0	3.010492325E0
9.345062532E0	9.639430046E-1	-1.573399305E0	2.899718285E0
9.353179455E0	6.356420517E-1	-1.520954370E0	2.840100288E0
9.361459147E0	4.998998642E-1	-1.440832734E0	2.641714096E0
9.369439801E0	3.996725082E-1	-1.320962429E0	2.393836975E0
9.377936109E0	3.463807106E-1	-1.199007273E0	2.068051338E0
9.385773416E0	3.285098076E-1	-1.134180784E0	1.838902473E0
9.393849224E0	3.118476868E-1	-1.124254465E0	1.805015564E0
9.402086224E0	2.978534698E-1	-1.180631399E0	1.909493446E0
9.410089839E0	3.133053780E-1	-1.253198028E0	1.908018112E0
9.417923455E0	4.135241508E-1	-1.297789812E0	1.832645416E0
9.426151955E0	5.027675629E-1	-1.187436819E0	1.694044113E0
9.434244878E0	6.959624290E-1	-1.124262452E0	1.622663498E0
9.442534532E0	8.834037781E-1	-1.088123441E0	1.680686951E0
9.450506916E0	1.014797688E0	-1.088015556E0	1.624186516E0
9.458991916E0	1.132594109E0	-1.107854009E0	1.575836182E0
9.466986839E0	1.136343002E0	-1.172453523E0	1.425359726E0
9.474995378E0	1.041286945E0	-1.210078001E0	1.277688026E0
9.483220147E0	1.123213768E0	-1.330862284E0	1.168553352E0
9.491184416E0	1.039744377E0	-1.379479527E0	1.081352234E0
9.499022301E0	8.484058380E-1	-1.436281800E0	1.047098160E0
9.507284147E0	8.405814171E-1	-1.488664627E0	9.225530624E-1
9.515387493E0	6.511111259E-1	-1.431966543E0	8.399152756E-1
9.523693762E0	4.685707092E-1	-1.344736814E0	7.923097610E-1
9.531627109E0	3.163251877E-1	-1.298847914E0	7.514314651E-1
9.540124686E0	2.099528313E-1	-1.264420390E0	7.657051086E-1
9.548000147E0	2.189636230E-3	-1.182887673E0	8.141384125E-1
9.556093955E0	-6.638908386E-2	-1.178809166E0	8.425283432E-1
9.564301570E0	9.757041931E-3	-1.090947986E0	7.441859245E-1
9.572326724E0	-1.195240021E-2	-9.800378084E-1	7.698731422E-1
9.580211493E0	-4.129457474E-2	-8.855843544E-1	7.875781059E-1
9.588523262E0	-2.818107605E-4	-8.209820986E-1	7.941908836E-1
9.596577224E0	5.138301849E-2	-7.378354073E-1	8.075599670E-1
9.604812801E0	1.476469040E-1	-6.616555452E-1	7.480301857E-1
9.612774839E0	3.047924042E-1	-5.904097557E-1	6.527042389E-1
9.621259378E0	4.080533981E-1	-4.806165695E-1	5.252752304E-1
9.629234493E0	5.302352905E-1	-4.250791073E-1	5.366725922E-1
9.637252416E0	5.346131325E-1	-3.528828621E-1	5.310535431E-1
9.645497070E0	4.021854401E-1	-2.244539261E-1	3.681569099E-1
9.653429647E0	3.626742363E-1	-1.868166924E-1	4.827308655E-1
9.661353147E0	3.157134056E-1	-2.161068916E-1	5.074887276E-1
9.669588839E0	2.946395874E-1	-2.863988876E-1	4.537568092E-1
9.677641762E0	3.472166061E-1	-3.587932587E-1	4.300971031E-1
9.685920993E0	3.473596573E-1	-4.359335899E-1	4.565000534E-1
9.693892724E0	3.574762344E-1	-5.210003853E-1	5.581274033E-1
9.702343070E0	4.397802353E-1	-5.611345768E-1	6.835856438E-1
9.710255993E0	4.576158524E-1	-5.727977753E-1	7.345247269E-1
9.718367032E0	3.997049332E-1	-5.968985558E-1	7.525100708E-1
9.726521339E0	4.426827431E-1	-6.947944164E-1	7.196011543E-1
9.734551762E0	4.956002235E-1	-8.373198509E-1	6.164941788E-1
9.742436224E0	5.706052780E-1	-9.849181175E-1	6.411771774E-1
9.750673724E0	7.818527222E-1	-1.025521040E0	7.443380356E-1
9.758766647E0	9.021759033E-1	-1.111770153E0	8.945770264E-1
9.767060262E0	1.183149338E0	-1.050740719E0	1.005325317E0
9.775037070E0	1.501556396E0	-9.723801613E-1	8.970766068E-1
9.783487916E0	1.728570938E0	-8.426139355E-1	6.657428741E-1
9.791941839E0	1.883062363E0	-7.220888138E-1	5.228219032E-1
9.799490647E0	2.099963188E0	-5.959174633E-1	3.763794899E-1
9.807769147E0	2.180145264E0	-4.706287384E-1	1.733193398E-1
9.815677416E0	2.368061066E0	-3.809423447E-1	5.871772766E-2
9.823502916E0	2.396499634E0	-3.125596046E-1	-4.586648941E-2
9.831745301E0	2.345202923E0	-2.664794922E-1	-1.390495300E-1
9.839893570E0	2.131966591E0	-2.750191689E-1	-2.872815132E-1
9.848177493E0	1.897605419E0	-2.654604912E-1	-4.350962639E-1
9.856112724E0	1.668143272E0	-3.515787125E-1	-7.333784103E-1
9.864582224E0	1.366971493E0	-4.488296509E-1	-1.006480217E0
9.872475070E0	9.898667336E-1	-4.367389679E-1	-1.348052502E0
9.880653224E0	6.215081215E-1	-3.636703491E-1	-1.499046087E0
9.888783416E0	2.495236397E-1	-2.077174187E-1	-1.630876541E0
9.896784224E0	-1.983795166E-1	-5.527639389E-2	-1.667131901E0
9.904598685E0	-7.176933289E-1	1.892399788E-1	-1.729377985E0
9.912875301E0	-1.123638630E0	3.933854103E-1	-1.978950262E0
9.920994531E0	-1.493544579E0	5.495233536E-1	-2.040913343E0
9.929238108E0	-1.954111814E0	7.462797165E-1	-2.160358429E0
9.937220454E0	-2.148376465E0	8.018984795E-1	-2.157383680E0
9.945672493E0	-2.398242712E0	6.887321472E-1	-2.264013052E0
9.953666801E0	-2.440042257E0	3.254256248E-1	-2.249705315E0
9.961705608E0	-2.231786489E0	-8.215999603E-2	-2.183301926E0
9.969894185E0	-1.870797396E0	-7.337245941E-1	-1.997539997E0
9.977883608E0	-1.477602482E0	-1.516240597E0	-1.686239004E0
9.985773916E0	-1.156017303E0	-2.237412453E0	-1.300548315E0
9.993960301E0	-1.084593773E0	-2.838933468E0	-9.600067139E-1
1.000212749E1	-1.225761414E0	-3.286910534E0	-6.818490028E-1
1.001040988E1	-1.586004257E0	-3.583038568E0	-5.347409248E-1
1.001834418E1	-1.981591702E0	-3.663853407E0	-6.075973511E-1
1.002679634E1	-2.266915083E0	-3.675958395E0	-7.708415985E-1
1.003504307E1	-2.482564926E0	-3.586697578E0	-8.740186691E-1
1.004256572E1	-2.594807625E0	-3.469051838E0	-1.013362646E0
1.005096253E1	-2.720350027E0	-3.267248631E0	-1.165400982E0
1.005878272E1	-2.818550348E0	-3.023567200E0	-1.241643190E0
1.006739511E1	-2.894956350E0	-2.713505268E0	-1.238098264E0
1.007542969E1	-2.960011959E0	-2.431361198E0	-1.232630014E0
1.008357107E1	-3.000497818E0	-2.069392204E0	-1.250466228E0
1.009177011E1	-2.950277328E0	-1.761972904E0	-1.174745560E0
1.009971657E1	-2.836025953E0	-1.473462582E0	-9.997891188E-1
1.010754561E1	-2.554534912E0	-1.266541004E0	-7.876819372E-1
1.011570169E1	-2.382215261E0	-1.092214108E0	-5.616110563E-1
1.012374749E1	-2.107420444E0	-1.018418789E0	-4.121503830E-1
1.013197607E1	-1.759951830E0	-9.408493042E-1	-3.009796143E-1
1.014005030E1	-1.298954010E0	-8.469276428E-1	-4.345638752E-1
1.014850907E1	-9.881196022E-1	-6.563129425E-1	-6.025327444E-1
1.015661853E1	-7.771430016E-1	-5.055599213E-1	-6.955421567E-1
1.016461326E1	-6.876530647E-1	-2.965264320E-1	-8.363912702E-1
1.017279361E1	-6.701316833E-1	-4.797697067E-2	-9.895234108E-1
1.018081253E1	-7.499055862E-1	1.737689972E-1	-1.173652291E0
1.018861276E1	-7.133760452E-1	3.746500015E-1	-1.360200047E0
1.019695907E1	-7.055196762E-1	5.050563812E-1	-1.570153713E0
1.020491380E1	-8.831377029E-1	5.679540634E-1	-1.745349407E0
1.021300053E1	-1.020345688E0	5.881690979E-1	-1.871092558E0
1.022110799E1	-1.117040157E0	5.369014740E-1	-1.606040597E0
1.022960942E1	-1.176967621E0	4.319133759E-1	-1.166047096E0
1.023779095E1	-1.213927746E0	3.629789352E-1	-9.348487854E-1
1.024573068E1	-1.269505024E0	2.949275970E-1	-8.187950253E-1
1.025391361E1	-1.225972176E0	3.864459991E-1	-8.451931477E-1
1.026196349E1	-1.077425003E0	7.169942856E-1	-9.665089250E-1
1.026974165E1	-1.166483402E0	1.224342346E0	-1.011025786E0
1.027782311E1	-7.845745087E-1	1.896437645E0	-1.187115192E0
1.028593730E1	-5.585012436E-1	2.521393776E0	-1.413708687E0
1.029414968E1	4.296016693E-2	3.119759560E0	-1.695406079E0
1.030221407E1	1.904463768E-1	3.333718300E0	-1.748584628E0
1.031068118E1	6.221532822E-2	3.228627205E0	-1.398149967E0
1.031874195E1	-1.429800987E-1	2.848974228E0	-9.521695375E-1
1.032684718E1	-3.670983315E-1	2.222211838E0	-7.760673761E-1
1.033506803E1	-5.510625839E-1	1.533164978E0	-8.653236628E-1
1.034317480E1	-7.527217865E-1	7.509670258E-1	-1.145709395E0
1.035095622E1	-9.066672325E-1	2.318391800E-1	-1.363657117E0
1.035901953E1	-1.019863129E0	-3.092503548E-1	-1.518517494E0
1.036711768E1	-1.003516674E0	-7.407221794E-1	-1.614682913E0
1.037528695E1	-7.471957207E-1	-1.075303078E0	-1.564550877E0
1.038336722E1	-5.185327530E-1	-1.274558067E0	-1.540081263E0
1.039180622E1	-3.221778870E-1	-1.349622250E0	-1.323781490E0
1.039990338E1	-1.500506401E-1	-1.311130047E0	-9.939097166E-1
1.040798257E1	4.402160645E-3	-1.250269890E0	-6.390039921E-1
1.041617092E1	4.969835281E-2	-1.036096096E0	-3.874380589E-1
1.042418788E1	-3.335618973E-2	-6.726155281E-1	-3.382571936E-1
1.043204034E1	-1.756758690E-1	-2.210369110E-1	-4.156395197E-1
1.044011353E1	-3.627128601E-1	1.710767746E-1	-4.773633480E-1
1.044835219E1	-6.007046700E-1	5.090293884E-1	-4.300316870E-1
1.045646399E1	-8.885712624E-1	8.290710449E-1	-3.158504069E-1
1.046455045E1	-1.105582237E0	1.090749741E0	-1.303407401E-1
1.047304242E1	-1.289270401E0	1.283386230E0	3.660993651E-2
1.048098922E1	-1.383916378E0	1.351367950E0	2.168596685E-1
1.048911072E1	-1.257446289E0	1.246325493E0	3.544978499E-1
1.049731415E1	-8.516516685E-1	9.267435074E-1	4.684869051E-1
1.050530618E1	-3.353433609E-1	5.350313187E-1	5.160112977E-1
1.051315342E1	1.576437950E-1	1.609306335E-1	4.717961550E-1
1.052138918E1	5.598473549E-1	-1.403770447E-1	3.598402143E-1
1.052934165E1	7.591614723E-1	-3.028287888E-1	2.330670655E-1
1.053744788E1	8.103613853E-1	-3.449115753E-1	8.774454892E-2
1.054560357E1	8.275485039E-1	-3.312149048E-1	-9.471854568E-2
1.055407115E1	9.918446541E-1	-3.351173401E-1	-2.958365083E-1
1.056213761E1	1.037624359E0	-3.552932739E-1	-3.847835958E-1
1.057022395E1	1.003518105E0	-3.922452927E-1	-4.450677335E-1
1.057836749E1	9.912810326E-1	-3.987150192E-1	-4.146629870E-1
1.058642261E1	8.971085548E-1	-4.042425156E-1	-3.094934225E-1
1.059426949E1	8.108773232E-1	-3.807668686E-1	-1.740280241E-1
1.060242718E1	6.616921425E-1	-3.249139786E-1	-5.415469408E-2
1.061049249E1	4.427828789E-1	-2.550363541E-1	5.426101387E-3
1.061876265E1	1.888117790E-1	-1.669855118E-1	-2.796389163E-3
1.062683484E1	-9.119844437E-2	-6.012058258E-2	-3.156222776E-2
1.063524153E1	-4.166707993E-1	6.170558929E-2	-6.557601690E-2
1.064323626E1	-6.706094742E-1	2.049026489E-1	-7.745602727E-2
1.065144315E1	-8.413915634E-1	2.635021210E-1	-8.936545253E-2
1.065950376E1	-9.947352409E-1	2.932119370E-1	-1.220556051E-1
1.066752888E1	-1.115604877E0	3.110761642E-1	-9.383812547E-2
1.067532965E1	-1.233708382E0	3.273334503E-1	-2.149268985E-2
1.068345395E1	-1.316620350E0	3.603239059E-1	-3.724364936E-2
1.069157353E1	-1.307765484E0	3.931283951E-1	-1.261610687E-1
1.069976476E1	-1.258463860E0	4.121589661E-1	-1.753173172E-1
1.070783969E1	-1.161972523E0	4.049892426E-1	-2.208946049E-1
1.071642103E1	-1.121437073E0	3.415536880E-1	-3.047498763E-1
1.072429349E1	-1.140992641E0	1.798439026E-1	-2.310698330E-1
1.073238422E1	-1.205883503E0	-3.399372101E-2	-1.522212774E-1
1.074062422E1	-1.225899696E0	-2.930097580E-1	2.864110470E-2
1.074858888E1	-1.149337769E0	-5.589318275E-1	3.500476182E-1
1.075638649E1	-9.284687042E-1	-8.170847893E-1	6.531707644E-1
1.076452630E1	-6.786646843E-1	-9.510049820E-1	7.531734109E-1
1.077299907E1	-5.090827942E-1	-9.846863747E-1	7.657973170E-1
1.078083099E1	-4.904246330E-1	-9.349865913E-1	7.817667127E-1
1.078892026E1	-6.725397110E-1	-9.274854660E-1	7.993310690E-1
1.079747653E1	-8.777604103E-1	-1.029681206E0	7.675780058E-1
1.080537588E1	-1.181430578E0	-1.193871021E0	5.416333675E-1
1.081359269E1	-1.514269352E0	-1.408499241E0	3.041689396E-1
1.082168715E1	-1.760938406E0	-1.710064411E0	1.208949089E-1
1.082998342E1	-1.801340103E0	-2.008125782E0	-9.370088577E-2
1.083756053E1	-1.785154819E0	-2.234505177E0	-3.403091431E-1
1.084556199E1	-1.754208088E0	-2.466552734E0	-6.177015305E-1
1.085384003E1	-1.642586946E0	-2.683057308E0	-9.163390398E-1
1.086202615E1	-1.501904726E0	-2.891845226E0	-1.336956382E0
1.087008053E1	-1.527179480E0	-3.111661434E0	-1.663665414E0
1.087853357E1	-1.585595846E0	-3.379842758E0	-1.939916372E0
1.088662549E1	-1.514374495E0	-3.604525566E0	-2.208684206E0
1.089473903E1	-1.476258993E0	-3.844820976E0	-2.234450817E0
1.090308692E1	-1.383257627E0	-3.989027023E0	-1.938355088E0
1.091102484E1	-1.249535322E0	-4.120182991E0	-1.587730050E0
1.091874549E1	-1.028557301E0	-4.193944454E0	-1.352410793E0
1.093513442E1	-5.291059017E-1	-3.714999199E0	-5.229477882E-1
1.094340242E1	-2.732791901E-1	-3.458379269E0	1.325199604E-1
1.095136819E1	-1.903448105E-1	-3.151219368E0	6.906898022E-1
1.095977599E1	1.249876022E-1	-2.818222523E0	1.055016994E0
1.096785399E1	3.638892174E-1	-2.601957798E0	9.091095924E-1
1.097593688E1	5.106172562E-1	-2.487176418E0	4.377489090E-1
1.098416526E1	7.678174973E-1	-2.536340714E0	-9.933376312E-2
1.099220780E1	9.014515877E-1	-2.299346447E0	-4.917330742E-1
1.099997318E1	1.047313213E0	-2.074779510E0	-9.334478378E-1
1.100808203E1	1.699542522E0	-1.491821289E0	-1.347790718E0
1.101620518E1	2.116927624E0	-4.566478729E-1	-2.108350039E0
1.102434026E1	2.507627964E0	3.696451187E-1	-2.928971529E0
1.103243599E1	2.670521259E0	7.973985672E-1	-3.067256212E0
1.104094161E1	2.316216469E0	9.030447006E-1	-2.381639004E0
1.104890284E1	1.956335068E0	7.169909477E-1	-9.982156754E-1
1.105702984E1	1.577178955E0	6.392645836E-1	6.637697220E-1
1.106521803E1	8.780345917E-1	6.271424294E-1	1.568975449E0
1.107323588E1	4.209804535E-1	3.624033928E-1	1.933450222E0
1.108109388E1	-1.613421440E-1	-4.652314186E-1	1.394973755E0
1.108915565E1	-6.199207306E-1	-1.413543701E0	3.565745354E-1
1.109729099E1	-1.058694124E0	-2.246749401E0	-5.404338837E-1
1.110605188E1	-1.792363167E0	-2.789095163E0	-1.263080120E0
1.111367422E1	-1.911664248E0	-3.035442114E0	-1.259190083E0
1.112199203E1	-1.956492186E0	-3.258327961E0	-9.432244301E-1
1.113001980E1	-1.690483093E0	-3.472970963E0	-7.555055618E-2
1.113825172E1	-1.012889385E0	-3.588033199E0	7.353634834E-1
1.114628611E1	8.662700653E-3	-3.716790199E0	1.194056511E0
1.115437026E1	8.907346725E-1	-3.587275982E0	1.385460377E0
1.116218018E1	1.726598740E0	-3.319601536E0	1.526872635E0
1.117028111E1	2.469471455E0	-2.899381638E0	1.511400700E0
1.117840572E1	3.062273979E0	-2.402286768E0	1.377175331E0
1.118660507E1	3.052882195E0	-1.691056967E0	1.484621048E0
1.119468538E1	3.819558620E0	-1.724576235E0	1.711198807E0
1.120310968E1	3.735728264E0	-1.323497295E0	2.010735512E0
1.121110372E1	3.321088314E0	-9.625687599E-1	2.436830521E0
1.121920292E1	2.813085556E0	-6.679141521E-1	2.619739056E0
1.122748176E1	2.521460056E0	-6.670382023E-1	2.529545784E0
1.123542215E1	2.193728447E0	-8.401963711E-1	2.043884277E0
1.124323626E1	1.558017254E0	-9.823434353E-1	1.539380074E0
1.125134461E1	1.621658325E0	-1.634973526E0	8.647613525E-1
1.125952411E1	1.175673008E0	-1.948423028E0	6.061239243E-1
1.126764938E1	7.770280838E-1	-2.057206631E0	3.772096634E-1
1.127571580E1	4.543681145E-1	-2.031321049E0	2.893676758E-1
1.128421418E1	4.666948318E-2	-1.804368258E0	3.818979263E-1
1.129220349E1	-5.095126629E-1	-1.481003761E0	6.699771881E-1
1.130031972E1	-9.147884846E-1	-1.098515987E0	9.912929535E-1
1.130852399E1	-1.205896854E0	-7.983305454E-1	1.528111458E0
1.131654430E1	-1.103275061E0	-5.732547045E-1	2.087338448E0
1.132442457E1	-5.924317837E-1	-4.269765615E-1	2.482917786E0
1.133249757E1	-8.643364906E-2	-3.195401430E-1	2.567104340E0
1.134072084E1	2.398846149E-1	-4.037001133E-1	2.427783012E0
1.134891272E1	4.367740154E-1	-5.322389603E-1	2.317056656E0
1.135691545E1	4.841659069E-1	-6.240055561E-1	2.244728088E0
1.136537253E1	5.617866516E-1	-5.735478401E-1	2.298571587E0
1.137344884E1	7.729415894E-1	-4.280129671E-1	2.543648720E0
1.138162780E1	9.652631283E-1	-2.793897390E-1	2.847016335E0
1.138985868E1	1.353824854E0	-2.591557503E-1	3.145915985E0
1.139784395E1	1.708285809E0	-2.348554134E-1	3.434920311E0
1.140557799E1	2.089329004E0	-3.038716316E-1	3.403642654E0
1.141382430E1	2.191668510E0	-5.545032620E-1	3.351715088E0
1.142204895E1	2.233231783E0	-9.132435918E-1	3.266187668E0
1.143044234E1	2.250111580E0	-1.194440842E0	2.988620758E0
1.143834757E1	2.223151684E0	-1.329771519E0	2.769065857E0
1.144662176E1	2.270780802E0	-1.278009892E0	2.689665794E0
1.145445934E1	2.336667299E0	-9.763157368E-1	2.855175018E0
1.146251172E1	2.283753157E0	-5.004694462E-1	3.131662369E0
1.147081745E1	2.044830084E0	-7.256984711E-2	3.469894409E0
1.147883395E1	1.737882376E0	1.770461798E-1	3.541026115E0
1.148728176E1	1.301145792E0	1.872767210E-1	3.362429619E0
1.149556776E1	9.059901237E-1	-9.548735619E-2	3.116607666E0
1.150360615E1	6.620371342E-1	-3.592629433E-1	2.900773048E0
1.151178145E1	6.033973694E-1	-5.565630198E-1	2.593622208E0
1.151984626E1	6.972429752E-1	-5.038242340E-1	2.376596451E0
1.152763499E1	9.187767506E-1	-3.047932386E-1	2.181800842E0
1.153584003E1	1.148082972E0	-1.394720078E-1	2.281385422E0
1.154407953E1	1.384818077E0	-5.082786083E-2	2.577363968E0
1.155223942E1	1.366218090E0	-2.423012257E-2	2.679246902E0
1.156041418E1	1.277788639E0	-1.268246174E-1	2.526775360E0
1.156898788E1	1.231732368E0	-2.744146585E-1	2.302035332E0
1.157706134E1	1.149188042E0	-4.450260401E-1	2.033682823E0
1.158515157E1	1.142914057E0	-6.999809742E-1	1.985325813E0
1.159345268E1	1.069669724E0	-9.311115742E-1	1.992073059E0
1.160136061E1	1.048630953E0	-1.110074997E0	2.010192871E0
1.160916749E1	1.055035114E0	-1.154625416E0	1.935950279E0
1.161720657E1	1.065589428E0	-1.128585339E0	1.795280457E0
1.162540426E1	9.871058464E-1	-1.094591856E0	1.660069466E0
1.163361080E1	9.079451561E-1	-1.118642807E0	1.621229172E0
1.164181142E1	8.678288460E-1	-1.138140678E0	1.581040382E0
1.165036711E1	8.237910271E-1	-1.104381204E0	1.515351295E0
1.165842084E1	7.824854851E-1	-1.015744448E0	1.442014694E0
1.166660038E1	7.592430115E-1	-9.095730782E-1	1.372892380E0
1.167472665E1	7.424106598E-1	-8.103622198E-1	1.231374741E0
1.168272549E1	7.360076904E-1	-7.572817802E-1	1.116291046E0
1.169060576E1	6.503157616E-1	-7.669330835E-1	1.004294395E0
1.169863642E1	5.119981766E-1	-8.031822443E-1	9.586954117E-1
1.170700853E1	4.704728127E-1	-8.411889076E-1	8.531351089E-1
1.171509284E1	3.140511513E-1	-8.699703217E-1	7.667493820E-1
1.172319184E1	1.647849083E-1	-9.449498653E-1	7.189035416E-1
1.173175068E1	2.647256851E-2	-9.921071529E-1	7.640762329E-1
1.173982938E1	-1.021714211E-1	-1.021518469E0	6.999092102E-1
1.174792522E1	-1.842918396E-1	-1.020905495E0	6.168346405E-1
1.175614792E1	-2.310724258E-1	-9.315645695E-1	6.652851105E-1
1.176413345E1	-2.083864212E-1	-8.483364582E-1	6.583223343E-1
1.177199449E1	-2.103610039E-1	-7.021920681E-1	5.747871399E-1
1.178007407E1	-2.346301079E-1	-5.450954437E-1	4.812784195E-1
1.178832699E1	-2.548379898E-1	-3.873300552E-1	4.053049088E-1
1.179640992E1	-1.928973198E-1	-2.812802792E-1	4.330506325E-1
1.180460668E1	-1.115584373E-1	-2.100169659E-1	4.546031952E-1
1.181320518E1	8.125782013E-3	-1.986236572E-1	3.977198601E-1
1.182129622E1	1.177010536E-1	-2.641727924E-1	3.775405884E-1
1.182929214E1	2.221708298E-1	-3.437197208E-1	4.080915451E-1
1.183750699E1	3.221817017E-1	-4.378697872E-1	3.996753693E-1
1.184548980E1	4.033808708E-1	-4.254136086E-1	3.610496521E-1
1.185335465E1	4.289155006E-1	-3.954579830E-1	2.594428062E-1
1.186143195E1	5.589566231E-1	-3.659789562E-1	1.974449158E-1
1.186961218E1	6.630172729E-1	-3.440558910E-1	1.362667084E-1
1.187776426E1	7.751154900E-1	-3.565940857E-1	2.005019188E-1
1.188597672E1	9.550361633E-1	-3.480696678E-1	3.841419220E-1
1.189450292E1	7.103838921E-1	-1.858434677E-1	2.110886574E-1
1.190259645E1	6.914987564E-1	-1.681711674E-1	2.821106911E-1
1.191068045E1	6.968088150E-1	-1.945991516E-1	1.774091721E-1
1.191896338E1	6.719336510E-1	-2.229347229E-1	8.009338379E-2
1.192696803E1	8.187308311E-1	-2.943925858E-1	1.947674751E-1
1.193476572E1	8.290762901E-1	-2.676100731E-1	3.102235794E-1
1.194278184E1	9.179902077E-1	-2.862048149E-1	2.927365303E-1
1.195103180E1	8.778605461E-1	-2.682189941E-1	2.722654343E-1
1.195915407E1	7.798957825E-1	-2.787580490E-1	2.496829033E-1
1.196734253E1	7.567682266E-1	-2.670779228E-1	1.924204826E-1
1.197592061E1	6.060957909E-1	-2.460284233E-1	-3.820419312E-3
1.198398534E1	5.688757896E-1	-1.183629036E-1	-1.176915169E-1
1.199208018E1	3.970432281E-1	-4.449796677E-2	-3.553667068E-1
1.200031599E1	4.440808296E-1	5.791950226E-2	-5.251331329E-1
1.200828638E1	3.218216896E-1	6.764888763E-2	-7.403874397E-1
1.201609322E1	2.619080544E-1	8.762168884E-2	-9.422917366E-1
1.202414757E1	3.027601242E-1	1.529660225E-1	-1.113205910E0
1.203237549E1	3.332753181E-1	1.881785393E-1	-1.294946194E0
1.204056303E1	3.284182549E-1	1.926965714E-1	-1.341092110E0
1.204883626E1	3.380618095E-1	1.718997955E-1	-1.322766304E0
1.205731853E1	4.409890175E-1	1.350665092E-1	-1.334692001E0
1.206536238E1	6.632242203E-1	7.468366623E-2	-1.265904903E0
1.207345657E1	8.338794708E-1	-3.600358963E-2	-1.201238632E0
1.208168511E1	9.624400139E-1	-1.601071358E-1	-1.179688454E0
1.208964495E1	9.469447136E-1	-3.109045029E-1	-1.222153664E0
1.209749711E1	9.269051552E-1	-5.096011162E-1	-1.274051666E0
1.210554345E1	6.495876312E-1	-5.620169640E-1	-1.218949795E0
1.211375395E1	4.021019936E-1	-5.100498199E-1	-1.287279844E0
1.212196088E1	7.602119446E-2	-5.726809502E-1	-1.465817451E0
1.213020222E1	-2.305583954E-1	-6.873898506E-1	-1.659536123E0
1.213867334E1	-5.196766853E-1	-8.328561783E-1	-1.885992289E0
1.214677991E1	-7.343688011E-1	-8.074278831E-1	-1.933337688E0
1.215509876E1	-9.919605255E-1	-6.936578751E-1	-1.872213364E0
1.216303876E1	-1.224945545E0	-4.369072914E-1	-1.715286016E0
1.217125176E1	-1.573193073E0	-2.793049812E-1	-1.574268103E0
1.217892226E1	-1.883918047E0	-2.014975548E-1	-1.445243597E0
1.218692895E1	-1.978104830E0	-1.672744751E-1	-1.256476402E0
1.219510672E1	-1.915364027E0	-1.782875061E-1	-1.089985609E0
1.220394730E1	-1.659052372E0	-1.870331764E-1	-9.775910378E-1
1.221143561E1	-1.378138065E0	-2.357611656E-1	-1.005348444E0
1.221997203E1	-9.461812973E-1	-3.640689850E-1	-9.931375980E-1
1.222806418E1	-5.894584656E-1	-5.746760368E-1	-9.424803257E-1
1.223613703E1	-4.041028023E-1	-7.972207069E-1	-8.671662807E-1
1.224435368E1	-4.350495338E-1	-1.077028275E0	-6.550574303E-1
1.225235934E1	-5.790829659E-1	-1.295563221E0	-4.789166451E-1
1.226020691E1	-9.607567787E-1	-1.502802372E0	-4.135606289E-1
1.226822938E1	-1.420825958E0	-1.628322601E0	-3.658444881E-1
1.227643557E1	-1.847884655E0	-1.740871906E0	-3.831961155E-1
1.229284565E1	-2.525947809E0	-1.577665806E0	-8.440432549E-1
1.230141638E1	-2.725198269E0	-1.430125713E0	-1.037726879E0
1.230942499E1	-2.791854858E0	-1.369036674E0	-1.032425046E0
1.231755972E1	-2.817529678E0	-1.291916370E0	-9.002306461E-1
1.232576518E1	-2.716541767E0	-1.158419609E0	-6.632944345E-1
1.233384341E1	-2.541261435E0	-1.034195423E0	-5.012702942E-1
1.234149322E1	-2.307977676E0	-7.688684464E-1	-4.474122524E-1
1.234972445E1	-2.092621565E0	-4.688029289E-1	-4.424382448E-1
1.235661798E1	-1.970798254E0	-2.371783257E-1	-5.791691542E-1
1.235815403E1	-1.949250460E0	-1.725349426E-1	-6.509951353E-1
1.236612249E1	-1.784656525E0	1.443085670E-1	-9.020403624E-1
1.237434595E1	-1.714029789E0	3.410110474E-1	-1.130243659E0
1.238292091E1	-1.661259651E0	4.614233971E-1	-1.194100738E0
1.239095084E1	-1.468775272E0	4.965767860E-1	-1.186523438E0
1.239916238E1	-1.205873013E0	4.292340279E-1	-1.135267258E0
1.240726007E1	-9.791159630E-1	2.606339455E-1	-1.101749420E0
1.241522699E1	-9.651126862E-1	1.695604324E-1	-1.122952342E0
1.242304603E1	-1.013615608E0	1.561655998E-1	-1.147548437E0
1.243112518E1	-1.164080620E0	2.209501266E-1	-1.238671541E0
1.243930395E1	-1.327912331E0	3.926563263E-1	-1.364472866E0
1.244750107E1	-1.465584278E0	5.311808586E-1	-1.436814666E0
1.245578257E1	-1.472604752E0	6.471304893E-1	-1.480527282E0
1.246425730E1	-1.470450401E0	7.597117424E-1	-1.468058228E0
1.247228957E1	-1.503239155E0	7.888522148E-1	-1.224896908E0
1.248079815E1	-1.355721951E0	7.619261742E-1	-8.576173782E-1
1.248863522E1	-1.320589066E0	7.388253212E-1	-7.392784357E-1
1.249670907E1	-1.178041935E0	6.730847359E-1	-7.111811042E-1
1.250442045E1	-1.070477009E0	6.780166626E-1	-7.544406056E-1
1.251247026E1	-9.302453995E-1	6.173830032E-1	-8.666643500E-1
1.252068168E1	-7.984199524E-1	5.725412369E-1	-1.043674111E0
1.252885634E1	-6.835021973E-1	4.674730301E-1	-1.294465661E0
1.253705630E1	-5.769839287E-1	2.520751953E-1	-1.453041315E0
1.254560245E1	-5.255203247E-1	2.763080597E-2	-1.505007029E0
1.255370488E1	-4.768376350E-1	-1.566066742E-1	-1.495610356E0
1.256174203E1	-3.339128494E-1	-2.827949524E-1	-1.396318197E0
1.257009064E1	-2.565250397E-1	-4.258608818E-1	-1.220281720E0
1.257796788E1	-1.696195602E-1	-5.081954002E-1	-1.015062094E0
1.258577441E1	-8.835983276E-2	-5.240006447E-1	-8.657960892E-1
1.259383288E1	-2.452850342E-3	-4.596037865E-1	-8.095719814E-1
1.260205549E1	6.697463989E-2	-3.272933960E-1	-8.689647317E-1
1.261018961E1	4.380416870E-2	-1.082096100E-1	-1.030197859E0
1.261840991E1	2.424573898E-2	1.375303268E-1	-1.241271853E0
1.262698588E1	1.211738586E-2	4.210977554E-1	-1.412581682E0
1.263504534E1	-4.618787766E-2	7.033681870E-1	-1.478806496E0
1.264312480E1	-1.858539581E-1	1.014835358E0	-1.464446664E0
1.265148272E1	-3.420453072E-1	1.326334000E0	-1.438649893E0
1.265948261E1	-5.240883827E-1	1.540647507E0	-1.354674459E0
1.266720588E1	-6.650609970E-1	1.652963638E0	-1.199558973E0
1.267520353E1	-8.847398758E-1	1.647574425E0	-1.006383538E0
1.268345499E1	-1.126467705E0	1.528354645E0	-8.009202480E-1
1.269162261E1	-1.320935488E0	1.315536499E0	-5.354486704E-1
1.269979564E1	-1.464098215E0	1.025897026E0	-3.251003325E-1
1.270841338E1	-1.554938793E0	7.709846497E-1	-1.437395513E-1
1.271643218E1	-1.482466459E0	5.617609024E-1	-4.602509737E-2
1.272451961E1	-1.257511854E0	4.312324524E-1	-1.657184958E-2
1.273285164E1	-9.902749062E-1	3.785915375E-1	-2.501451969E-2
1.274074134E1	-7.334928513E-1	3.711137772E-1	-5.466586351E-2
1.274865588E1	-4.558844566E-1	3.464736938E-1	-8.685731888E-2
1.275660472E1	-2.262020111E-1	3.151597977E-1	-7.124313712E-2
1.276492961E1	-6.037044525E-2	2.934074402E-1	-7.415196300E-2
1.277306841E1	9.840679169E-2	3.282804489E-1	-5.620867014E-2
1.278132618E1	1.801877022E-1	3.779659271E-1	2.101603150E-2
1.278807932E1	2.408680916E-1	4.251813889E-1	1.259705722E-1
1.278991176E1	2.504448891E-1	4.347581863E-1	1.499125808E-1
1.279784226E1	3.008251190E-1	4.489850998E-1	1.528206617E-1
1.280594238E1	3.910012245E-1	4.182910919E-1	1.577501893E-1
1.281420118E1	4.914569855E-1	3.585577011E-1	1.594832242E-1
1.282212726E1	5.896129608E-1	3.047628403E-1	9.063464403E-2
1.282998880E1	6.296939850E-1	2.560520172E-1	1.341146231E-2
1.283802414E1	6.570320129E-1	1.503610611E-1	-4.730631411E-2
1.284638015E1	6.227760315E-1	-1.885414124E-2	-8.989326656E-2
1.285436641E1	5.401253700E-1	-2.508649826E-1	-1.065181494E-1
1.286256645E1	4.451470375E-1	-4.749746323E-1	-1.230624914E-1
1.287117572E1	2.917494774E-1	-7.004418373E-1	-1.080196351E-1
1.287914338E1	1.086735725E-1	-8.855004311E-1	-1.031069979E-1
1.288738584E1	-1.476001740E-2	-1.032937527E0	-1.171042323E-1
1.289550580E1	-1.155428886E-1	-1.149539471E0	-1.139457375E-1
1.290353418E1	-2.337875366E-1	-1.202065468E0	-1.509311199E-1
1.291131503E1	-3.856658936E-1	-1.250663280E0	-2.490833402E-1
1.291932107E1	-5.310082436E-1	-1.261457443E0	-3.747484684E-1
1.292752188E1	-6.551136971E-1	-1.258471012E0	-5.030000806E-1
1.293574895E1	-7.696886063E-1	-1.196278095E0	-5.595728755E-1
1.294392388E1	-8.698768616E-1	-1.158594608E0	-5.446081161E-1
1.295251657E1	-9.770550728E-1	-1.100006104E0	-5.548802614E-1
1.296066899E1	-1.088757038E0	-1.078239441E0	-5.071032643E-1
1.296866565E1	-1.202285528E0	-1.105571747E0	-4.669370651E-1
1.297682107E1	-1.285964251E0	-1.141738415E0	-3.930076361E-1
1.298481918E1	-1.413480282E0	-1.198923111E0	-3.899323344E-1
1.299266557E1	-1.625815630E0	-1.295840740E0	-3.790395260E-1
1.300069557E1	-1.858794689E0	-1.388535023E0	-4.224194884E-1
1.300894576E1	-2.089785814E0	-1.490639687E0	-4.454759359E-1
1.301717149E1	-2.341065884E0	-1.640023708E0	-4.878378510E-1
1.302529338E1	-2.686052561E0	-1.769158363E0	-5.726485252E-1
1.303389095E1	-3.109760761E0	-1.936579227E0	-5.254341364E-1
1.304192464E1	-3.430200815E0	-2.063739777E0	-2.187836170E-2
1.305014018E1	-3.658054352E0	-2.292657375E0	7.737728357E-1
1.305825638E1	-3.707187176E0	-2.500318050E0	1.734071016E0
1.306618361E1	-3.628596783E0	-2.629077435E0	2.469494581E0
1.307409395E1	-3.406480789E0	-2.771001816E0	2.748155117E0
1.308218376E1	-3.256739140E0	-2.703173161E0	2.734407187E0
1.309044984E1	-3.042178154E0	-2.574748993E0	2.461947680E0
1.309858199E1	-2.967096806E0	-2.552878380E0	1.619695902E0
1.310678395E1	-2.705480576E0	-2.734082222E0	4.263818264E-1
1.311545415E1	-2.415866852E0	-3.134490013E0	-8.673512936E-1
1.312340634E1	-1.955945969E0	-3.541681767E0	-1.897216320E0
1.313159011E1	-1.374998569E0	-3.742125511E0	-2.614167213E0
1.313986199E1	-7.290623188E-1	-3.737009048E0	-3.107130527E0
1.314609213E1	-1.286735535E-1	-3.627109051E0	-3.347456694E0
1.314780072E1	7.004499435E-2	-3.588801861E0	-3.371398687E0
1.316361022E1	1.514373779E0	-2.481909275E0	-3.263483763E0
1.317047059E1	2.256461620E0	-1.812860489E0	-2.810027122E0
1.317189161E1	2.510246754E0	-1.611747742E0	-2.558636189E0
1.318006841E1	3.545174122E0	-6.020550728E-1	-1.489687204E0
1.318832518E1	4.100999355E0	-2.664089203E-3	-6.895730495E-1
1.319506009E1	4.705323696E0	-5.682420731E-2	-1.218795776E-1
1.319667811E1	4.808273792E0	-2.651200294E-1	6.008005142E-2
1.321295226E1	3.298666000E0	-2.079828262E0	1.286277771E-1
1.322120111E1	2.338912964E0	-2.546282291E0	2.332410812E-1
1.322916522E1	1.539261818E0	-2.730341196E0	3.919043541E-1
1.323697676E1	1.121042728E0	-2.751397848E0	4.632143974E-1
1.324518418E1	1.175127983E0	-2.659272432E0	4.467225075E-1
1.325321768E1	1.216885567E0	-2.324577093E0	5.272769928E-1
1.326148953E1	1.372687340E0	-2.002254009E0	7.222180367E-1
1.326972334E1	1.447895527E0	-1.633882523E0	1.029564381E0
1.327815095E1	1.376468658E0	-1.330415249E0	1.377635479E0
1.328645580E1	1.166517258E0	-8.886504173E-1	1.794563770E0
1.329443653E1	7.966752052E-1	-6.528139114E-1	1.893331528E0
1.330317538E1	5.264163017E-1	-4.245319366E-1	1.318428993E0
1.331194272E1	7.434191704E-1	-3.101997375E-1	5.765480995E-1
1.331800271E1	7.297043800E-1	-3.421554565E-1	-3.357505798E-2
1.331938718E1	7.153391838E-1	-4.331350327E-1	-1.724386215E-1
1.332747868E1	4.911842346E-1	-7.713360786E-1	-4.775395393E-1
1.333569141E1	2.921037674E-1	-1.114219666E0	-4.325046539E-1
1.334384857E1	1.371250153E-1	-1.474737167E0	-2.544736862E-2
1.335201480E1	-6.224918365E-2	-1.757254124E0	3.080840111E-1
1.336066372E1	-3.641409874E-1	-1.910695314E0	6.476926804E-1
1.336865730E1	-5.947813988E-1	-2.057431698E0	9.947400093E-1
1.337678611E1	-5.201239586E-1	-2.004768848E0	1.303478718E0
1.338508799E1	-4.326930046E-1	-1.657116413E0	1.548738003E0
1.339293238E1	-2.588167191E-1	-1.118378639E0	1.823181152E0
1.340082780E1	-3.179388046E-1	-3.751006126E-1	2.046637058E0
1.340895222E1	-4.559631348E-1	2.987058163E-1	2.103890419E0
1.341722684E1	-7.189598083E-1	9.408893585E-1	2.227348804E0
1.342525653E1	-6.223821640E-1	1.306109667E0	2.302633286E0
1.343211748E1	-7.003712654E-1	1.532320738E0	2.366796017E0
1.343387384E1	-7.195248604E-1	1.534714937E0	2.390738010E0
1.344193868E1	-6.391777992E-1	1.403791428E0	2.378073692E0
1.345009445E1	-6.043500900E-1	1.071545124E0	2.234945774E0
1.345819703E1	-8.850779533E-1	6.723444462E-1	1.979637623E0
1.346643022E1	-6.810545921E-1	1.208932400E-1	1.652725220E0
1.347443276E1	-5.905137062E-1	-1.442744732E-1	1.550709724E0
1.348232380E1	-7.040281296E-1	-1.073086262E-1	1.533806801E0
1.349025264E1	-5.037178993E-1	-5.837225914E-2	1.303271294E0
1.349854941E1	-4.898691177E-1	2.813839912E-1	1.436626434E0
1.350667311E1	4.029159546E-1	2.745842934E-2	1.475393295E0
1.351517822E1	5.695548058E-1	3.206050396E-2	2.247078896E0
1.352340918E1	6.132874489E-1	6.932199001E-2	2.893806458E0
1.353147588E1	7.255239487E-1	-6.628370285E-2	3.458137512E0
1.353980688E1	5.594177246E-1	-4.789030552E-2	4.073064804E0
1.354600555E1	9.678945541E-1	-4.105032682E-1	4.301536560E0
1.354781257E1	1.233651161E0	-6.523176432E-1	4.330266953E0
1.355576476E1	1.398508549E0	-8.768024445E-1	4.546174049E0
1.356367614E1	1.321033955E0	-9.278992414E-1	4.658590317E0
1.357184972E1	1.369145870E0	-8.517353535E-1	4.384897232E0
1.358035049E1	1.503081799E0	-6.868088245E-1	4.089325905E0
1.358819607E1	1.412830830E0	-4.161630869E-1	3.875487328E0
1.359630103E1	1.323392868E0	-1.107680798E-1	3.574777603E0
1.360494603E1	1.157013893E0	2.451593876E-1	3.244181633E0
1.361355532E1	5.943698883E-1	6.082717180E-1	2.876082420E0
1.362104299E1	1.439437866E-1	7.999123335E-1	2.710588455E0
1.362921645E1	-1.343617439E-1	8.135443926E-1	2.679446220E0
1.363721611E1	-4.216122627E-1	7.990976572E-1	2.637154579E0
1.364506991E1	-6.136078835E-1	8.082761765E-1	2.612778664E0
1.365317730E1	-8.335068226E-1	8.734365702E-1	2.625774384E0
1.366135007E1	-1.021090746E0	9.551687241E-1	2.674559593E0
1.366950968E1	-1.175838470E0	9.752100706E-1	2.635440826E0
1.367789841E1	-1.278277159E0	9.246919155E-1	2.765542984E0
1.368617361E1	-1.203133583E0	8.070060015E-1	2.839413643E0
1.369441161E1	-1.046067476E0	6.705423594E-1	2.846162796E0
1.370243861E1	-8.524832726E-1	4.852428436E-1	2.811152458E0
1.371079372E1	-5.904417038E-1	2.561284304E-1	2.771442413E0
1.371866276E1	-2.522482872E-1	9.367227554E-3	2.761891365E0
1.372643211E1	1.537928581E-1	-1.897550821E-1	2.787998199E0
1.373463895E1	5.489091873E-1	-2.981106043E-1	2.821969986E0
1.374311676E1	8.492965698E-1	-3.276135921E-1	2.726922035E0
1.375117926E1	9.148578644E-1	-3.100305796E-1	2.703287125E0
1.375937141E1	9.047265053E-1	-3.271957636E-1	2.611914635E0
1.376771949E1	8.383655548E-1	-3.392901421E-1	2.536540985E0
1.377585234E1	7.484955788E-1	-2.658516169E-1	2.573201180E0
1.378393730E1	6.329817772E-1	-2.607043982E-1	2.363815308E0
1.379215668E1	4.729504585E-1	-2.283687592E-1	2.100899696E0
1.380012722E1	1.609244347E-1	-2.182985544E-1	1.902989388E0
1.380802326E1	-1.168212891E-1	-2.701649666E-1	1.754961014E0
1.381608064E1	-3.723511696E-1	-2.997004986E-1	1.636782646E0
1.382429472E1	-5.799989700E-1	-3.208248615E-1	1.508160591E0
1.383108251E1	-6.548676491E-1	-3.462696075E-1	1.406421661E0
1.383238230E1	-6.692328453E-1	-3.151450157E-1	1.363326073E0
1.384061638E1	-7.058424950E-1	-2.151012421E-1	1.280413628E0
1.384925199E1	-6.981649399E-1	-3.249382973E-2	1.344794273E0
1.385719826E1	-7.436137199E-1	1.512613297E-1	1.445848465E0
1.386536841E1	-8.112568855E-1	2.814154625E-1	1.474125385E0
1.387355253E1	-8.078699112E-1	3.073203564E-1	1.477762222E0
1.388151788E1	-8.080964088E-1	3.411142826E-1	1.418917656E0
1.388934580E1	-7.906556129E-1	3.092205524E-1	1.316815853E0
1.389734922E1	-7.706389427E-1	2.115535736E-1	1.231921673E0
1.390555480E1	-8.156070709E-1	7.160449028E-2	1.229496002E0
1.391381453E1	-7.824225426E-1	-1.676578522E-1	1.312294006E0
1.392197972E1	-7.618198395E-1	-3.713054657E-1	1.406467438E0
1.393056318E1	-7.749543190E-1	-5.047709942E-1	1.471364021E0
1.393864510E1	-7.835440636E-1	-5.959410667E-1	1.418678761E0
1.394668857E1	-7.929611206E-1	-5.809454918E-1	1.374100208E0
1.395485607E1	-7.612471581E-1	-5.072662830E-1	1.338761806E0
1.396294080E1	-7.071313858E-1	-4.170134068E-1	1.309757233E0
1.397072441E1	-6.206750870E-1	-3.625741005E-1	1.221396923E0
1.397877353E1	-5.167484283E-1	-3.590121269E-1	1.140323162E0
1.398698514E1	-4.708747864E-1	-3.826782703E-1	1.012509346E0
1.399519430E1	-3.698339462E-1	-4.643371105E-1	9.826903343E-1
1.400338957E1	-2.890868187E-1	-5.653254986E-1	9.893617630E-1
1.401194784E1	-1.081514359E-1	-6.832468510E-1	9.445447922E-1
1.402000872E1	1.999902725E-2	-7.619709969E-1	1.014399529E0
1.402811168E1	1.214113235E-1	-8.967988491E-1	1.055793285E0
1.403636999E1	2.110085487E-1	-9.958264828E-1	1.102519035E0
1.404432230E1	1.198844910E-1	-1.056163788E0	9.631690979E-1
1.405217695E1	1.094436646E-2	-9.800162315E-1	7.268376350E-1
1.406020049E1	-2.761507034E-2	-8.910083771E-1	7.021126747E-1
1.406847788E1	-1.690626144E-2	-7.618532181E-1	6.853423119E-1
1.407666410E1	6.926822662E-2	-5.789957047E-1	6.419935226E-1
1.408481657E1	7.855176926E-2	-3.934507370E-1	5.618076324E-1
1.409337007E1	6.573295593E-2	-1.798930168E-1	5.305161476E-1
1.410168207E1	7.729244232E-2	3.150320053E-2	4.630241394E-1
1.410954249E1	-1.232032776E-1	1.542010307E-1	2.180566788E-1
1.411774653E1	-5.998468399E-2	2.972927094E-1	5.247116089E-3
1.412575138E1	-6.166028976E-2	3.184957504E-1	-1.630258560E-1
1.413363210E1	-4.759454727E-2	3.291845322E-1	-2.383646965E-1
1.414166707E1	2.898406982E-2	4.154763222E-1	-4.035582542E-1
1.414994664E1	1.964602470E-1	5.513792038E-1	-6.303319931E-1
1.415816534E1	2.110428810E-1	6.182751656E-1	-7.238116264E-1
1.416623238E1	3.166613579E-1	7.676239014E-1	-7.561464310E-1
1.417482788E1	4.963159561E-1	9.333958626E-1	-8.037409782E-1
1.418296253E1	7.514410019E-1	1.038736343E0	-9.421925545E-1
1.419104284E1	1.003980160E0	1.189103127E0	-1.012673378E0
1.419925788E1	1.138038635E0	1.097798824E0	-1.123162270E0
1.420739391E1	1.279578686E0	1.090994835E0	-1.160044193E0
1.421502803E1	1.327019215E0	9.963965416E-1	-1.263075829E0
1.422322134E1	1.084326744E0	9.983048439E-1	-1.314518452E0
1.423127760E1	6.679039001E-1	9.931421280E-1	-1.283784866E0
1.423945714E1	3.143644333E-1	9.698309898E-1	-1.271477699E0
1.424764311E1	-1.651668549E-2	6.652541161E-1	-1.268723488E0
1.425622684E1	-4.148645401E-1	5.121307373E-1	-1.170624018E0
1.426261920E1	-7.156519890E-1	3.974919319E-1	-1.085650682E0
1.426438922E1	-8.018431664E-1	3.927035332E-1	-1.135928869E0
1.428855584E1	-1.777187824E0	2.107110023E-1	-1.379751682E0
1.429646110E1	-1.951414347E0	8.789443970E-2	-1.366026402E0
1.430458072E1	-1.984998941E0	-1.505665779E-1	-1.327658176E0
1.431262964E1	-1.783032417E0	-4.840931892E-1	-1.229808569E0
1.432077649E1	-1.445508003E0	-9.314427376E-1	-1.050045013E0
1.432899099E1	-1.110954285E0	-1.313559532E0	-9.091632366E-1
1.433758053E1	-9.510946274E-1	-1.655157089E0	-6.122775078E-1
1.434566164E1	-8.796296120E-1	-2.006778240E0	-2.348680496E-1
1.435422960E1	-1.050743580E0	-2.249435425E0	-7.443594933E-2
1.436204026E1	-1.327152729E0	-2.387949944E0	2.541303635E-3
1.436991791E1	-1.663110733E0	-2.373907089E0	-1.532354355E-1
1.437775549E1	-2.061726332E0	-2.240273952E0	-5.323500633E-1
1.438577357E1	-2.380314827E0	-2.054336548E0	-8.893785477E-1
1.439394176E1	-2.648766279E0	-1.822347641E0	-1.186786771E0
1.440215753E1	-2.824120522E0	-1.577897072E0	-1.476767540E0
1.441036218E1	-2.848267555E0	-1.392210007E0	-1.765640497E0
1.441892914E1	-2.832664967E0	-1.200180531E0	-1.930805683E0
1.442718211E1	-2.766233444E0	-1.135577679E0	-1.874036312E0
1.443521941E1	-2.677411318E0	-1.113596916E0	-1.601999164E0
1.444333964E1	-2.517989874E0	-1.101636887E0	-1.364238262E0
1.445134834E1	-2.380395889E0	-1.136672020E0	-1.279381990E0
1.445925018E1	-2.398030281E0	-1.154335976E0	-1.187966585E0
1.446747172E1	-2.494039774E0	-1.138370037E0	-1.060060024E0
1.447562426E1	-2.637070894E0	-1.009093761E0	-1.002278805E0
1.448375091E1	-2.760653019E0	-9.574155807E-1	-9.778345227E-1
1.449195280E1	-2.797280312E0	-9.287233353E-1	-1.003785610E0
1.450050272E1	-2.892610073E0	-8.826665878E-1	-1.042374611E0
1.450858641E1	-2.924195290E0	-8.028964996E-1	-1.048188925E0
1.451667330E1	-3.033210278E0	-6.084761620E-1	-1.060514331E0
1.452487049E1	-3.018423557E0	-2.325782776E-1	-1.139105558E0
1.453286403E1	-2.718401670E0	2.352676392E-1	-1.142323017E0
1.454067168E1	-2.454726219E0	6.668586731E-1	-9.603644013E-1
1.454870634E1	-2.078796387E0	1.121564865E0	-4.836682081E-1
1.455693564E1	-1.725078106E0	1.486871243E0	-3.881192207E-1
1.456514280E1	-1.443408012E0	1.791409016E0	-3.430354595E-1
1.457330760E1	-1.262626648E0	2.056816578E0	-3.327003717E-1
1.458188241E1	-1.094845772E0	2.288809776E0	-4.641619027E-1
1.459000930E1	-9.905571938E-1	2.368374825E0	-7.233064175E-1
1.459803203E1	-9.503397942E-1	2.290833950E0	-1.035585761E0
1.460622430E1	-8.705201149E-1	2.086370468E0	-1.324338555E0
1.461425661E1	-7.813186646E-1	1.773221970E0	-1.457715273E0
1.462212341E1	-5.947766304E-1	1.389647484E0	-1.326774001E0
1.463021037E1	-4.283957481E-1	9.501008987E-1	-1.110954523E0
1.463834141E1	-2.753438950E-1	4.673128128E-1	-8.663892746E-1
1.464661334E1	-2.094292641E-1	7.724571228E-2	-6.405420303E-1
1.465483022E1	1.019716263E-2	-2.477121353E-1	-6.302857995E-1
1.466333253E1	3.357515335E-1	-4.378595352E-1	-7.348420620E-1
1.467140168E1	7.121968269E-1	-4.792876244E-1	-9.988678694E-1
1.467945395E1	1.044173717E0	-4.587244987E-1	-1.322816849E0
1.468773237E1	1.306933403E0	-3.700060844E-1	-1.670037270E0
1.469569030E1	1.387794495E0	-2.638225555E-1	-1.888178587E0
1.470351314E1	1.326740742E0	-2.002429962E-1	-1.960572004E0
1.471164172E1	1.159170151E0	-1.685276031E-1	-1.789896727E0
1.471975245E1	8.678131104E-1	-2.010288239E-1	-1.391249180E0
1.472794530E1	6.165847778E-1	-2.672562599E-1	-1.066561699E0
1.473611422E1	4.111847878E-1	-3.605008125E-1	-8.071491122E-1
1.474468645E1	1.610870361E-1	-4.425234795E-1	-6.756962538E-1
1.475276418E1	-9.163522720E-2	-4.918780327E-1	-6.365673542E-1
1.476084364E1	-3.650727272E-1	-4.205980301E-1	-6.061729193E-1
1.476913295E1	-6.507573128E-1	-2.433142662E-1	-5.849274397E-1
1.477704749E1	-9.232316017E-1	7.337570190E-3	-5.569967628E-1
1.478489691E1	-1.209772587E0	3.614835739E-1	-5.374848843E-1
1.479291580E1	-1.536316395E0	7.190885544E-1	-5.285466909E-1
1.480112995E1	-1.818918943E0	1.028197289E0	-4.766075611E-1
1.480949253E1	-1.968343735E0	1.236625671E0	-2.999896407E-1
1.481753353E1	-2.180502653E0	1.415324211E0	-1.106933355E-1
1.482618476E1	-2.164278746E0	1.480974197E0	1.900350749E-1
1.483427384E1	-2.179889917E0	1.519012451E0	3.684474230E-1
1.484227091E1	-2.049181700E0	1.530487061E0	3.788916469E-1
1.485057984E1	-1.638202667E0	1.421239853E0	3.854349256E-1
1.485845164E1	-1.039678097E0	1.187542915E0	4.556920826E-1
1.486626391E1	-4.819173813E-1	9.359350204E-1	5.312998891E-1
1.487435637E1	8.327102661E-2	6.756763458E-1	5.282238722E-1
1.488255280E1	5.668058395E-1	4.179315567E-1	3.870268166E-1
1.489071207E1	1.003478050E0	1.153240204E-1	1.363782287E-1
1.489896491E1	1.262186527E0	-1.259126663E-1	-8.548843861E-2
1.490749522E1	1.378088474E0	-3.585033417E-1	-2.462472916E-1
1.491568441E1	1.393080235E0	-5.605535507E-1	-3.176216781E-1
1.492382753E1	1.315596104E0	-7.344965935E-1	-2.845293283E-1
1.493187684E1	1.211767673E0	-8.872232437E-1	-1.470734477E-1
1.493986095E1	1.161836147E0	-9.402484894E-1	-4.777589440E-2
1.494766564E1	1.034073830E0	-9.617586136E-1	9.122386575E-2
1.495574230E1	8.426070213E-1	-9.107918739E-1	3.169551194E-1
1.496393407E1	6.953215599E-1	-8.701086044E-1	4.790181518E-1
1.497214807E1	6.032614708E-1	-8.385214806E-1	5.328333378E-1
1.498031364E1	5.372304916E-1	-7.645382881E-1	5.112413764E-1
1.498890810E1	4.569320679E-1	-6.350445747E-1	4.245868921E-1
1.499715568E1	3.205423355E-1	-4.949302673E-1	3.513594270E-1
1.500510768E1	1.584787369E-1	-3.458456993E-1	2.508133352E-1
1.501324353E1	-9.160518646E-3	-2.439308167E-1	2.104628235E-1
1.502152953E1	-1.584682465E-1	-1.496400833E-1	1.831105351E-1
1.502907984E1	-3.072810173E-1	-7.826519012E-2	1.932739317E-1
1.503712691E1	-3.923249245E-1	-1.785659790E-2	2.738498747E-1
1.504562161E1	-4.898595810E-1	-1.016807556E-2	3.629796207E-1
1.505352572E1	-6.006259918E-1	-1.640415192E-2	3.593447208E-1
1.506170391E1	-7.036352158E-1	-4.971027374E-2	3.278580904E-1
1.507029514E1	-7.529420853E-1	-9.123802185E-2	3.123611510E-1
1.507833091E1	-7.951369286E-1	-1.402816772E-1	2.708401978E-1
1.508641284E1	-8.374352455E-1	-1.871919632E-1	2.429350615E-1
1.509463780E1	-8.393487930E-1	-1.958456039E-1	2.688178420E-1
1.510266118E1	-8.644194603E-1	-1.940689087E-1	3.052042723E-1
1.511050507E1	-8.490948677E-1	-1.978874207E-1	3.116335273E-1
1.512668307E1	-8.923544884E-1	-3.471193314E-1	1.690531969E-1
1.513501999E1	-9.590501785E-1	-4.868531227E-1	2.299731970E-2
1.514308580E1	-1.066271782E0	-6.805624962E-1	-1.239977479E-1
1.515172991E1	-1.219758511E0	-9.847311974E-1	-3.102467060E-1
1.515977199E1	-1.344619513E0	-1.296996117E0	-5.235606432E-1
1.516787076E1	-1.500782728E0	-1.663122177E0	-7.458506227E-1
1.517607126E1	-1.758120775E0	-2.101988316E0	-9.509744644E-1
1.518402445E1	-2.013178349E0	-2.561972141E0	-1.115512729E0
1.519183772E1	-2.230820894E0	-2.972586155E0	-1.167567372E0
1.520006707E1	-2.439994335E0	-3.371850491E0	-9.876226783E-1
1.520821899E1	-2.789801836E0	-3.619369507E0	-9.300092459E-1
1.521642310E1	-3.080946684E0	-3.811204433E0	-8.800946474E-1
1.522464157E1	-3.497778416E0	-3.984744072E0	-8.845206499E-1
1.523318710E1	-3.548508406E0	-4.002931595E0	-1.066310763E0
1.524124572E1	-3.671806335E0	-3.997287273E0	-1.462027192E0
1.524932834E1	-3.828929424E0	-4.037891865E0	-1.887386203E0
1.525759445E1	-3.914844751E0	-4.048488617E0	-2.190459967E0
1.526554930E1	-3.950756550E0	-3.973906040E0	-2.185008049E0
1.527334803E1	-3.852105379E0	-3.789838791E0	-1.874383807E0
1.528157141E1	-3.399237156E0	-3.417441368E0	-1.273825169E0
1.528972937E1	-2.302747488E0	-2.632849216E0	-9.071803093E-2
1.529791741E1	-1.028208256E0	-1.403300285E0	1.231077194E0
1.530617545E1	7.832145691E-2	-1.841773987E-1	2.323140621E0
1.531463503E1	9.699382782E-1	4.662799835E-1	3.117943764E0
1.533102949E1	2.149383545E0	4.461717606E-1	1.448307991E0
1.533914091E1	2.942319870E0	-1.496748924E-1	9.852981567E-2
1.534714610E1	3.501748085E0	-8.451819420E-1	-1.271553993E0
1.535495510E1	3.623387337E0	-1.174378872E0	-2.208026886E0
1.536350241E1	3.730692387E0	-1.172285080E0	-3.277387619E0
1.537125053E1	3.855517387E0	-3.312997818E-1	-3.818691254E0
1.537935807E1	4.145932198E0	1.027423382E0	-3.137713671E0
1.538754995E1	3.350972176E0	1.825781345E0	-1.677531958E0
1.539605922E1	2.149931431E0	1.454385757E0	2.347235680E-1
1.540438276E1	1.187597275E0	7.579011917E-1	1.519787312E0
1.541235926E1	3.999052048E-1	3.441972733E-1	1.979928017E0
1.542056645E1	8.509492874E-2	3.400802612E-3	1.427999020E0
1.542852884E1	-3.392124176E-2	-2.426395416E-1	3.347029686E-1
1.543633580E1	-1.161293983E-1	-5.263800621E-1	-6.619691849E-1
1.544451299E1	3.002357483E-2	-6.858386993E-1	-1.277766228E0
1.545270803E1	4.236688614E-1	-6.945524216E-1	-1.240100384E0
1.546098034E1	7.410593033E-1	-9.094777107E-1	-8.231148720E-1
1.546910864E1	1.027453423E0	-1.312891006E0	-2.427139282E-1
1.547772418E1	1.545331955E0	-1.867477417E0	2.104263306E-1
1.548573299E1	1.843159676E0	-2.181548595E0	5.988035202E-1
1.549393099E1	2.127854824E0	-2.537808418E0	9.075279236E-1
1.550256345E1	2.196780205E0	-2.641097307E0	1.150414467E0
1.551107341E1	2.263050079E0	-2.827596664E0	1.263232231E0
1.551910822E1	1.892946720E0	-2.824680567E0	1.684555531E0
1.552717787E1	1.259569168E0	-2.738923311E0	2.321346283E0
1.553539595E1	4.927363396E-1	-2.729708195E0	2.941980839E0
1.554354357E1	-2.865085602E-1	-2.648606777E0	3.199669838E0
1.555169026E1	-9.066057205E-1	-2.473583937E0	2.892519474E0
1.556029453E1	-1.154837132E0	-2.116530895E0	2.202531815E0
1.556829764E1	-8.799991608E-1	-1.741505623E0	1.198164463E0
1.557642122E1	-5.607218742E-1	-1.211515427E0	2.110290527E-2
1.558461030E1	-3.170518875E-1	-5.423362255E-1	-6.037073135E-1
1.559262214E1	-3.390908241E-1	1.525475979E-1	-6.075010300E-1
1.560049164E1	-1.274604797E-1	7.373712063E-1	-1.125979424E-1
1.560849837E1	1.203618050E-1	1.140199900E0	3.474559784E-1
1.561673718E1	2.344961166E-1	1.182406187E0	8.257536888E-1
1.562487360E1	1.077270508E-1	8.150272369E-1	1.221125603E0
1.563310726E1	-4.988136292E-1	3.071434498E-1	1.393586159E0
1.564170926E1	-2.573304176E-1	-1.073472261E0	8.671064377E-1
1.564973464E1	-6.751141548E-1	-1.463762164E0	9.420909882E-1
1.565779445E1	-6.633491516E-1	-1.744699001E0	1.339108467E0
1.566601676E1	-4.207158089E-1	-1.861213803E0	1.504485130E0
1.567400676E1	-8.314657211E-2	-1.831797600E0	1.889880180E0
1.568181110E1	5.076098442E-1	-1.928415537E0	1.999106407E0
1.568993657E1	1.991567612E-1	-1.682168722E0	2.219350815E0
1.569810287E1	7.924108505E-1	-2.047138929E0	1.995700836E0
1.570625426E1	8.739194870E-1	-2.360676765E0	2.132242203E0
1.571448968E1	6.133813858E-1	-2.192662239E0	2.345248222E0
1.572302418E1	4.343895912E-1	-1.752047539E0	2.123084068E0
1.573109830E1	4.122390747E-1	-1.287438393E0	1.817536354E0
1.573915991E1	2.693200111E-1	-6.760526896E-1	1.686312675E0
1.574744510E1	-2.066469193E-2	-7.935261726E-2	1.749388695E0
1.575535010E1	-1.966743469E-1	4.454870224E-1	1.718085289E0
1.576315799E1	-2.195744514E-1	8.710978031E-1	1.648379326E0
1.577132568E1	-2.618718147E-1	9.999868870E-1	1.824071884E0
1.577950710E1	-3.415870667E-1	1.021172166E0	2.043109894E0
1.578759299E1	-5.257062912E-1	8.519588709E-1	2.127515793E0
1.579577803E1	-5.650959015E-1	4.825570583E-1	2.142560959E0
1.580443437E1	-4.689643383E-1	1.980760098E-1	2.388601303E0
1.581248618E1	-1.192891598E-1	5.776190758E-2	2.678140640E0
1.582061776E1	2.994492054E-1	6.593286991E-2	2.717622757E0
1.582882180E1	6.566545963E-1	5.799746513E-2	2.900894165E0
1.583680653E1	7.514414787E-1	3.708672523E-2	2.991640091E0
1.584463337E1	7.934954166E-1	5.329978466E-2	2.926173210E0
1.585282118E1	7.297866344E-1	-6.585407257E-2	2.735305786E0
1.586083937E1	5.675725937E-1	-2.852038145E-1	2.598690033E0
1.586920764E1	4.160151482E-1	-5.620695353E-1	2.629744530E0
1.587717295E1	2.614383698E-1	-6.614391208E-1	2.586706161E0
1.588560376E1	2.399640083E-1	-4.776490927E-1	2.518918991E0
1.589388010E1	4.062275887E-1	-1.444607973E-1	2.660708427E0
1.590202287E1	6.458952427E-1	6.763684750E-2	2.744249344E0
1.591021514E1	7.110486031E-1	1.458224058E-1	3.037982941E0
1.591821107E1	6.750466824E-1	1.775306463E-1	3.315059662E0
1.592594349E1	4.524424076E-1	1.793479919E-1	3.396108627E0
1.593421314E1	2.388134003E-1	1.604019403E-1	3.280998230E0
1.594244395E1	2.294175625E-1	7.472729683E-2	2.952548981E0
1.595083807E1	3.475136757E-1	-4.803812504E-2	2.542401314E0
1.595873580E1	5.109741688E-1	-2.419760227E-1	2.237356186E0
1.596738422E1	5.206933022E-1	-4.485270977E-1	2.262511253E0
1.597551964E1	5.382633209E-1	-5.592573881E-1	2.423343658E0
1.598357307E1	5.048112869E-1	-5.771646500E-1	2.532843590E0
1.599180857E1	3.893055916E-1	-4.986293316E-1	2.511150360E0
1.599982257E1	3.910846710E-1	-4.617006779E-1	2.411035538E0
1.600748149E1	5.310811996E-1	-4.249925613E-1	2.342846870E0
1.601419200E1	6.740646362E-1	-4.020286798E-1	2.280689240E0
1.601556876E1	7.004008293E-1	-3.876634836E-1	2.230411530E0
1.602385018E1	6.761140823E-1	-3.899397850E-1	2.081019402E0
1.603194445E1	4.922280312E-1	-3.383997679E-1	1.932210922E0
1.604008507E1	3.382372856E-1	-2.708737850E-1	1.759770393E0
1.604865353E1	2.282128334E-1	-2.476367950E-1	1.700438499E0
1.605674645E1	9.166812897E-2	-2.662975788E-1	1.565635681E0
1.606481203E1	-1.277265549E-1	-3.450503349E-1	1.310978889E0
1.607298268E1	-2.744131088E-1	-4.552824497E-1	1.140153885E0
1.608102887E1	-4.872908592E-1	-4.573175907E-1	1.069808006E0
1.608905791E1	-6.220564842E-1	-4.262099266E-1	1.048924446E0
1.609691760E1	-7.193381786E-1	-3.542804718E-1	1.084526062E0
1.610514010E1	-7.919113636E-1	-2.871100903E-1	1.136415482E0
1.611337587E1	-8.910768032E-1	-2.504191399E-1	1.250488281E0
1.612158776E1	-8.878266811E-1	-2.464802265E-1	1.263076782E0
1.613016056E1	-9.752728939E-1	-2.142264843E-1	1.071826935E0
1.613833137E1	-9.848778248E-1	-2.522625923E-1	9.329204559E-1
1.614620549E1	-9.406518936E-1	-3.135812283E-1	8.536438942E-1
1.615511731E1	-9.339456558E-1	-3.950922489E-1	8.035197258E-1
1.616241134E1	-8.646831512E-1	-5.181939602E-1	7.969536781E-1
1.617022553E1	-7.650504112E-1	-6.318345070E-1	7.713675499E-1
1.617840499E1	-5.775771141E-1	-7.984621525E-1	7.457556725E-1
1.618646672E1	-4.272942543E-1	-8.968448639E-1	7.064089775E-1
1.619470284E1	-1.445875168E-1	-9.698097706E-1	7.045030594E-1
1.620301645E1	1.127014160E-1	-9.757654667E-1	8.172807693E-1
1.621142180E1	3.050241470E-1	-8.998446465E-1	9.564361572E-1
1.621978395E1	3.752617836E-1	-6.968126297E-1	1.003289223E0
1.622767695E1	2.880301476E-1	-4.204647541E-1	9.592032433E-1
1.623577384E1	2.886567116E-1	-1.677041054E-1	8.275170326E-1
1.624402018E1	3.294720650E-1	2.107048035E-2	6.583166122E-1
1.625161895E1	5.048317909E-1	1.414067745E-1	5.111603737E-1
