"Time (s)"	"Acceleration x (m/s^2)"	"Acceleration y (m/s^2)"	"Acceleration z (m/s^2)"
6.975077000E-3	1.843535304E-1	-2.992752194E-1	9.023746490E0
9.930611000E-3	5.434837937E-1	-4.189853072E-1	9.200917244E0
1.115788500E-2	1.161187768E0	-6.464344859E-1	9.248801231E0
1.401961100E-2	1.321599364E0	-7.781155705E-1	9.279925346E0
1.522492300E-2	1.072602391E0	-8.451532125E-1	9.457097054E0
1.810826500E-2	7.350199223E-1	-9.481038451E-1	9.674968719E0
1.958300000E-2	4.932055473E-1	-1.067813993E0	9.840168953E0
2.219757300E-2	3.591302633E-1	-1.163581967E0	9.940725327E0
2.386611600E-2	2.609679997E-1	-1.189918280E0	1.000776291E1
2.622776500E-2	2.346317619E-1	-1.161187768E0	1.002212811E1
2.753307700E-2	1.843535304E-1	-1.067813993E0	1.003888798E1
3.028199600E-2	1.244984865E-1	-9.385270476E-1	1.004128170E1
3.196057700E-2	2.873042040E-2	-7.134721279E-1	1.008198357E1
3.435634200E-2	-9.576806799E-3	-6.344634295E-1	1.011310768E1
3.557380800E-2	-8.379705995E-2	-4.836287498E-1	1.016817474E1
3.841065000E-2	-3.112462163E-1	-3.375824392E-1	1.007480049E1
3.992196200E-2	-1.328781962E0	-1.197100878E-1	9.390059471E0
4.234807700E-2	-1.572990537E0	-6.703764945E-2	9.301473618E0
4.363750000E-2	-1.821987510E0	9.097966552E-2	9.358934402E0
4.649215000E-2	-1.867477298E0	3.040636182E-1	9.617507935E0
4.788930800E-2	-1.776497602E0	5.746083856E-1	1.010592556E1
5.041823100E-2	-1.632845521E0	6.919242740E-1	1.055124664E1
5.171942300E-2	-1.434126854E0	7.900865674E-1	1.108515358E1
5.460034200E-2	-1.163581967E0	8.427590132E-1	1.170764637E1
5.623461600E-2	-8.810662031E-1	8.068459630E-1	1.245703125E1
5.865534200E-2	-6.129156351E-1	6.943184733E-1	1.318247414E1
5.983157700E-2	-3.303998411E-1	5.051765442E-1	1.356554699E1
6.270930400E-2	-2.154781483E-2	2.178723514E-1	1.346977901E1
6.435907700E-2	3.016694188E-1	-1.316810995E-1	1.308191776E1
6.676315000E-2	6.129156351E-1	-5.075707436E-1	1.265096188E1
6.794446200E-2	8.906430602E-1	-8.738836050E-1	1.233971596E1
7.081661100E-2	1.199495077E0	-1.185129881E0	1.221761131E1
7.232146200E-2	1.577778935E0	-1.484405041E0	1.223437023E1
7.487580400E-2	2.047042370E0	-1.783680320E0	1.225591850E1
7.604915400E-2	2.533065319E0	-2.027888775E0	1.220085144E1
7.892865000E-2	2.971204281E0	-2.209848166E0	1.208832455E1
8.046657700E-2	3.315969467E0	-2.346317768E0	1.196382618E1
8.300307300E-2	3.383007050E0	-2.341529369E0	1.194227791E1
8.420642300E-2	3.251325846E0	-2.236184359E0	1.203325748E1
8.705603400E-2	3.143586874E0	-2.176329374E0	1.205480576E1
8.827923100E-2	3.126827478E0	-2.178723574E0	1.194706631E1
9.115195700E-2	3.203441858E0	-2.142810583E0	1.163582039E1
9.236846200E-2	3.363853455E0	-2.051830769E0	1.117134476E1
9.523972700E-2	3.521870613E0	-1.972822189E0	1.065419769E1
9.676253900E-2	3.569754839E0	-1.953668594E0	9.991003990E0
9.930026500E-2	3.536235809E0	-1.958456993E0	9.816226959E0
1.004761160E-1	3.418920040E0	-1.948880196E0	9.550470352E0
1.033536110E-1	3.258508444E0	-1.893813491E0	9.409213066E0
1.050524620E-1	2.992752075E0	-1.723825216E0	9.296685219E0
1.074119960E-1	2.904166698E0	-1.661576033E0	9.255983353E0
1.085970390E-1	2.750937700E0	-1.537077546E0	9.160215378E0
1.114664570E-1	2.655169725E0	-1.410184860E0	9.066842079E0
1.129921930E-1	2.619256735E0	-1.235408068E0	8.913613319E0
1.155273800E-1	2.590526342E0	-1.192312479E0	8.868123055E0
1.167132690E-1	2.456450939E0	-1.125274777E0	8.808267593E0
1.195808030E-1	2.085349798E0	-1.007958889E0	8.841787338E0
1.211963080E-1	1.987187386E0	-8.930372596E-1	8.877699852E0
1.235423080E-1	2.059013367E0	-7.541735172E-1	8.906430244E0
1.248179620E-1	2.219424963E0	-6.440402865E-1	8.884882927E0
1.276622260E-1	2.370259762E0	-5.722141862E-1	8.822632790E0
1.292568080E-1	2.367865562E0	-4.644751251E-1	8.913613319E0
1.316660770E-1	2.322375536E0	-3.615244627E-1	9.052476883E0
1.330080770E-1	2.260126352E0	-2.418143749E-1	9.258378029E0
1.358755730E-1	2.118868589E0	1.436521020E-2	9.651026726E0
1.373935390E-1	2.102109194E0	1.915361285E-1	9.931148529E0
1.399343420E-1	2.157175779E0	2.082955539E-1	9.900024414E0
1.411135390E-1	2.020706177E0	9.816227108E-2	9.588777542E0
1.439870340E-1	1.728613615E0	-4.309562966E-2	9.184157372E0
1.456546160E-1	1.496376038E0	-1.316810995E-1	8.796297073E0
1.480451490E-1	1.352723956E0	-2.154781520E-1	8.358158112E0
1.492246160E-1	1.244984865E0	-3.064578176E-1	7.857769966E0
1.520976880E-1	1.177947283E0	-4.141969085E-1	7.388506413E0
1.536316160E-1	1.165976286E0	-4.788403511E-1	7.026981831E0
1.561728420E-1	1.137245774E0	-3.782838583E-1	6.727706909E0
1.573573850E-1	1.029506683E0	-2.873042040E-2	6.375759125E0
1.602267650E-1	1.029506683E0	2.513911724E-1	6.121973515E0
1.618110770E-1	1.137245774E0	2.154781520E-1	6.155492783E0
1.642865340E-1	1.156399369E0	1.292868853E-1	6.251260757E0
1.654927310E-1	1.175553083E0	-5.267243832E-2	6.509834290E0
1.683396110E-1	1.199495077E0	-1.532289088E-1	6.804321289E0
1.698302690E-1	1.242590666E0	-1.987187415E-1	7.105990410E0
1.724350720E-1	1.292868972E0	-2.394201756E-1	7.412448406E0
1.738745000E-1	1.352723956E0	-3.016694188E-1	7.747636795E0
1.765225340E-1	1.448492050E0	-4.189853072E-1	8.298302650E0
1.781014620E-1	1.529894829E0	-5.003881454E-1	8.662221909E0
1.805649190E-1	1.611297727E0	-5.602431893E-1	8.971074104E0
1.817380000E-1	1.697489023E0	-6.296750307E-1	9.232041359E0
1.846188420E-1	1.805228114E0	-7.182605267E-1	9.490615845E0
1.862689230E-1	1.939303398E0	-8.403648138E-1	9.744400978E0
1.886716490E-1	2.075772762E0	-9.672574997E-1	9.976638794E0
1.898530770E-1	2.214636564E0	-1.051054597E0	1.013944435E1
1.927254570E-1	2.310404539E0	-1.115697980E0	1.020887566E1
1.943603460E-1	2.331952572E0	-1.185129881E0	1.020169353E1
1.967844180E-1	2.272097349E0	-1.271321058E0	1.013465595E1
1.980053080E-1	2.097320795E0	-1.357512355E0	1.004607010E1
2.008375720E-1	1.848323703E0	-1.412579060E0	1.002931118E1
2.023737310E-1	1.611297727E0	-1.417367458E0	1.010592556E1
2.048487310E-1	1.455674648E0	-1.371877551E0	1.022802925E1
2.061699230E-1	1.403002143E0	-1.295263171E0	1.031900978E1
2.089655340E-1	1.386242747E0	-1.170764685E0	1.034774017E1
2.103555770E-1	1.374271750E0	-1.041477680E0	1.035013390E1
2.129618080E-1	1.458068848E0	-9.433154464E-1	1.035013390E1
2.142751920E-1	1.608903527E0	-8.738836050E-1	1.037407589E1
2.171617260E-1	1.776497602E0	-8.451532125E-1	1.040759468E1
2.186882690E-1	1.915361404E0	-8.475474119E-1	1.042195988E1
2.212224570E-1	2.011129379E0	-8.786720037E-1	1.041956615E1
2.224110770E-1	2.068590164E0	-9.145850539E-1	1.041717148E1
2.252765340E-1	2.078166962E0	-9.433154464E-1	1.040280628E1
2.269363460E-1	2.068590164E0	-9.528923035E-1	1.035252857E1
2.293414180E-1	2.078166962E0	-9.433154464E-1	1.035252857E1
2.305105390E-1	2.092532396E0	-9.361328483E-1	1.040998936E1
2.333955340E-1	2.054224968E0	-9.600749016E-1	1.049618053E1
2.349025000E-1	2.149993181E0	-1.022324085E0	1.051293945E1
2.374226110E-1	2.219424963E0	-1.065419793E0	1.046266174E1
2.388606920E-1	2.334346771E0	-1.163581967E0	1.031422138E1
2.414763410E-1	2.336740971E0	-1.233013868E0	1.016578007E1
2.430001920E-1	2.157175779E0	-1.237802267E0	9.962273598E0
2.455357640E-1	1.968033791E0	-1.204283476E0	9.852140427E0
2.470597310E-1	1.752555609E0	-1.137245774E0	9.768342972E0
2.495891110E-1	1.522712231E0	-1.041477680E0	9.701305389E0
2.508183850E-1	1.273715258E0	-8.619126081E-1	9.739612579E0
2.537011870E-1	9.624691010E-1	-5.698199868E-1	9.940725327E0
2.551204620E-1	7.206547260E-1	-3.663128614E-1	1.004607010E1
2.577893030E-1	6.368576288E-1	-2.849099934E-1	9.981427193E0
2.593155000E-1	7.182605267E-1	-2.992752194E-1	9.749189377E0
2.618502260E-1	8.978256583E-1	-3.974374831E-1	9.392453194E0
2.630292690E-1	1.079784989E0	-5.195417404E-1	9.009381294E0
2.659041110E-1	1.204283476E0	-5.889736414E-1	8.791508675E0
2.676010770E-1	1.158793569E0	-4.165911078E-1	9.124302864E0
2.699616100E-1	9.169792533E-1	-7.182605099E-3	9.828198433E0
2.711473460E-1	7.326257229E-1	2.298433632E-1	1.012268448E1
2.740146490E-1	6.679822803E-1	2.609679997E-1	1.012029076E1
2.755412310E-1	6.512228847E-1	2.705447972E-1	1.018732834E1
2.780881870E-1	6.607996821E-1	3.256114423E-1	1.034774017E1
2.792584620E-1	6.871358752E-1	3.303998411E-1	1.033816338E1
2.821413410E-1	7.422025204E-1	2.825157940E-1	1.032140350E1
2.836720770E-1	8.212111592E-1	3.327940404E-1	1.058955383E1
2.861220770E-1	9.193734527E-1	4.046200812E-1	1.076911926E1
2.873949230E-1	9.911994934E-1	4.405331016E-1	1.090319443E1
2.902554180E-1	1.048660398E0	4.309563041E-1	1.103487587E1
2.916083080E-1	1.340752959E0	2.202665508E-1	1.106839466E1
2.942611540E-1	1.836352706E0	-1.197100878E-1	1.097980881E1
2.955842690E-1	2.099714994E0	-3.040636182E-1	1.098938560E1
2.984590720E-1	2.164358377E0	-3.926490843E-1	1.106360626E1
3.000318080E-1	2.130839586E0	-4.955997467E-1	1.115937424E1
3.025329570E-1	2.106897593E0	-5.315127969E-1	1.125035381E1
3.037080390E-1	2.092532396E0	-5.291185975E-1	1.130781460E1
3.065861490E-1	2.080561161E0	-5.051765442E-1	1.132457447E1
3.082981920E-1	2.037465572E0	-4.884171486E-1	1.135330486E1
3.106513800E-1	1.929726601E0	-4.764461517E-1	1.137724686E1
3.118354230E-1	1.771709204E0	-4.860229492E-1	1.140597725E1
3.147050720E-1	1.575384736E0	-5.171475410E-1	1.141794777E1
3.162189620E-1	1.391031146E0	-5.698199868E-1	1.137724686E1
3.187649560E-1	1.268926859E0	-6.416460276E-1	1.123359394E1
3.199465390E-1	1.221042871E0	-7.302315235E-1	1.112585545E1
3.228191490E-1	1.218648672E0	-8.331822157E-1	1.130063248E1
3.245752310E-1	1.209071875E0	-9.600749016E-1	1.163821411E1
3.268953030E-1	1.218648672E0	-1.024718285E0	1.192791271E1
3.283263850E-1	1.309628367E0	-9.552865028E-1	1.205001736E1
3.309499560E-1	1.474828243E0	-7.781155705E-1	1.202846909E1
3.324002310E-1	1.663970232E0	-5.746083856E-1	1.189200020E1
3.350471100E-1	1.838746905E0	-3.806780577E-1	1.167412758E1
3.362584620E-1	1.975216389E0	-2.011129409E-1	1.143710136E1
3.391358030E-1	2.073378563E0	-6.464344263E-2	1.124077702E1
3.406428850E-1	2.123656988E0	1.197100803E-2	1.111388397E1
3.431637260E-1	2.128445387E0	3.591302410E-2	1.105642319E1
3.443858460E-1	2.121262789E0	4.309562966E-2	1.100614548E1
3.472175330E-1	2.106897593E0	5.506663769E-2	1.090798283E1
3.489969230E-1	2.073378563E0	1.412578970E-1	1.064222622E1
3.512887640E-1	2.047042370E0	1.675941199E-1	1.051772785E1
3.526506920E-1	1.972822189E0	1.867477298E-1	1.025436592E1
3.553434180E-1	1.790862918E0	7.182604820E-2	1.004607010E1
3.568860390E-1	1.180341482E0	-4.189853072E-1	9.849745750E0
3.594060330E-1	9.337386489E-1	-5.865794420E-1	9.768342972E0
3.606440770E-1	5.243301988E-1	-7.852981687E-1	9.526528358E0
3.634597640E-1	4.165911078E-1	-7.398083210E-1	9.136273384E0
3.649789620E-1	7.661445141E-1	-4.405331016E-1	8.451532364E0
3.674533460E-1	1.041477680E0	-2.705447972E-1	8.130708694E0
3.687663080E-1	1.206677675E0	-1.723825186E-1	7.972691536E0
3.715721490E-1	1.292868972E0	-1.268926859E-1	7.915230751E0
3.729916920E-1	1.376665950E0	-7.900865376E-2	7.953537941E0
3.755321150E-1	1.501164436E0	1.197100803E-2	8.020575523E0
3.768372310E-1	1.687912226E0	1.436520964E-1	8.018181801E0
3.796949560E-1	1.900996208E0	2.968810201E-1	7.982268333E0
3.812086920E-1	2.106897593E0	4.572925270E-1	7.931990147E0
3.837553410E-1	2.274491549E0	6.009446383E-1	7.867346764E0
3.850771920E-1	2.410961151E0	7.038952708E-1	7.802703381E0
3.878088790E-1	2.523488522E0	7.685387731E-1	7.723694801E0
3.894796920E-1	2.557007313E0	7.422025204E-1	7.654263020E0
3.918691870E-1	2.449268341E0	4.501099288E-1	7.718906403E0
3.930573850E-1	2.377442360E0	2.082955539E-1	7.773972988E0
3.959227250E-1	2.329558372E0	1.292868853E-1	7.711723804E0
3.974594230E-1	2.262520552E0	9.576806426E-2	7.577648163E0
3.999978410E-1	2.164358377E0	6.943184882E-2	7.402871609E0
4.012055380E-1	2.039859772E0	4.309562966E-2	7.223306656E0
4.040515330E-1	1.817199111E0	9.097966552E-2	6.950367451E0
4.055557310E-1	1.565807939E0	1.292868853E-1	6.600813866E0
4.081126870E-1	1.295263171E0	1.699883193E-1	6.050147533E0
4.094130770E-1	1.005564690E0	2.585737705E-1	5.128379822E0
4.121676480E-1	7.661445141E-1	3.639186621E-1	3.928884983E0
4.133918850E-1	6.727706790E-1	4.668693244E-1	2.841917515E0
4.162654180E-1	7.038952708E-1	5.650315881E-1	2.205059767E0
4.174679230E-1	7.709329724E-1	6.751648784E-1	2.020706177E0
4.203552640E-1	8.834604025E-1	7.829039693E-1	2.037465572E0
4.218948080E-1	1.074996591E0	1.027112484E0	2.700659513E0
4.244316480E-1	1.125274777E0	1.137245774E0	3.141192675E0
4.256236150E-1	1.266532660E0	1.312022567E0	4.036623955E0
4.284873020E-1	1.604115129E0	1.362300754E0	4.637568474E0
4.305750000E-1	2.432508945E0	1.304839969E0	5.406107426E0
4.325409180E-1	2.774879694E0	1.335964561E0	6.318298340E0
4.337336540E-1	2.894589901E0	1.405396342E0	7.177816868E0
4.365958020E-1	2.841917515E0	1.424550056E0	8.058882713E0
4.382464230E-1	2.774879694E0	1.235408068E0	1.010113716E1
4.406568790E-1	2.679111719E0	8.259995580E-1	1.457111168E1
4.418515000E-1	2.391807556E0	4.477157295E-1	1.953189659E1
4.447106480E-1	2.334346771E0	4.070142806E-1	2.173216820E1
4.463037310E-1	2.521094322E0	6.440402865E-1	2.137543297E1
4.487105380E-1	1.975216389E0	8.954314590E-1	2.031001282E1
4.499982690E-1	7.254431248E-1	9.600749016E-1	1.882560730E1
4.528401870E-1	-9.337386489E-2	7.374141216E-1	1.693897629E1
4.542488850E-1	-1.005564705E-1	3.663128614E-1	1.486081028E1
4.567790770E-1	4.812345505E-1	-1.029506698E-1	1.283770943E1
4.580744620E-1	1.383848548E0	-5.985504389E-1	1.124317074E1
4.609494560E-1	2.133233786E0	-1.098938584E0	1.033816338E1
4.624906540E-1	2.252943754E0	-1.623268723E0	1.007001209E1
4.649905330E-1	2.123656988E0	-1.855506301E0	1.029746151E1
4.661615000E-1	1.951274395E0	-1.714248419E0	1.080263805E1
4.690445330E-1	1.757344007E0	-1.352723956E0	1.138682365E1
4.707447690E-1	1.496376038E0	-9.002198577E-1	1.192791271E1
4.731037640E-1	1.182735682E0	-4.165911078E-1	1.233971596E1
4.742966540E-1	8.882488012E-1	4.788403213E-2	1.256716442E1
4.771581870E-1	7.206547260E-1	4.692635238E-1	1.265096188E1
4.787733850E-1	7.230489254E-1	8.523358107E-1	1.266293240E1
4.812183790E-1	8.834604025E-1	1.170764685E0	1.257913589E1
4.824075770E-1	1.175553083E0	1.403002143E0	1.240196514E1
4.852723790E-1	1.539471745E0	1.558625340E0	1.216015053E1
4.867884610E-1	2.111685991E0	1.695094824E0	1.173877048E1
4.893336100E-1	2.288856745E0	1.716642618E0	1.160709000E1
4.905221540E-1	2.602497339E0	1.728613615E0	1.140118885E1
4.933879170E-1	2.853888512E0	1.714248419E0	1.126950741E1
4.946283460E-1	3.045424461E0	1.699883223E0	1.117134476E1
4.975001480E-1	3.296815634E0	1.692700624E0	1.095586681E1
4.987101920E-1	3.430891037E0	1.697489023E0	1.078348446E1
5.015900330E-1	3.509899616E0	1.704671621E0	1.063264942E1
5.031939230E-1	3.543418407E0	1.719036818E0	1.046026707E1
5.056518790E-1	3.519476414E0	1.733402014E0	1.019929886E1
5.068400380E-1	3.454833031E0	1.723825216E0	9.852140427E0
5.097053400E-1	3.406949043E0	1.673547029E0	9.469067574E0
5.113634230E-1	3.344699860E0	1.594538331E0	9.107542992E0
5.137498790E-1	3.241749048E0	1.501164436E0	8.801085472E0
5.149358850E-1	3.157952070E0	1.376665950E0	8.604761124E0
5.178048020E-1	3.102885485E0	1.244984865E0	8.518569946E0
5.193776540E-1	3.062183857E0	1.110909581E0	8.535328865E0
5.218809940E-1	3.014299870E0	9.768342972E-1	8.640673637E0
5.231059610E-1	2.980781078E0	8.547300100E-1	8.822632790E0
5.259364560E-1	2.966415882E0	7.374141216E-1	9.045293808E0
5.274896920E-1	2.971204281E0	6.368576288E-1	9.270348549E0
5.299250770E-1	2.992752075E0	5.626373887E-1	9.490615845E0
5.311653850E-1	3.066972494E0	5.315127969E-1	9.701305389E0
5.340204940E-1	3.198653460E0	5.243301988E-1	9.940725327E0
5.354380770E-1	3.327940464E0	5.267243981E-1	1.015620327E1
5.380019610E-1	3.450044632E0	5.315127969E-1	1.029267311E1
5.392558850E-1	3.569754839E0	5.410895944E-1	1.032619190E1
5.421313400E-1	3.689464808E0	5.530605912E-1	1.029985619E1
5.440203850E-1	3.804386616E0	5.746083856E-1	1.023521233E1
5.462071860E-1	3.916913986E0	5.937620401E-1	1.011310768E1
5.473788460E-1	3.991134167E0	5.913678408E-1	9.943120003E0
5.502617250E-1	4.055777550E0	5.961562395E-1	9.727641106E0
5.519812310E-1	4.187458992E0	6.153098345E-1	9.402029991E0
5.543270320E-1	4.228160381E0	6.177040339E-1	9.306262016E0
5.555438460E-1	4.297592163E0	6.200982332E-1	9.121908188E0
5.583821090E-1	4.355052948E0	6.320692301E-1	8.954314232E0
5.599136920E-1	4.362235546E0	6.464344859E-1	8.920795441E0
5.624434940E-1	4.343081951E0	6.655880809E-1	8.954314232E0
5.637962690E-1	4.266467571E0	7.134721279E-1	9.035717010E0
5.664986090E-1	4.017470360E0	7.206547260E-1	9.220070839E0
5.681240380E-1	3.761290789E0	7.086837292E-1	9.471462250E0
5.705751860E-1	3.452438831E0	7.254431248E-1	9.840168953E0
5.718146920E-1	3.110068083E0	7.613561153E-1	1.033098030E1
5.746300710E-1	2.760514498E0	7.900865674E-1	1.095347309E1
5.759471920E-1	2.353500366E0	8.307880163E-1	1.154244614E1
5.787268020E-1	1.862688899E0	8.786720037E-1	1.178904915E1
5.799821150E-1	1.388636947E0	8.786720037E-1	1.164300251E1
5.828161480E-1	1.024718285E0	8.020575643E-1	1.120486355E1
5.844609610E-1	8.451532125E-1	6.631938815E-1	1.062307262E1
5.868775320E-1	8.643068075E-1	5.147533417E-1	9.983820915E0
5.881243460E-1	1.048660398E0	4.022258818E-1	9.332598686E0
5.909327630E-1	1.323993564E0	3.495534360E-1	8.710105896E0
5.927491540E-1	1.584961534E0	3.591302633E-1	8.185775757E0
5.949926090E-1	1.786074519E0	4.285621047E-1	7.809885979E0
5.962272310E-1	1.924938202E0	5.722141862E-1	7.603984833E0
5.990477250E-1	2.025494576E0	7.589619160E-1	7.534552574E0
6.006143840E-1	2.104503393E0	9.720458984E-1	7.565677166E0
6.031086860E-1	2.173935175E0	1.197100878E0	7.627926826E0
6.043052310E-1	2.238578558E0	1.398213744E0	7.666234016E0
6.071633020E-1	2.319981337E0	1.575384736E0	7.632715225E0
6.087384610E-1	2.427720547E0	1.726219416E0	7.582436562E0
6.111589230E-1	2.561795712E0	1.838746905E0	7.539340973E0
6.124275770E-1	2.700659513E0	1.900996208E0	7.529764175E0
6.152786090E-1	2.827552319E0	1.900996208E0	7.560888767E0
6.166620770E-1	2.940079689E0	1.860294700E0	7.601590633E0
6.193841920E-1	3.040636063E0	1.807622313E0	7.599195957E0
6.206994230E-1	3.157952070E0	1.745373011E0	7.563282967E0
6.235100710E-1	3.287238836E0	1.663970232E0	7.536946774E0
6.250224610E-1	3.320757866E0	1.589749932E0	7.594407558E0
6.275724940E-1	3.318363667E0	1.486799240E0	7.680599213E0
6.287786540E-1	3.327940464E0	1.371877551E0	7.723694801E0
6.316274940E-1	3.378218651E0	1.271321058E0	7.733271599E0
6.333250380E-1	3.438073635E0	1.177947283E0	7.776367188E0
6.356891480E-1	3.454833031E0	1.074996591E0	7.860164165E0
6.369279610E-1	3.452438831E0	9.768342972E-1	7.929595947E0
6.397443010E-1	3.481169224E0	8.834604025E-1	7.977479935E0
6.413242310E-1	3.538630009E0	8.020575643E-1	8.027758598E0
6.437876480E-1	3.569754839E0	7.134721279E-1	8.123526573E0
6.449595770E-1	3.555389643E0	5.937620401E-1	8.233659744E0
6.478421090E-1	3.560178041E0	4.812345505E-1	8.341399193E0
6.493688080E-1	3.643975019E0	3.998316824E-1	8.403648376E0
6.519019550E-1	3.713406801E0	3.327940404E-1	8.456320763E0
6.531542310E-1	3.711012602E0	2.394201756E-1	8.501810074E0
6.559559170E-1	3.665522814E0	1.340752989E-1	8.482656479E0
6.571758840E-1	3.636792421E0	5.506663769E-2	8.396465302E0
6.600528010E-1	3.670311213E0	2.394201607E-2	8.300697327E0
6.613439230E-1	3.701435804E0	1.675941236E-2	8.221688271E0
6.641407240E-1	3.679888010E0	9.576806799E-3	8.169015884E0
6.656864230E-1	3.622427225E0	9.576806799E-3	8.118738174E0
6.682151090E-1	3.600879431E0	5.267243832E-2	8.106766701E0
6.693846540E-1	3.588908434E0	1.101332754E-1	8.178592682E0
6.722682630E-1	3.529053211E0	1.292868853E-1	8.231265068E0
6.739600770E-1	3.378218651E0	5.267243832E-2	8.248024940E0
6.763329170E-1	3.320757866E0	7.182605099E-3	8.226476669E0
6.775224610E-1	3.191470861E0	-7.182604820E-2	8.154650688E0
6.803861860E-1	3.069366693E0	-1.125274822E-1	8.070854187E0
6.819528840E-1	3.050212860E0	-1.197100878E-1	7.963114738E0
6.844465320E-1	3.052607059E0	-1.412578970E-1	7.939172745E0
6.856416920E-1	3.057395458E0	-2.059013397E-1	7.886500359E0
6.884999170E-1	2.999934673E0	-3.112462163E-1	7.826645374E0
6.900472690E-1	2.906560898E0	-3.806780577E-1	7.702147007E0
6.925239230E-1	2.791639090E0	-4.357447028E-1	7.539340973E0
6.938223070E-1	2.667140722E0	-4.716577232E-1	7.419631004E0
6.966278780E-1	2.638410330E0	-4.764461517E-1	7.405265808E0
6.979983070E-1	2.643198729E0	-4.764461517E-1	7.417236805E0
7.006519610E-1	2.664746523E0	-4.525041282E-1	7.395689011E0
7.019844610E-1	2.659958124E0	-3.998316824E-1	7.453149796E0
7.048300700E-1	2.568978310E0	-3.591302633E-1	7.575253963E0
7.063586150E-1	2.461239338E0	-3.471592367E-1	7.608773232E0
7.088914930E-1	2.466027737E0	-2.992752194E-1	7.635109425E0
7.102500380E-1	2.492363930E0	-2.106897533E-1	7.762001991E0
7.129463010E-1	2.535459518E0	-1.412578970E-1	7.829039574E0
7.146016920E-1	2.612074137E0	-1.101332754E-1	7.762001991E0
7.170181860E-1	2.698265314E0	-8.858546615E-2	7.615955830E0
7.182521150E-1	2.815581083E0	-3.112462163E-2	7.501033783E0
7.210721860E-1	2.868253708E0	7.661445439E-2	7.465120792E0
7.226871540E-1	2.794033289E0	1.819593310E-1	7.445967197E0
7.251318780E-1	2.645592928E0	2.609679997E-1	7.316680431E0
7.264154230E-1	2.482787132E0	3.351882398E-1	7.101202011E0
7.291858010E-1	2.365471363E0	4.022258818E-1	6.840234280E0
7.308363840E-1	2.339135170E0	4.429273009E-1	6.526593685E0
7.332463400E-1	2.401384354E0	4.572925270E-1	6.428431511E0
7.344393460E-1	2.607285738E0	5.051765442E-1	6.282385349E0
7.373001090E-1	2.865859509E0	5.722141862E-1	6.275202751E0
7.387132310E-1	3.083731890E0	6.512228847E-1	6.445190907E0
7.414111090E-1	3.165134668E0	7.350199223E-1	6.773196697E0
7.426187310E-1	3.138798475E0	8.331822157E-1	7.113173485E0
7.454998780E-1	3.081337690E0	9.864110947E-1	7.433996201E0
7.470787310E-1	3.236960649E0	1.182735682E0	7.690176010E0
7.495596860E-1	3.462015629E0	1.352723956E0	7.955932140E0
7.507393460E-1	3.687070608E0	1.424550056E0	8.125920296E0
7.536125700E-1	3.837905407E0	1.405396342E0	8.219294548E0
7.555399610E-1	3.926490784E0	1.326387763E0	8.262390137E0
7.576559550E-1	4.005499363E0	1.225831270E0	8.255207062E0
7.588566150E-1	4.110844135E0	1.118092179E0	8.161833763E0
7.617098010E-1	4.266467571E0	1.007958889E0	7.963114738E0
7.632750380E-1	4.469974518E0	9.121908545E-1	7.764396191E0
7.657847620E-1	4.556165695E0	7.757213712E-1	7.637503624E0
7.670046540E-1	4.577713490E0	5.746083856E-1	7.572859764E0
7.698394930E-1	4.711789131E0	5.626373887E-1	7.857769966E0
7.714875770E-1	4.766855717E0	5.865794420E-1	8.339004517E0
7.738430380E-1	4.570530891E0	5.315127969E-1	8.714894295E0
7.750798070E-1	4.299986362E0	4.501099288E-1	8.860940933E0
7.779226090E-1	4.204218388E0	3.878606856E-1	8.853757858E0
7.793768460E-1	4.285621166E0	3.519476354E-1	8.746018410E0
7.819120770E-1	4.381389141E0	3.351882398E-1	8.571242332E0
7.831795380E-1	4.333505154E0	2.944868207E-1	8.370129585E0
7.860144930E-1	4.170699596E0	2.561795712E-1	8.188169479E0
7.875455770E-1	3.952826977E0	2.178723514E-1	8.070854187E0
7.900889550E-1	3.742137194E0	1.675941199E-1	8.046912193E0
7.912990000E-1	3.567360640E0	1.101332754E-1	8.101978302E0
7.941429550E-1	3.411737442E0	4.309562966E-2	8.178592682E0
7.958475000E-1	3.222595453E0	-6.943184882E-2	8.209717751E0
7.982132240E-1	3.155557871E0	-1.053448766E-1	8.195352554E0
7.993843070E-1	3.023876667E0	-1.651999205E-1	8.125920296E0
8.022675700E-1	2.904166698E0	-2.082955539E-1	8.044517517E0
8.038164230E-1	2.729389906E0	-2.489969730E-1	7.948749542E0
8.063281850E-1	2.679111719E0	-2.609679997E-1	7.898471355E0
8.075879610E-1	2.585737944E0	-2.873041928E-1	7.745242596E0
8.103829160E-1	2.439691544E0	-3.160346150E-1	7.577648163E0
8.119083840E-1	1.991975784E0	-3.495534360E-1	7.654263020E0
8.144588010E-1	2.281674147E0	-3.615244627E-1	7.335834026E0
8.156461150E-1	2.513911724E0	-3.303998411E-1	7.184999466E0
8.185140310E-1	2.983175278E0	-2.537853718E-1	7.079654217E0
8.197707300E-1	3.050212860E0	-2.920926213E-1	7.156269073E0
8.226113390E-1	3.134010077E0	-3.495534360E-1	7.400477409E0
8.238435380E-1	3.445256233E0	-4.189853072E-1	7.776367188E0
8.267006080E-1	3.835511208E0	-4.668693244E-1	8.066065788E0
8.282249230E-1	3.950432777E0	-4.548983276E-1	8.090007782E0
8.307281850E-1	3.790021181E0	-3.280056417E-1	8.042123795E0
8.322418840E-1	3.488351822E0	-1.843535304E-1	8.008605003E0
8.347819930E-1	3.162740469E0	-1.316810995E-1	7.797914982E0
8.365586150E-1	2.987963676E0	-1.532289088E-1	7.398083210E0
8.388581080E-1	2.983175278E0	-1.412578970E-1	7.105990410E0
8.400129230E-1	2.985569477E0	-1.436521020E-2	7.383718014E0
8.429129540E-1	3.315969467E0	1.556231081E-1	7.424419403E0
8.445240000E-1	3.706224203E0	3.136404157E-1	7.252037048E0
8.469741080E-1	3.830722809E0	4.070142806E-1	7.184999466E0
8.481239230E-1	3.749319792E0	4.477157295E-1	7.132327080E0
8.510283780E-1	3.617638826E0	4.668693244E-1	6.967126846E0
8.525315770E-1	3.560178041E0	5.123591423E-1	6.746860504E0
8.549978460E-1	3.603273630E0	5.841852427E-1	6.622362137E0
8.562691920E-1	3.660734415E0	6.895300746E-1	6.751648903E0
8.591426080E-1	3.737348795E0	8.212111592E-1	7.019799232E0
8.606284230E-1	3.785232782E0	9.768342972E-1	7.268796444E0
8.632059540E-1	3.718195200E0	1.120486379E0	7.462726593E0
8.644197690E-1	3.603273630E0	1.242590666E0	7.433996201E0
8.672591470E-1	3.586514235E0	1.460463047E0	7.273584843E0
8.687967690E-1	3.790021181E0	1.690306425E0	6.991068840E0
8.713006470E-1	3.811569214E0	1.656787634E0	6.928819656E0
8.725468070E-1	3.768473387E0	1.453280449E0	6.818686485E0
8.753543000E-1	3.617638826E0	1.161187768E0	6.725312710E0
8.770693840E-1	3.414131641E0	6.895300746E-1	6.354211330E0
8.794079160E-1	3.375824451E0	5.386953950E-1	6.229712963E0
8.805606150E-1	3.270479441E0	2.561795712E-1	6.167463779E0
8.834616850E-1	3.148375273E0	2.394201607E-2	6.694188118E0
8.849822690E-1	3.337517262E0	3.591302410E-2	7.079654217E0
8.875374930E-1	3.687070608E0	8.619125932E-2	7.352593422E0
8.887620770E-1	4.031835556E0	9.816227108E-2	7.613561630E0
8.915922620E-1	4.314351559E0	7.661445439E-2	7.809885979E0
8.931007300E-1	4.570530891E0	3.830722719E-2	7.888894558E0
8.956533000E-1	4.812345505E0	-1.675941236E-2	7.838616371E0
8.969536920E-1	4.999093056E0	-1.101332754E-1	7.697358608E0
8.997077620E-1	5.106832027E0	-2.346317619E-1	7.551311970E0
9.009394230E-1	5.121197224E0	-3.687070608E-1	7.477091789E0
9.038046470E-1	4.999093056E0	-4.692635238E-1	7.623138428E0
9.050098070E-1	4.817133904E0	-4.692635238E-1	7.888894558E0
9.078937230E-1	4.656722069E0	-3.806780577E-1	8.113949776E0
9.094272690E-1	4.513070107E0	-2.657563984E-1	8.271966934E0
9.119699160E-1	4.371812344E0	-1.580173075E-1	8.329427719E0
9.132659230E-1	4.242525578E0	-6.703764945E-2	8.274360657E0
9.160235700E-1	4.158728123E0	-1.197100803E-2	8.137891769E0
9.180446150E-1	4.139574528E0	9.576806799E-3	7.905653954E0
9.200939160E-1	4.146757126E0	0.000000000E0	7.843404770E0
9.212898460E-1	4.187458992E0	-2.394201607E-2	7.747636795E0
9.241473770E-1	4.259284973E0	-5.506663769E-2	7.692570210E0
9.256798840E-1	4.338293552E0	-8.379705995E-2	7.671022415E0
9.282085700E-1	4.410119534E0	-1.125274822E-1	7.690176010E0
9.293685000E-1	4.472368717E0	-1.556231081E-1	7.735665798E0
9.322624540E-1	4.525041103E0	-2.202665508E-1	7.793126583E0
9.338900770E-1	4.556165695E0	-3.519476354E-1	7.872135162E0
9.363120380E-1	4.556165695E0	-4.094084799E-1	7.886500359E0
9.375646920E-1	4.558559895E0	-5.195417404E-1	7.896077156E0
9.403919930E-1	4.539406300E0	-6.248866320E-1	7.884106159E0
9.418548460E-1	4.359841347E0	-7.326257229E-1	7.824251175E0
9.444965690E-1	4.158728123E0	-7.709329724E-1	7.740454197E0
9.458548460E-1	3.960009575E0	-8.044517636E-1	7.620744228E0
9.485855690E-1	3.818751812E0	-8.307880163E-1	7.517793179E0
9.501292690E-1	3.732560396E0	-8.571242094E-1	7.472303391E0
9.526461080E-1	3.655946016E0	-8.906430602E-1	7.496245384E0
9.539646530E-1	3.581725836E0	-9.361328483E-1	7.582436562E0
9.566990690E-1	3.543418407E0	-9.935936928E-1	7.709329605E0
9.584468460E-1	3.529053211E0	-1.072602391E0	7.841010571E0
9.607753770E-1	3.538630009E0	-1.173158884E0	7.967903137E0
9.619609610E-1	3.560178041E0	-1.297657371E0	8.104372978E0
9.648282620E-1	3.598485231E0	-1.431732655E0	8.226476669E0
9.663888460E-1	3.660734415E0	-1.575384736E0	8.324639320E0
9.688548000E-1	3.739742994E0	-1.719036818E0	8.391676903E0
9.700165770E-1	3.816357613E0	-1.860294700E0	8.437167168E0
9.729075690E-1	3.864241600E0	-1.984793186E0	8.475474358E0
9.744574230E-1	3.881000996E0	-2.080561161E0	8.530540466E0
9.769669540E-1	3.881000996E0	-2.171540976E0	8.609549522E0
9.782205380E-1	3.883395195E0	-2.255337954E0	8.705317497E0
9.810203770E-1	3.876212597E0	-2.329558372E0	8.836998940E0
9.823078070E-1	3.869029999E0	-2.398990154E0	9.018958092E0
9.851313390E-1	3.847482204E0	-2.470816135E0	9.234436035E0
9.863609230E-1	3.837905407E0	-2.552218914E0	9.442731857E0
9.892193770E-1	3.900154591E0	-2.657563925E0	9.639056206E0
9.907703460E-1	4.094084740E0	-2.827552319E0	9.892841339E0
9.932788770E-1	4.163516521E0	-2.887407303E0	9.962273598E0
9.945901920E-1	4.292803764E0	-3.002328873E0	1.007001209E1
9.973324150E-1	4.400542736E0	-3.107673883E0	1.013465595E1
9.991633070E-1	4.529829502E0	-3.275267839E0	1.021605873E1
1.001375031E0	4.575319290E0	-3.330334663E0	1.024957752E1
1.002641807E0	4.661510944E0	-3.428496838E0	1.031422138E1
1.005428300E0	4.730942726E0	-3.517082214E0	1.036449909E1
1.007010846E0	4.790797710E0	-3.593696833E0	1.041238308E1
1.009504646E0	4.893748283E0	-3.584120035E0	1.044350815E1
1.010686153E0	5.020640850E0	-3.531447411E0	1.051533413E1
1.013559069E0	5.087678432E0	-3.471592426E0	1.060152531E1
1.015076576E0	5.082890034E0	-3.423708439E0	1.067813969E1
1.017619300E0	5.037400246E0	-3.378218651E0	1.072602367E1
1.018819576E0	4.991910458E0	-3.337517262E0	1.075714779E1
1.021672569E0	4.967968464E0	-3.296815634E0	1.076911926E1
1.023082730E0	4.979939461E0	-3.272873640E0	1.076193619E1
1.025723069E0	5.027823448E0	-3.244143248E0	1.075954247E1
1.026953576E0	5.063736439E0	-3.215412855E0	1.076193619E1
1.029776338E0	5.046977043E0	-3.193865061E0	1.080263805E1
1.031317192E0	4.960785866E0	-3.177105665E0	1.090319443E1
1.033850954E0	4.845864296E0	-3.153163671E0	1.103726959E1
1.035050423E0	4.709394932E0	-3.131615877E0	1.118331623E1
1.037906223E0	4.544194698E0	-3.143586874E0	1.132696819E1
1.039656692E0	4.386177540E0	-3.186682463E0	1.144667816E1
1.041960223E0	4.297592163E0	-3.251325846E0	1.153047562E1
1.043158000E0	4.271255970E0	-3.308786631E0	1.162145519E1
1.046014684E0	4.273650169E0	-3.359065056E0	1.171482849E1
1.047582269E0	4.314351559E0	-3.397372246E0	1.179144382E1
1.050075223E0	4.381389141E0	-3.411737442E0	1.185608673E1
1.051266576E0	4.431667328E0	-3.390189648E0	1.194227791E1
1.054129031E0	4.522646904E0	-3.265691042E0	1.203325748E1
1.055795730E0	4.532223701E0	-2.985569477E0	1.218648624E1
1.058204107E0	4.450820923E0	-2.928108692E0	1.224155331E1
1.059495000E0	4.235342979E0	-2.899378300E0	1.229422569E1
1.062258377E0	4.053383350E0	-2.956839085E0	1.224634171E1
1.063444961E0	4.031835556E0	-3.031059265E0	1.213620853E1
1.066355531E0	4.173093796E0	-3.064578056E0	1.205241108E1
1.067825038E0	4.374206543E0	-3.038241863E0	1.208592987E1
1.070444146E0	4.594472885E0	-2.920926094E0	1.233492756E1
1.072568153E0	4.627991676E0	-2.784456491E0	1.255758762E1
1.074504607E0	4.577713490E0	-2.600103140E0	1.271321106E1
1.075701423E0	4.481945515E0	-2.408566952E0	1.278264332E1
1.078558415E0	4.357447147E0	-2.226607561E0	1.279461384E1
1.080528076E0	4.225766182E0	-2.075772762E0	1.276827812E1
1.082615684E0	4.108449936E0	-1.960851192E0	1.269645119E1
1.083805346E0	4.012681961E0	-1.891419291E0	1.257674122E1
1.086668300E0	3.931279182E0	-1.848323703E0	1.242590714E1
1.088249192E0	3.845088005E0	-1.812410712E0	1.227986050E1
1.090727992E0	3.734954596E0	-1.771709204E0	1.215296745E1
1.091973076E0	3.610456228E0	-1.711854219E0	1.205480576E1
1.094780838E0	3.483563423E0	-1.635239720E0	1.197819138E1
1.096347269E0	3.390189648E0	-1.553836942E0	1.192073059E1
1.098788038E0	3.359065056E0	-1.470039845E0	1.186805820E1
1.100054769E0	3.373430252E0	-1.386242747E0	1.182256794E1
1.102895184E0	3.399766445E0	-1.312022567E0	1.179144382E1
1.104339461E0	3.404554844E0	-1.247379065E0	1.176750088E1
1.106861576E0	3.394978046E0	-1.185129881E0	1.174355888E1
1.108149538E0	3.378218651E0	-1.130063176E0	1.172440529E1
1.111018877E0	3.363853455E0	-1.091755986E0	1.171243477E1
1.112563576E0	3.359065056E0	-1.070208192E0	1.167652130E1
1.115080569E0	3.359065056E0	-1.060631394E0	1.163582039E1
1.116331846E0	3.371036053E0	-1.051054597E0	1.161666679E1
1.119134569E0	3.414131641E0	-1.043871999E0	1.161666679E1
1.120845730E0	3.521870613E0	-1.039083481E0	1.162624359E1
1.123189030E0	3.560178041E0	-1.031900883E0	1.163582039E1
1.124373115E0	3.615244627E0	-1.022324085E0	1.167173290E1
1.127243069E0	3.634398222E0	-1.012747288E0	1.171004009E1
1.128838307E0	3.620033026E0	-9.888052940E-1	1.171722317E1
1.131318415E0	3.610456228E0	-9.840168953E-1	1.170046329E1
1.132522346E0	3.581725836E0	-9.864110947E-1	1.164779091E1
1.135373530E0	3.541024208E0	-1.010353088E0	1.158554173E1
1.136890038E0	3.440467834E0	-1.067813993E0	1.150892735E1
1.139434530E0	3.356670856E0	-1.101332784E0	1.150413895E1
1.140675423E0	3.256114244E0	-1.134851575E0	1.151132202E1
1.143488799E0	3.155557871E0	-1.182735682E0	1.150653362E1
1.144731153E0	3.069366693E0	-1.233013868E0	1.148498535E1
1.147585223E0	2.971204281E0	-1.280897856E0	1.142273617E1
1.148819807E0	2.868253708E0	-1.319205165E0	1.132217979E1
1.151674723E0	2.762908697E0	-1.352723956E0	1.118092155E1
1.153270846E0	2.655169725E0	-1.381454349E0	1.102529907E1
1.155751953E0	2.568978310E0	-1.400607944E0	1.086728191E1
1.156991192E0	2.509123325E0	-1.395819545E0	1.071884060E1
1.159805876E0	2.468421936E0	-1.388636947E0	1.058955383E1
1.161540846E0	2.444479942E0	-1.393425345E0	1.046505547E1
1.163866530E0	2.408566952E0	-1.410184860E0	1.034295177E1
1.165131038E0	2.343923569E0	-1.441309452E0	1.022324085E1
1.167920876E0	2.252943754E0	-1.482010841E0	1.011310768E1
1.169447461E0	2.159569979E0	-1.537077546E0	1.001494598E1
1.171982030E0	2.094926596E0	-1.604115129E0	9.935936928E0
1.173230115E0	2.059013367E0	-1.685518026E0	9.873687744E0
1.176035030E0	2.042253971E0	-1.783680320E0	9.832986832E0
1.177578846E0	2.051830769E0	-1.908178806E0	9.828198433E0
1.180050769E0	2.090138197E0	-2.049436569E0	9.825803757E0
1.181404769E0	2.164358377E0	-2.181117773E0	9.816226959E0
1.184163838E0	2.252943754E0	-2.303221941E0	9.775525093E0
1.185617692E0	2.372653961E0	-2.420537949E0	9.715670586E0
1.188216030E0	2.516305923E0	-2.533065319E0	9.662998199E0
1.189486499E0	2.667140722E0	-2.626439333E0	9.646238327E0
1.192270953E0	2.820369720E0	-2.700659513E0	9.660603523E0
1.193922384E0	3.016694069E0	-2.791639090E0	9.715670586E0
1.196332299E0	3.062183857E0	-2.810792685E0	9.734824181E0
1.197573307E0	3.119644880E0	-2.856282711E0	9.773131371E0
1.200386607E0	3.138798475E0	-2.923320293E0	9.792284966E0
1.202149538E0	3.126827478E0	-3.038241863E0	9.785101891E0
1.204453876E0	3.112462282E0	-3.124433279E0	9.749189377E0
1.205642269E0	3.098097086E0	-3.215412855E0	9.698910713E0
1.208507645E0	3.100491285E0	-3.308786631E0	9.641449928E0
1.210101307E0	3.134010077E0	-3.387795448E0	9.603142738E0
1.212568107E0	3.193865061E0	-3.445256233E0	9.603142738E0
1.214022423E0	3.268085241E0	-3.478775024E0	9.617507935E0
1.216621222E0	3.339911461E0	-3.490746021E0	9.641449928E0
1.218426807E0	3.387795448E0	-3.478775024E0	9.667786598E0
1.220680530E0	3.411737442E0	-3.438073635E0	9.674968719E0
1.222001807E0	3.423708439E0	-3.373430252E0	9.648633003E0
1.224733991E0	3.430891037E0	-3.294421434E0	9.593565941E0
1.225984384E0	3.409343243E0	-3.220201254E0	9.538499832E0
1.228845684E0	3.354276657E0	-3.160346270E0	9.483432770E0
1.230061692E0	3.292027235E0	-3.112462282E0	9.416395187E0
1.232933530E0	3.224989653E0	-3.076549292E0	9.344569206E0
1.234590884E0	3.172317266E0	-3.057395458E0	9.255983353E0
1.236993684E0	3.162740469E0	-3.055001259E0	9.157821655E0
1.238794230E0	3.198653460E0	-3.062183857E0	9.066842079E0
1.241047491E0	3.244143248E0	-3.062183857E0	9.016563416E0
1.242774346E0	3.332728863E0	-3.047818661E0	9.040505409E0
1.245100222E0	3.354276657E0	-3.040636063E0	9.074024200E0
1.246414307E0	3.371036053E0	-3.031059265E0	9.155426979E0
1.249154876E0	3.378218651E0	-3.031059265E0	9.244012833E0
1.250766461E0	3.402160645E0	-3.055001259E0	9.349357605E0
1.253230376E0	3.411737442E0	-3.066972494E0	9.373299599E0
1.254446999E0	3.418920040E0	-3.105279684E0	9.390059471E0
1.257283991E0	3.414131641E0	-3.148375273E0	9.354146004E0
1.258900269E0	3.366247654E0	-3.174711466E0	9.241618156E0
1.261344722E0	3.337517262E0	-3.169923067E0	9.208099365E0
1.262582192E0	3.289633036E0	-3.145981073E0	9.155426979E0
1.265398184E0	3.270479441E0	-3.100491285E0	9.121908188E0
1.266870653E0	3.277662039E0	-3.026270866E0	9.102754593E0
1.269362153E0	3.299209833E0	-2.992752075E0	9.102754593E0
1.270658269E0	3.344699860E0	-2.968810081E0	9.102754593E0
1.273505953E0	3.409343243E0	-2.952050686E0	9.114726067E0
1.275080499E0	3.485957623E0	-2.949656487E0	9.129091263E0
1.277560491E0	3.560178041E0	-2.954444885E0	9.150638580E0
1.278772269E0	3.648763418E0	-2.961627483E0	9.169792175E0
1.281613645E0	3.739742994E0	-2.959233284E0	9.162610054E0
1.283310538E0	3.806780815E0	-2.952050686E0	9.138668060E0
1.285679722E0	3.837905407E0	-2.925714493E0	9.107542992E0
1.286876615E0	3.864241600E0	-2.877830505E0	9.078812599E0
1.289732876E0	3.909731388E0	-2.827552319E0	9.059659004E0
1.291276038E0	3.967192173E0	-2.786850691E0	9.076418877E0
1.293793145E0	4.027047157E0	-2.748543501E0	9.097966194E0
1.295026999E0	4.082113743E0	-2.695871115E0	9.117119789E0
1.297846414E0	4.103661537E0	-2.624045134E0	9.097966194E0
1.299471922E0	4.074931145E0	-2.545036316E0	9.038111687E0
1.301921837E0	4.015076160E0	-2.449268341E0	8.947132111E0
1.303128307E0	3.945644379E0	-2.363077164E0	8.834604263E0
1.305975914E0	3.871424198E0	-2.293645144E0	8.717288017E0
1.307212922E0	3.790021181E0	-2.229001760E0	8.599972725E0
1.310073607E0	3.713406801E0	-2.178723574E0	8.482656479E0
1.311292730E0	3.641580820E0	-2.147598982E0	8.382100105E0
1.314162914E0	3.572149038E0	-2.128445387E0	8.286332130E0
1.315667999E0	3.509899616E0	-2.080561161E0	8.135497093E0
1.318222760E0	3.512293816E0	-2.059013367E0	8.090007782E0
1.319508999E0	3.545812607E0	-2.020706177E0	8.032546997E0
1.322276760E0	3.586514235E0	-1.982398987E0	8.027758598E0
1.324008538E0	3.641580820E0	-1.944091797E0	8.063671112E0
1.326346568E0	3.665522814E0	-1.936909199E0	8.080430984E0
1.327545884E0	3.732560396E0	-1.929726601E0	8.121131897E0
1.330399991E0	3.830722809E0	-1.934514999E0	8.154650688E0
1.332081846E0	4.003105164E0	-1.963245392E0	8.180987358E0
1.334460222E0	4.098873138E0	-1.996764183E0	8.173804283E0
1.335648615E0	4.151545525E0	-2.037465572E0	8.128314972E0
1.338513953E0	4.168305397E0	-2.073378563E0	8.061277390E0
1.340049769E0	4.146757126E0	-2.087743998E0	7.984662533E0
1.342575222E0	4.103661537E0	-2.078166962E0	7.912836552E0
1.343974269E0	4.062960148E0	-2.049436569E0	7.848193169E0
1.346629722E0	4.041412354E0	-2.011129379E0	7.776367188E0
1.348127038E0	4.022258759E0	-1.951274395E0	7.692570210E0
1.350645076E0	4.000710964E0	-1.877054095E0	7.618350029E0
1.351989269E0	3.969586372E0	-1.793257117E0	7.556100368E0
1.354846260E0	3.919308186E0	-1.726219416E0	7.503427982E0
1.356479538E0	3.876212597E0	-1.695094824E0	7.445967197E0
1.358906683E0	3.866635799E0	-1.685518026E0	7.374141216E0
1.360094499E0	3.900154591E0	-1.699883223E0	7.302315235E0
1.362961260E0	3.955221176E0	-1.747767210E0	7.256825447E0
1.364932345E0	4.019864559E0	-1.812410712E0	7.244854450E0
1.367032799E0	4.103661537E0	-1.879448295E0	7.261613846E0
1.368251769E0	4.230554581E0	-1.924938202E0	7.216124058E0
1.371087529E0	4.383783340E0	-1.922544003E0	7.194576263E0
1.372693422E0	4.548983097E0	-1.898601890E0	7.333439827E0
1.375163145E0	4.651933670E0	-1.884236693E0	7.568071365E0
1.376366615E0	4.651933670E0	-1.912967205E0	7.745242596E0
1.379216837E0	4.711789131E0	-1.927332401E0	7.788338184E0
1.380829192E0	4.874594688E0	-1.829170108E0	7.824251175E0
1.383277606E0	4.922478676E0	-1.781286120E0	7.833827972E0
1.384486692E0	4.996698856E0	-1.709460020E0	7.769184589E0
1.387332106E0	5.025429249E0	-1.640028119E0	7.627926826E0
1.388658730E0	5.075707436E0	-1.582567334E0	7.513004780E0
1.391429183E0	5.224148273E0	-1.412579060E0	7.390900612E0
1.392675230E0	5.348646641E0	-1.345541358E0	7.340622425E0
1.395517914E0	5.497087002E0	-1.295263171E0	7.290344238E0
1.397831645E0	5.631162167E0	-1.134851575E0	7.211335659E0
1.399593683E0	5.750872612E0	-8.355764151E-1	7.165845871E0
1.400973769E0	5.784391403E0	-3.711012602E-1	7.074865818E0
1.403646837E0	5.600037575E0	4.333505034E-1	6.914454460E0
1.405381538E0	5.343858242E0	1.462857246E0	6.560112476E0
1.407705606E0	5.422866821E0	2.221819162E0	5.892130375E0
1.408956807E0	5.798756599E0	2.607285738E0	5.233725071E0
1.411759491E0	6.282385349E0	2.616862535E0	4.893748283E0
1.413305884E0	6.789956093E0	2.377442360E0	4.606443882E0
1.415819337E0	7.314286232E0	1.975216389E0	4.599261284E0
1.417173499E0	7.797914982E0	1.398213744E0	5.164293289E0
1.419873491E0	8.238448143E0	6.775590777E-1	5.990292549E0
1.421655153E0	8.633491516E0	-9.816227108E-2	6.641515732E0
1.423871153E0	8.980650902E0	-8.140285611E-1	7.333439827E0
1.425143307E0	9.574412346E0	-1.154005170E0	8.192957878E0
1.428003914E0	9.964667320E0	-1.170764685E0	9.239224434E0
1.429355153E0	9.512163162E0	-1.158793569E0	1.027591324E1
1.430812345E0	9.040505409E0	-1.206677675E0	1.061349583E1
1.432324461E0	7.869740963E0	-1.477222443E0	1.074038887E1
1.435205221E0	6.667851925E0	-1.903390408E0	1.020169353E1
1.436853192E0	5.389348030E0	-2.145204782E0	8.303091049E0
1.439233491E0	5.312733650E0	-2.200271368E0	7.637503624E0
1.440454922E0	5.664681435E0	-2.365471363E0	6.828263283E0
1.443288068E0	6.169857979E0	-2.511517525E0	6.730101109E0
1.444944345E0	6.715735912E0	-2.621650934E0	7.594407558E0
1.447346144E0	6.854599476E0	-2.624045134E0	8.051700592E0
1.448537153E0	7.043741226E0	-2.602497339E0	8.968679428E0
1.451400375E0	7.196970463E0	-2.554613113E0	9.907206535E0
1.452974192E0	7.390900612E0	-2.592920542E0	1.005564690E1
1.455459644E0	7.718906403E0	-2.681505919E0	9.897629738E0
1.456667538E0	8.066065788E0	-2.791639090E0	9.576807022E0
1.459513798E0	8.303091049E0	-2.916137695E0	9.222464561E0
1.461070922E0	8.358158112E0	-2.997540474E0	9.002198219E0
1.463574067E0	8.271966934E0	-3.002328873E0	8.975862503E0
1.464870307E0	8.049305916E0	-2.959233284E0	9.143456459E0
1.467628106E0	7.762001991E0	-2.906560898E0	9.366117477E0
1.469025038E0	7.489062786E0	-2.806004286E0	9.593565941E0
1.471761875E0	7.287950039E0	-2.731784105E0	9.730035782E0
1.472971268E0	7.149086475E0	-2.750937700E0	9.758766174E0
1.475851221E0	7.029376030E0	-2.803610086E0	9.780313492E0
1.477409268E0	6.947973251E0	-2.839523315E0	9.864110947E0
1.479912529E0	6.789956093E0	-2.798821688E0	1.029746151E1
1.481089153E0	6.493074894E0	-2.624045134E0	1.128387260E1
1.483966260E0	6.804321289E0	-2.559401512E0	1.150653362E1
1.485711076E0	7.532158375E0	-2.624045134E0	1.089601231E1
1.488011375E0	8.022970200E0	-2.729389906E0	1.005804157E1
1.489295268E0	7.989450932E0	-2.750937700E0	9.536105156E0
1.492065144E0	7.692570210E0	-2.659958124E0	9.253589630E0
1.493625038E0	7.376535416E0	-2.545036316E0	9.107542992E0
1.496139606E0	7.340622425E0	-2.504334927E0	9.169792175E0
1.497479807E0	7.558494568E0	-2.480392933E0	9.325415611E0
1.500192529E0	7.678205013E0	-2.427720547E0	9.595960617E0
1.501710192E0	7.699752808E0	-2.312798738E0	1.000776291E1
1.504175653E0	7.750030994E0	-2.257732153E0	1.007719517E1
1.505445422E0	7.960720539E0	-2.121262789E0	1.008437729E1
1.508306490E0	8.236053467E0	-1.934514999E0	9.955090523E0
1.509707807E0	8.544905663E0	-1.556231141E0	9.569623947E0
1.512303422E0	8.592789650E0	-1.233013868E0	9.255983353E0
1.513639999E0	8.525752068E0	-8.954314590E-1	8.942343712E0
1.516501913E0	8.427590370E0	-6.177040339E-1	8.676587105E0
1.518039345E0	8.293514252E0	-4.501099288E-1	8.485051155E0
1.520545144E0	8.066065788E0	-4.525041282E-1	8.379706383E0
1.522152115E0	7.845798969E0	-5.793967843E-1	8.322244644E0
1.524598990E0	7.699752808E0	-7.038952708E-1	8.305485725E0
1.526281076E0	7.524975777E0	-8.834604025E-1	8.434772491E0
1.528652144E0	7.338228226E0	-1.142034173E0	8.633491516E0
1.529846192E0	7.187393665E0	-1.422155857E0	8.959102631E0
1.532705183E0	7.072471619E0	-1.685518026E0	9.674968719E0
1.534293768E0	7.094019413E0	-1.939303398E0	1.021127033E1
1.536765260E0	7.230489254E0	-2.202665567E0	1.021127033E1
1.537950422E0	7.247248650E0	-2.468421936E0	9.964667320E0
1.540818836E0	7.026981831E0	-2.762908697E0	9.536105156E0
1.542353730E0	6.586448669E0	-3.055001259E0	9.093177795E0
1.544893221E0	6.485892296E0	-3.093308687E0	8.825027466E0
1.546114268E0	6.799532890E0	-2.975992680E0	8.664615631E0
1.548947183E0	7.010222435E0	-2.844311714E0	8.734047890E0
1.550164307E0	6.959944248E0	-2.717418909E0	8.997409821E0
1.553043721E0	6.866570473E0	-2.643198729E0	9.270348549E0
1.554281422E0	6.701370716E0	-2.801215887E0	9.402029991E0
1.557132798E0	6.581660271E0	-3.028665066E0	9.425971985E0
1.558663499E0	7.338228226E0	-2.956839085E0	9.148244858E0
1.561193144E0	7.611167431E0	-2.901772499E0	9.045293808E0
1.562397884E0	7.630321026E0	-2.882618904E0	8.978256226E0
1.565247567E0	7.405265808E0	-2.808398485E0	9.030928612E0
1.567146115E0	7.477091789E0	-2.671929121E0	9.107542992E0
1.569305644E0	7.510610580E0	-2.659958124E0	9.179368973E0
1.570579230E0	7.467514992E0	-2.669534922E0	9.380482674E0
1.573359913E0	7.254431248E0	-2.743755102E0	9.514557838E0
1.575026230E0	6.859387875E0	-2.995146275E0	9.457097054E0
1.577421144E0	6.627150536E0	-3.232172251E0	9.351752281E0
1.578614538E0	6.457161903E0	-3.473986626E0	9.220070839E0
1.581475452E0	6.380547523E0	-3.687070608E0	9.074024200E0
1.583122461E0	6.385335922E0	-3.869029999E0	8.894459724E0
1.585504807E0	6.411672115E0	-4.003105164E0	8.765172005E0
1.586758153E0	6.433219910E0	-4.086902142E0	8.774748802E0
1.589589336E0	6.409277916E0	-4.141968727E0	8.923190117E0
1.591016922E0	6.363788128E0	-4.189853191E0	9.100360870E0
1.593620076E0	6.323086739E0	-4.264073372E0	9.239224434E0
1.594952807E0	6.289567947E0	-4.374206543E0	9.315838814E0
1.597810721E0	6.222530365E0	-4.541800499E0	9.232041359E0
1.599364499E0	6.023811340E0	-4.788403511E0	8.985439301E0
1.601871144E0	5.410895824E0	-5.303156853E0	8.705317497E0
1.603154076E0	4.826710701E0	-5.872976780E0	8.355764389E0
1.605925182E0	4.639962673E0	-6.181828976E0	7.970297337E0
1.607703538E0	4.797980309E0	-6.246472359E0	7.730877399E0
1.609994336E0	5.178658485E0	-6.155492783E0	7.745242596E0
1.611177499E0	5.616796970E0	-5.959167957E0	7.910442352E0
1.614048528E0	5.956773758E0	-5.705382824E0	8.109161377E0
1.615599884E0	6.088454723E0	-5.444414616E0	8.216899872E0
1.618123913E0	6.064512730E0	-5.224148273E0	8.171410561E0
1.619312345E0	5.987898350E0	-5.051765442E0	7.929595947E0
1.622177259E0	5.928043365E0	-4.944026470E0	7.635109425E0
1.623776653E0	5.889736176E0	-4.900930882E0	7.254431248E0
1.626238682E0	5.880159378E0	-4.908113480E0	7.206547260E0
1.627504538E0	5.858611584E0	-4.939238071E0	7.208941460E0
1.630292105E0	5.841852188E0	-4.984727859E0	7.280767441E0
1.631529345E0	5.791574001E0	-5.051765442E0	7.359776020E0
1.634387951E0	5.669469833E0	-5.228936672E0	7.431602001E0
1.635616538E0	5.631162167E0	-5.367800236E0	7.479485989E0
1.638475451E0	5.695806026E0	-5.425261021E0	7.522581577E0
1.640009922E0	5.882553577E0	-5.389348030E0	7.544129372E0
1.642549413E0	6.174646378E0	-5.327098846E0	7.558494568E0
1.643757268E0	6.485892296E0	-5.233725071E0	7.529764175E0
1.646603182E0	6.722918510E0	-5.111620426E0	7.503427982E0
1.648424653E0	6.897695065E0	-4.955997467E0	7.455543995E0
1.650670336E0	6.950367451E0	-4.754884720E0	7.383718014E0
1.651924961E0	6.902483463E0	-4.551377296E0	7.268796444E0
1.654723990E0	6.816292286E0	-4.414907932E0	7.122750282E0
1.656263615E0	6.727706909E0	-4.307168961E0	7.041347027E0
1.658784413E0	6.684611320E0	-4.096478939E0	7.101202011E0
1.659990230E0	6.653486729E0	-3.804386616E0	7.201758862E0
1.662838182E0	6.564900875E0	-3.430891037E0	7.211335659E0
1.664441191E0	6.330269337E0	-3.033453465E0	7.187393665E0
1.666855999E0	6.059724331E0	-2.633621931E0	7.261613846E0
1.668142884E0	5.880159378E0	-2.207453966E0	7.299921036E0
1.670966797E0	5.882553577E0	-1.838746905E0	7.184999466E0
1.672394461E0	5.892130375E0	-1.563413739E0	6.983886242E0
1.674915191E0	5.619191170E0	-1.249773264E0	6.883329868E0
1.676211614E0	5.188235283E0	-9.337386489E-1	6.859387875E0
1.679072682E0	4.860229492E0	-6.967126727E-1	6.768408298E0
1.680769114E0	4.587290287E0	-5.267243981E-1	6.543353081E0
1.683112528E0	4.469974518E0	-3.471592367E-1	6.203376770E0
1.684302268E0	4.441244125E0	-2.705447972E-1	5.767632008E0
1.687165567E0	4.137180328E0	-2.011129409E-1	5.480327606E0
1.689382884E0	3.378218651E0	-1.675941236E-2	5.635950565E0
1.691188913E0	3.294421434E0	-3.830722719E-2	5.662287235E0
1.692402038E0	3.260902643E0	-1.388636976E-1	5.616796970E0
1.695242836E0	3.222595453E0	-2.226607651E-1	5.578489780E0
1.697015384E0	2.918531895E0	-4.548983276E-1	5.595249176E0
1.699270605E0	2.868253708E0	-5.434837937E-1	5.623979568E0
1.700649922E0	2.789244890E0	-7.206547260E-1	5.777208805E0
1.703323682E0	2.683900118E0	-9.265560508E-1	5.875370979E0
1.704840884E0	2.552218914E0	-1.407790542E0	6.057330132E0
1.707383836E0	2.233790159E0	-1.855506301E0	6.282385349E0
1.708600384E0	1.477222443E0	-2.667140722E0	6.150704384E0
1.711437836E0	8.307880163E-1	-3.438073635E0	5.659893036E0
1.712790268E0	8.738836050E-1	-3.833117008E0	5.181052685E0
1.715549797E0	1.297657371E0	-4.043806553E0	5.013458252E0
1.716774768E0	1.520318031E0	-4.206612587E0	5.116408825E0
1.719639297E0	1.592144132E0	-4.426878929E0	5.288791656E0
1.721266884E0	1.680729628E0	-4.649539471E0	5.396530628E0
1.723700682E0	1.618480325E0	-4.776432514E0	5.363011837E0
1.724903114E0	1.170764685E0	-4.786009312E0	5.212177277E0
1.727755643E0	1.915361285E-1	-4.582501888E0	5.214571476E0
1.729468114E0	-9.121908545E-1	-4.211400986E0	5.336675644E0
1.731799643E0	-1.462857246E0	-3.890577793E0	4.953603268E0
1.733030999E0	-1.659181833E0	-3.677493811E0	4.129997730E0
1.735853951E0	-1.829170108E0	-3.598485231E0	3.306392431E0
1.737427691E0	-1.867477298E0	-3.679888010E0	2.614468336E0
1.739930490E0	-1.738190413E0	-4.149151325E0	1.963245392E0
1.741119461E0	-1.637633920E0	-5.379771233E0	1.702277422E0
1.743985374E0	-1.632845521E0	-7.122750282E0	2.475604534E0
1.745514422E0	-1.280897856E0	-8.169015884E0	3.323152065E0
1.748045874E0	-5.937620401E-1	-8.221688271E0	2.837129116E0
1.749329691E0	1.412578970E-1	-7.862558365E0	1.613691926E0
1.752100566E0	8.714894056E-1	-7.465120792E0	6.871358752E-1
1.753502576E0	1.259350061E0	-7.000645638E0	3.950432837E-1
1.756053076E0	1.276109457E0	-6.315904140E0	6.536170840E-1
1.757356384E0	1.498770237E0	-5.640739441E0	9.816226959E-1
1.760207489E0	1.970427990E0	-5.063736439E0	1.051054597E0
1.761872422E0	1.790862918E0	-3.804386616E0	9.385270476E-1
1.764282682E0	1.644816518E0	-3.330334663E0	1.007958889E0
1.765500691E0	1.453280449E0	-2.420537949E0	1.477222443E0
1.768337259E0	1.280897856E0	-1.434126854E0	2.269703150E0
1.770241153E0	1.082179189E0	0.000000000E0	3.610456228E0
1.772389336E0	6.416460276E-1	1.022324085E0	4.537012100E0
1.773655961E0	3.471592367E-1	1.833958507E0	5.662287235E0
1.776442797E0	3.351882398E-1	2.284068346E0	7.419631004E0
1.777947845E0	6.224924326E-1	2.542642117E0	9.528923035E0
1.780502143E0	1.510741234E0	2.497152328E0	1.181299114E1
1.781675807E0	2.387019157E0	2.353500366E0	1.433408546E1
1.784555605E0	2.540247917E0	2.319981337E0	1.682405472E1
1.786641961E0	1.733402014E0	2.470816135E0	2.033395576E1
1.788585374E0	1.213860273E0	2.566584110E0	2.132036591E1
1.790037384E0	-2.585737705E-1	2.968810081E0	2.325967026E1
1.792639105E0	-2.123656988E0	3.576937437E0	2.526601028E1
1.793992845E0	-3.883395195E0	4.170699596E0	2.671450233E1
1.796735028E0	-5.228936672E0	4.829104900E0	2.690603828E1
1.798028614E0	-6.086060524E0	5.427655220E0	2.609679794E1
1.800823528E0	-6.469132900E0	5.875370979E0	2.496912956E1
1.802367845E0	-6.272808552E0	6.117185116E0	2.348233032E1
1.804884682E0	-5.516240597E0	6.184223175E0	2.163640022E1
1.806060537E0	-4.417302132E0	6.181828976E0	1.958935738E1
1.808938835E0	-3.303998232E0	6.145915985E0	1.768596840E1
1.810747691E0	-2.173935175E0	5.995080948E0	1.611537170E1
1.812996605E0	-8.906430602E-1	5.604825974E0	1.492545319E1
1.814367614E0	2.561795712E-1	5.130774021E0	1.405156994E1
1.817050374E0	1.139639974E0	4.695029736E0	1.343147182E1
1.818604730E0	1.714248419E0	4.453215122E0	1.264617348E1
1.821111412E0	1.881842494E0	4.374206543E0	1.197340298E1
1.822377845E0	1.790862918E0	4.288015366E0	1.153765774E1
1.825164643E0	1.833958507E0	4.012681961E0	1.160709000E1
1.826849614E0	2.293645144E0	3.277662039E0	1.208114147E1
1.829190807E0	2.425326347E0	2.990357876E0	1.215775585E1
1.830516461E0	2.482787132E0	2.676717520E0	1.216972733E1
1.833277605E0	2.468421936E0	2.595314741E0	1.273475838E1
1.834709653E0	2.779668093E0	2.173935175E0	1.487278080E1
1.837345681E0	2.839523315E0	1.972822189E0	1.526782417E1
1.838608268E0	2.841917515E0	1.522712231E0	1.547372532E1
1.841398489E0	3.131615877E0	4.429273009E-1	1.521036339E1
1.842925114E0	3.567360640E0	-6.081272364E-1	1.445619011E1
1.845457912E0	4.022258759E0	-1.484405041E0	1.396537876E1
1.846644614E0	4.426878929E0	-2.245761156E0	1.421916389E1
1.849511412E0	4.575319290E0	-2.808398485E0	1.436521053E1
1.851158768E0	4.383783340E0	-3.222595453E0	1.409945393E1
1.853564374E0	4.228160381E0	-3.593696833E0	1.349132633E1
1.854767537E0	4.161122322E0	-3.861847401E0	1.275151825E1
1.857618297E0	4.199429989E0	-4.060565948E0	1.200931549E1
1.859165845E0	4.398148537E0	-4.268861771E0	1.157835960E1
1.861693681E0	4.656722069E0	-4.592078686E0	1.127908421E1
1.862959922E0	4.905719280E0	-4.886565685E0	1.096783829E1
1.865746874E0	4.939238071E0	-5.044582844E0	1.034534550E1
1.867320576E0	4.874594688E0	-5.102043629E0	9.500192642E0
1.869805951E0	4.498704910E0	-5.152322292E0	8.803479195E0
1.870977614E0	3.550601006E0	-5.413290024E0	8.389283180E0
1.873859989E0	3.414131641E0	-5.554547787E0	8.240841866E0
1.875195960E0	4.022258759E0	-5.451597214E0	8.066065788E0
1.877956412E0	4.867412090E0	-5.157110691E0	7.611167431E0
1.879166076E0	5.731719017E0	-4.865017891E0	7.108384609E0
1.882044374E0	6.655880928E0	-4.671087742E0	6.866570473E0
1.883584730E0	7.939172745E0	-4.632780075E0	6.957550049E0
1.886119027E0	8.276755333E0	-4.651933670E0	7.038952827E0
1.887551537E0	8.729259491E0	-4.644751072E0	7.158663273E0
1.890172835E0	8.841787338E0	-4.568136692E0	7.175422668E0
1.891885307E0	8.257601738E0	-4.252102375E0	6.878541470E0
1.894231950E0	7.852981567E0	-4.082113743E0	6.766014099E0
1.895459614E0	6.909666061E0	-3.711012602E0	6.773196697E0
1.898285374E0	5.997475147E0	-3.342305660E0	6.931213856E0
1.899782807E0	5.051765442E0	-2.806004286E0	6.885724068E0
1.902345758E0	4.860229492E0	-2.640804529E0	6.821080685E0
1.903555845E0	4.702212334E0	-2.363077164E0	6.761225700E0
1.906399258E0	5.097255230E0	-2.066195965E0	6.801927090E0
1.907905422E0	5.566518784E0	-1.944091797E0	6.710947514E0
1.910360499E0	5.868188381E0	-1.793257117E0	6.459556103E0
1.911714807E0	6.035782337E0	-1.661576033E0	5.968744755E0
1.914529027E0	6.217741966E0	-1.498770237E0	5.386953831E0
1.915906076E0	6.287173748E0	-1.292868972E0	5.140350819E0
1.918553499E0	6.038176537E0	-1.108515382E0	5.224148273E0
1.919999230E0	5.542576790E0	-8.690952063E-1	5.398924828E0
1.922634181E0	4.865017891E0	-6.584054828E-1	5.303156853E0
1.924244807E0	4.261679173E0	-3.471592367E-1	5.714959621E0
1.926694681E0	3.830722809E0	-7.422025502E-2	6.442796707E0
1.927975422E0	3.155557871E0	7.661445439E-2	7.065289021E0
1.930746912E0	2.645592928E0	2.968810201E-1	7.812280178E0
1.932428114E0	2.391807556E0	5.123591423E-1	8.532935143E0
1.934810027E0	2.173935175E0	5.793967843E-1	8.860940933E0
1.936154114E0	2.047042370E0	6.272808313E-1	9.337387085E0
1.938863450E0	1.946485996E0	6.560112834E-1	9.849745750E0
1.940387307E0	1.829170108E0	7.062895298E-1	1.022084713E1
1.942922758E0	1.790862918E0	8.044517636E-1	1.038604736E1
1.944109076E0	1.860294700E0	9.840168953E-1	1.045787334E1
1.946976219E0	2.006340981E0	1.271321058E0	1.056800652E1
1.948497614E0	2.255337954E0	1.539471745E0	1.067813969E1
1.951035566E0	2.499546528E0	1.735796213E0	1.079784966E1
1.952329884E0	2.621650934E0	1.958456993E0	1.068532181E1
1.955088527E0	2.640804529E0	2.229001760E0	1.046745014E1
1.956687037E0	2.765302896E0	2.365471363E0	1.014662647E1
1.959200373E0	2.942473888E0	2.430114746E0	9.928754807E0
1.960460076E0	2.992752075E0	2.446874142E0	9.665391922E0
1.963289373E0	2.935291290E0	2.410961151E0	9.469067574E0
1.964801345E0	2.746149302E0	2.188300371E0	9.248801231E0
1.967349450E0	2.568978310E0	1.975216389E0	9.148244858E0
1.968545999E0	2.401384354E0	1.699883223E0	8.999804497E0
1.971403296E0	2.288856745E0	1.417367458E0	8.767566681E0
1.973108153E0	2.317587137E0	1.154005170E0	8.477868080E0
1.975454373E0	2.449268341E0	9.217676520E-1	8.264783859E0
1.976716691E0	2.516305923E0	8.595184088E-1	8.080430984E0
1.979507450E0	2.607285738E0	8.116343617E-1	7.922413349E0
1.981227191E0	2.712630510E0	6.895300746E-1	7.752425194E0
1.983582142E0	2.791639090E0	5.506663918E-1	7.580042362E0
1.984770653E0	2.916137695E0	5.363011956E-1	7.357381821E0
1.987635142E0	3.134010077E0	7.302315235E-1	7.070077419E0
1.989202576E0	3.208230257E0	8.331822157E-1	6.809109688E0
1.991693527E0	3.198653460E0	8.451532125E-1	6.660669327E0
1.992874153E0	3.244143248E0	8.571242094E-1	6.727706909E0
1.995746565E0	3.270479441E0	8.259995580E-1	6.952761650E0
1.997114807E0	2.954444885E0	4.453215301E-1	7.321468830E0
1.999823268E0	2.729389906E0	-7.852981687E-1	8.159439087E0
2.001083422E0	3.287238836E0	-3.253720045E0	9.993397713E0
2.003954065E0	4.505887508E0	-6.878541470E0	1.257195282E1
2.005531037E0	5.530605793E0	-1.111627865E1	1.470997524E1
2.008029681E0	5.738901615E0	-1.461899567E1	1.563653088E1
2.009287114E0	5.403713226E0	-1.695334244E1	1.511938381E1
2.012083565E0	4.764461517E0	-1.715924263E1	1.322317600E1
2.014175076E0	3.866635799E0	-1.318008041E1	8.611943245E0
2.016137065E0	3.679888010E0	-1.127668953E1	6.876147270E0
2.017381653E0	3.390189648E0	-7.369352818E0	3.682282209E0
2.020190527E0	3.098097086E0	-3.869029999E0	1.374271750E0
2.021693576E0	2.817975283E0	-3.351882473E-2	-8.619125932E-2
2.024250719E0	2.839523315E0	8.451532125E-1	-1.029506698E-1
2.025424499E0	2.762908697E0	2.173935175E0	3.088520169E-1
2.028303835E0	2.492363930E0	3.021482468E0	1.290474772E0
2.030032037E0	2.310404539E0	3.354276657E0	3.790021181E0
2.032379027E0	2.276885748E0	3.227383852E0	5.896918774E0
2.033596730E0	2.540247917E0	2.789244890E0	8.018181801E0
2.036432796E0	3.002328873E0	2.243366957E0	9.897629738E0
2.037710037E0	3.397372246E0	1.747767210E0	1.142752457E1
2.040528681E0	3.648763418E0	1.295263171E0	1.247857952E1
2.041946807E0	3.689464808E0	8.403648138E-1	1.299812126E1
2.044616565E0	3.581725836E0	3.423708379E-1	1.314416695E1
2.046178191E0	3.260902643E0	3.112462163E-2	1.308191776E1
2.048675142E0	2.504334927E0	3.878606856E-1	1.295263100E1
2.049906845E0	1.623268723E0	1.003170490E0	1.280179691E1
2.052728488E0	9.121908545E-1	1.417367458E0	1.255519390E1
2.054655230E0	5.291185975E-1	1.527500629E0	1.225831223E1
2.056786488E0	3.806780577E-1	1.453280449E0	1.204283428E1
2.058023730E0	3.711012602E-1	1.314416766E0	1.196621990E1
2.060839681E0	4.333505034E-1	1.029506683E0	1.193748951E1
2.062592807E0	5.434837937E-1	6.105214357E-1	1.195903778E1
2.064898604E0	7.230489254E-1	2.011129409E-1	1.201889229E1
2.066073845E0	9.050082564E-1	-1.891419291E-1	1.209071827E1
2.068951488E0	1.115697980E0	-5.985504389E-1	1.207635307E1
2.070525114E0	1.300051570E0	-9.241618514E-1	1.198776817E1
2.073010334E0	1.450886250E0	-1.209071875E0	1.185608673E1
2.074264230E0	1.616086125E0	-1.431732655E0	1.170046329E1
2.077063411E0	1.723825216E0	-1.577778935E0	1.153047562E1
2.078387345E0	1.826775908E0	-1.628057122E0	1.137724686E1
2.081162230E0	1.987187386E0	-1.659181833E0	1.125035381E1
2.082406691E0	2.121262789E0	-1.726219416E0	1.105163479E1
2.085282527E0	2.250549555E0	-1.793257117E0	1.084094524E1
2.086806922E0	2.401384354E0	-1.778891921E0	1.046984386E1
2.089322911E0	2.408566952E0	-1.750161409E0	1.034055710E1
2.090518730E0	2.420537949E0	-1.723825216E0	1.010353088E1
2.093376642E0	2.868253708E0	-1.731007814E0	9.758766174E0
2.095077114E0	3.375824451E0	-1.704671621E0	9.670180321E0
2.097428911E0	3.763684988E0	-1.683123827E0	9.691728592E0
2.098964999E0	3.974374771E0	-1.790862918E0	9.737217903E0
2.101482104E0	4.134786129E0	-2.030282974E0	9.732429504E0
2.103069922E0	4.307168961E0	-2.370259762E0	9.581595421E0
2.105523334E0	4.108449936E0	-2.695871115E0	9.397241592E0
2.106787345E0	3.545812607E0	-2.983175278E0	9.248801231E0
2.109575988E0	3.177105665E0	-3.251325846E0	9.057265282E0
2.111082999E0	3.160346270E0	-3.507505417E0	8.789113998E0
2.113636219E0	3.315969467E0	-3.828328609E0	8.485051155E0
2.114852960E0	4.096478939E0	-4.867412090E0	8.264783859E0
2.117689027E0	4.587290287E0	-5.552153587E0	8.008605003E0
2.118930268E0	4.333505154E0	-4.970362663E0	7.659051418E0
2.121787142E0	4.074931145E0	-4.031835556E0	7.340622425E0
2.123020576E0	3.725377798E0	-3.143586874E0	7.161057472E0
2.125874911E0	3.670311213E0	-2.461239338E0	6.986280441E0
2.127449460E0	4.015076160E0	-2.195482969E0	6.792350292E0
2.129949373E0	4.450820923E0	-2.346317768E0	6.596025467E0
2.131235576E0	4.778826714E0	-2.674323320E0	6.363788128E0
2.134003219E0	4.876988888E0	-2.889801502E0	6.306327343E0
2.135961460E0	4.659116745E0	-2.791639090E0	6.483498096E0
2.138057488E0	4.553771496E0	-2.691082716E0	6.627150536E0
2.139489076E0	4.271255970E0	-2.468421936E0	7.007828236E0
2.142110834E0	3.926490784E0	-2.197877169E0	7.400477409E0
2.143658922E0	3.517082214E0	-1.898601890E0	7.955932140E0
2.146170796E0	3.313575268E0	-1.855506301E0	8.202534676E0
2.147416883E0	2.755726099E0	-1.754949808E0	8.786720276E0
2.150224180E0	2.128445387E0	-1.711854219E0	9.301473618E0
2.151776345E0	1.024718285E0	-2.370259762E0	9.409213066E0
2.154207499E0	5.913678408E-1	-2.367865562E0	9.928754807E0
2.155675614E0	-3.734954596E-1	-1.477222443E0	1.126471901E1
2.158320488E0	-1.345541358E0	-5.626373887E-1	1.186326981E1
2.159687768E0	-2.372653961E0	-5.674257874E-1	1.196861458E1
2.162424219E0	-2.798821688E0	-1.331176162E0	1.173398209E1
2.163665230E0	-3.184288263E0	-2.303221941E0	1.135569859E1
2.166512719E0	-3.521870613E0	-3.265691042E0	1.110670185E1
2.168078845E0	-3.462015629E0	-4.388571739E0	1.104445267E1
2.170572334E0	-3.052607059E0	-5.772420406E0	1.121922874E1
2.172026306E0	-3.124433279E0	-5.942408562E0	1.140118885E1
2.174625488E0	-3.107673883E0	-5.233725071E0	1.152808094E1
2.176298960E0	-2.650381327E0	-4.455609322E0	1.157357121E1
2.178683296E0	-1.900996208E0	-3.847482204E0	1.143710136E1
2.179951460E0	-1.019929886E0	-3.497928619E0	1.114500904E1
2.182735949E0	-1.675941199E-1	-3.205836058E0	1.083855152E1
2.184331306E0	7.565677166E-1	-3.031059265E0	1.048899746E1
2.186795180E0	1.762132406E0	-2.916137695E0	1.001973438E1
2.188050383E0	2.734178305E0	-2.829946518E0	9.212887764E0
2.190847949E0	3.584120035E0	-2.753331900E0	8.305485725E0
2.192629345E0	4.247313976E0	-2.628833532E0	7.572859764E0
2.194906103E0	4.616020679E0	-2.413355350E0	6.955155849E0
2.196117422E0	4.903325081E0	-1.984793186E0	6.327875137E0
2.198959257E0	5.310339451E0	-1.522712231E0	5.726930618E0
2.200211576E0	6.153098583E0	-1.565807939E0	5.355829239E0
2.203070142E0	6.969521046E0	-1.453280449E0	5.133168221E0
2.204288422E0	7.321468830E0	-4.333505034E-1	4.793191910E0
2.207159103E0	7.852981567E0	6.943184733E-1	4.505887508E0
2.208769345E0	8.755595207E0	1.783680320E0	4.141968727E0
2.211219795E0	9.038111687E0	2.059013367E0	4.039018154E0
2.212672383E0	9.734824181E0	2.418143749E0	4.101267338E0
2.215273218E0	1.053448772E1	2.549824715E0	4.565742493E0
2.216976653E0	1.170525169E1	2.573766708E0	5.339069843E0
2.219315488E0	1.203086376E1	2.590526342E0	5.585672379E0
2.220488883E0	1.264856720E1	2.647987127E0	6.004657745E0
2.223368642E0	1.327584839E1	2.762908697E0	6.773196697E0
2.224906114E0	1.321599293E1	2.930502892E0	7.378929615E0
2.227442565E0	1.291671848E1	3.055001259E0	7.886500359E0
2.228719537E0	1.255040550E1	3.095702887E0	8.192957878E0
2.231495795E0	1.219845772E1	3.045424461E0	8.298302650E0
2.233101576E0	1.178665543E1	3.047818661E0	8.535328865E0
2.235475806E0	1.119289303E1	3.217807055E0	9.186552048E0
2.236753691E0	1.050575733E1	3.423708439E0	9.718064308E0
2.239608911E0	9.813833237E0	3.605667830E0	9.840168953E0
2.240949614E0	9.109937668E0	3.761290789E0	9.761159897E0
2.243724795E0	8.439560890E0	3.943250179E0	9.665391922E0
2.244975691E0	7.831433773E0	4.165910721E0	9.567230225E0
2.247813641E0	7.287950039E0	4.448426723E0	9.428366661E0
2.249406037E0	6.816292286E0	4.797980309E0	9.303867340E0
2.251887449E0	6.449979305E0	5.114014626E0	9.282320023E0
2.253114229E0	6.186617374E0	5.415684223E0	9.217676163E0
2.255940949E0	6.054935932E0	5.702988625E0	9.162610054E0
2.258001691E0	5.947196960E0	5.906495571E0	9.030928612E0
2.259994141E0	5.947196960E0	5.889736176E0	9.004592896E0
2.261165691E0	6.047753334E0	5.719748020E0	9.006986618E0
2.264047641E0	6.208165169E0	5.516240597E0	9.059659004E0
2.265586653E0	6.320692539E0	5.269638062E0	9.117119789E0
2.268107334E0	6.332663536E0	5.171475887E0	9.093177795E0
2.269301960E0	6.294356346E0	4.948814869E0	9.018958092E0
2.272161526E0	6.277596951E0	4.735731125E0	8.951920509E0
2.273711576E0	6.205770969E0	4.575319290E0	8.906430244E0
2.276236641E0	6.136339188E0	4.534617901E0	8.892065048E0
2.277462229E0	5.987898350E0	4.414907932E0	8.841787338E0
2.280290641E0	5.947196960E0	4.220977783E0	8.774748802E0
2.281517537E0	5.920860767E0	3.919308186E0	8.710105896E0
2.284387257E0	5.844246387E0	3.770867586E0	8.705317497E0
2.285674653E0	5.671864033E0	3.636792421E0	8.638279915E0
2.288474949E0	5.444414616E0	3.473986626E0	8.540117264E0
2.290008576E0	5.248090267E0	3.311181068E0	8.485051155E0
2.292534757E0	5.147533417E0	3.169923067E0	8.470685959E0
2.293923768E0	5.102043629E0	3.043030262E0	8.429984093E0
2.296588987E0	5.013458252E0	3.011905670E0	8.410830498E0
2.298265729E0	4.960785866E0	3.031059265E0	8.475474358E0
2.300655757E0	4.967968464E0	3.052607059E0	8.549694061E0
2.301873614E0	5.011064053E0	3.019088268E0	8.542511940E0
2.304708910E0	5.125985622E0	2.978386879E0	8.475474358E0
2.306289922E0	5.252878666E0	2.983175278E0	8.396465302E0
2.308768257E0	5.351040840E0	3.040636063E0	8.336610794E0
2.310003037E0	5.394136429E0	3.145981073E0	8.262390137E0
2.312822103E0	5.413290024E0	3.275267839E0	8.185775757E0
2.314448652E0	5.418078423E0	3.380612850E0	8.164227486E0
2.316881795E0	5.425261021E0	3.430891037E0	8.192957878E0
2.318092537E0	5.446808815E0	3.423708439E0	8.224082947E0
2.320936487E0	5.422866821E0	3.442862034E0	8.214506149E0
2.322383806E0	5.410895824E0	3.392583847E0	8.233659744E0
2.325068218E0	5.439626217E0	3.205836058E0	8.319850922E0
2.326291691E0	5.489904404E0	2.999934673E0	8.389283180E0
2.329157756E0	5.540182590E0	2.856282711E0	8.324639320E0
2.330692383E0	5.619191170E0	2.726995707E0	8.111555099E0
2.333220064E0	5.640739441E0	2.691082716E0	8.061277390E0
2.334407345E0	5.714959621E0	2.607285738E0	7.984662533E0
2.337274564E0	5.777208805E0	2.482787132E0	7.898471355E0
2.339075499E0	5.600037575E0	2.185906172E0	7.795520782E0
2.341343718E0	5.444414616E0	1.977610588E0	7.824251175E0
2.342533229E0	5.374982834E0	1.821987510E0	7.953537941E0
2.345397872E0	5.363011837E0	1.750161409E0	8.128314972E0
2.347048922E0	5.305551052E0	1.798045516E0	8.267178535E0
2.349472872E0	5.243301868E0	1.893813491E0	8.269572258E0
2.350728422E0	5.075707436E0	1.994369984E0	8.128314972E0
2.353526872E0	4.766855717E0	2.056619167E0	7.955932140E0
2.355476845E0	4.436455727E0	2.068590164E0	7.838616371E0
2.357586487E0	4.173093796E0	2.047042370E0	7.807491779E0
2.358825383E0	4.048594952E0	1.989581585E0	7.836222172E0
2.361641026E0	3.998316765E0	1.989581585E0	7.943961143E0
2.362887499E0	3.960009575E0	2.047042370E0	8.123526573E0
2.365738949E0	3.892971992E0	2.082955360E0	8.334216118E0
2.366977460E0	3.785232782E0	2.082955360E0	8.508993149E0
2.369827756E0	3.744531393E0	2.011129379E0	8.645462036E0
2.371409191E0	3.751713991E0	1.853112102E0	8.714894295E0
2.373902526E0	3.718195200E0	1.656787634E0	8.734047890E0
2.375197268E0	3.639186621E0	1.479616642E0	8.729259491E0
2.377957179E0	3.536235809E0	1.333570361E0	8.710105896E0
2.379669422E0	3.371036053E0	1.168370485E0	8.678980827E0
2.382018026E0	3.318363667E0	1.118092179E0	8.681375504E0
2.383209191E0	3.208230257E0	1.029506683E0	8.686163902E0
2.386073256E0	3.088520288E0	9.768342972E-1	8.676587105E0
2.387590729E0	2.918531895E0	9.026140571E-1	8.655038834E0
2.390134987E0	2.892195702E0	8.643068075E-1	8.645462036E0
2.391321383E0	2.887407303E0	7.781155705E-1	8.609549522E0
2.394190102E0	2.863465309E0	7.302315235E-1	8.552088737E0
2.395909383E0	2.784456491E0	6.703764796E-1	8.465897560E0
2.398202652E0	2.765302896E0	6.560112834E-1	8.439560890E0
2.399448076E0	2.748543501E0	6.512228847E-1	8.406042099E0
2.402319910E0	2.758120298E0	6.392518282E-1	8.441955566E0
2.403646691E0	2.798821688E0	6.440402865E-1	8.516175270E0
2.406281037E0	2.894589901E0	6.177040339E-1	8.623914719E0
2.407611306E0	3.040636063E0	5.578489900E-1	8.741230011E0
2.410505948E0	3.172317266E0	5.147533417E-1	8.844181061E0
2.412016114E0	3.253720045E0	5.195417404E-1	8.911218643E0
2.414567256E0	3.308786631E0	5.578489900E-1	8.975862503E0
2.415722768E0	3.397372246E0	5.746083856E-1	9.057265282E0
2.418622179E0	3.545812607E0	5.506663918E-1	9.150638580E0
2.420395768E0	3.761290789E0	4.548983276E-1	9.234436035E0
2.422689872E0	4.005499363E0	2.944868207E-1	9.296685219E0
2.423876922E0	4.244919777E0	1.316810995E-1	9.294290543E0
2.426745102E0	4.424484730E0	2.873042040E-2	9.205705643E0
2.428244845E0	4.503493309E0	-4.548983276E-2	9.030928612E0
2.430806064E0	4.565742493E0	-1.244984865E-1	8.856152534E0
2.431971575E0	4.699818134E0	-2.298433632E-1	8.698134422E0
2.434860448E0	4.886565685E0	-3.639186621E-1	8.537723541E0
2.436352422E0	5.154716492E0	-5.793967843E-1	8.451532364E0
2.438921833E0	5.355829239E0	-7.805097699E-1	8.386888504E0
2.440159114E0	5.432443619E0	-8.523358107E-1	8.267178535E0
2.442977295E0	5.566518784E0	-8.714894056E-1	8.164227486E0
2.444225729E0	5.777208805E0	-8.810662031E-1	8.109161377E0
2.447090102E0	5.968744755E0	-8.427590132E-1	8.032546997E0
2.448309152E0	6.035782337E0	-6.895300746E-1	7.948749542E0
2.451179794E0	5.992686749E0	-4.955997467E-1	7.915230751E0
2.452702114E0	5.765237808E0	-1.867477298E-1	7.903259754E0
2.455241679E0	5.647922039E0	-8.619125932E-2	7.912836552E0
2.456513729E0	5.418078423E0	8.379705995E-2	7.984662533E0
2.459295756E0	5.188235283E0	2.011129409E-1	8.202534676E0
2.460935306E0	5.099649429E0	1.436520964E-1	8.372523308E0
2.463347025E0	4.965574265E0	6.703764945E-2	8.516175270E0
2.464565460E0	4.800374508E0	-2.154781483E-2	8.664615631E0
2.467401910E0	4.704606533E0	-1.699883193E-1	8.841787338E0
2.468909075E0	4.695029736E0	-3.495534360E-1	9.030928612E0
2.471477833E0	4.936843872E0	-5.961562395E-1	9.248801231E0
2.472617345E0	6.792350292E0	-1.434126854E0	9.562441826E0
2.475532102E0	8.762778282E0	-2.662352324E0	9.722852707E0
2.477092152E0	9.179368973E0	-3.414131641E0	9.708487511E0
2.479489114E0	8.631096840E0	-3.598485231E0	9.646238327E0
2.480747037E0	7.843404770E0	-3.356670856E0	9.667786598E0
2.483615602E0	7.187393665E0	-2.841917515E0	9.785101891E0
2.485052191E0	6.725312710E0	-2.157175779E0	9.938331604E0
2.487708845E0	6.387730122E0	-1.403002143E0	1.006761837E1
2.488957152E0	6.035782337E0	-6.607996821E-1	1.009874249E1
2.491817794E0	5.671864033E0	1.675941236E-2	1.003170490E1
2.493372152E0	5.322310448E0	5.841852427E-1	9.907206535E0
2.495873025E0	4.991910458E0	1.003170490E0	9.742006302E0
2.497414575E0	4.690241337E0	1.321599364E0	9.543288231E0
2.499927217E0	4.434061527E0	1.532289028E0	9.342175484E0
2.501724922E0	4.211400986E0	1.623268723E0	9.112331390E0
2.503981756E0	4.175487995E0	1.635239720E0	9.040505409E0
2.505269075E0	4.029441357E0	1.613691926E0	8.939949036E0
2.508036025E0	3.916913986E0	1.520318031E0	8.920795441E0
2.509550960E0	3.780444384E0	1.288080573E0	8.894459724E0
2.512096602E0	3.754108191E0	1.209071875E0	8.853757858E0
2.513305922E0	3.742137194E0	1.063025594E0	8.769960403E0
2.516150371E0	3.842693806E0	9.576807022E-1	8.667010307E0
2.517831806E0	4.084507942E0	8.930372596E-1	8.444349289E0
2.520226140E0	4.146757126E0	8.619126081E-1	8.379706383E0
2.521452268E0	4.256890774E0	7.709329724E-1	8.295908928E0
2.524280794E0	4.333505154E0	6.584054828E-1	8.269572258E0
2.525507768E0	4.544194698E0	5.051765442E-1	8.303091049E0
2.528377640E0	4.728548527E0	4.692635238E-1	8.307879448E0
2.529597075E0	4.857835293E0	5.051765442E-1	8.372523308E0
2.532466640E0	4.910507679E0	5.985504389E-1	8.444349289E0
2.534169075E0	4.912901878E0	7.278373241E-1	8.418013573E0
2.536527410E0	4.869806290E0	8.714894056E-1	8.355764389E0
2.538119498E0	4.752490520E0	1.003170490E0	8.288725853E0
2.540581794E0	4.625597477E0	1.139639974E0	8.137891769E0
2.542288037E0	4.498704910E0	1.280897856E0	7.979874134E0
2.544646448E0	4.388571739E0	1.395819545E0	7.869740963E0
2.545980383E0	4.259284973E0	1.489193439E0	7.776367188E0
2.548700486E0	4.067748547E0	1.517923832E0	7.673416615E0
2.550338768E0	3.775655985E0	1.462857246E0	7.580042362E0
2.552760486E0	3.550601006E0	1.362300754E0	7.558494568E0
2.553955998E0	3.411737442E0	1.182735682E0	7.570465565E0
2.556814525E0	3.256114244E0	8.643068075E-1	7.572859764E0
2.558436306E0	3.134010077E0	5.482721925E-1	7.596801758E0
2.560806498E0	3.045424461E0	3.375824392E-1	7.603984833E0
2.562155537E0	2.956839085E0	1.436520964E-1	7.642292023E0
2.564928486E0	2.726995707E0	-1.173158810E-1	7.661445618E0
2.566306345E0	2.504334927E0	-4.022258818E-1	7.647080421E0
2.569055768E0	2.480392933E0	-6.799532771E-1	7.642292023E0
2.570293229E0	2.590526342E0	-9.840168953E-1	7.682993412E0
2.573161563E0	2.659958124E0	-1.340752959E0	7.771578789E0
2.574680383E0	2.621650934E0	-1.848323703E0	7.884106159E0
2.577221832E0	2.595314741E0	-1.991975784E0	7.922413349E0
2.578519922E0	2.597708941E0	-2.255337954E0	8.061277390E0
2.581275102E0	2.691082716E0	-2.506729126E0	8.209717751E0
2.583078614E0	2.892195702E0	-2.861071110E0	8.370129585E0
2.585334948E0	3.071760893E0	-3.064578056E0	8.461109161E0
2.586523037E0	3.320757866E0	-3.191470861E0	8.556877136E0
2.589388871E0	3.641580820E0	-3.270479441E0	8.645462036E0
2.590988845E0	3.950432777E0	-3.294421434E0	8.746018410E0
2.593431371E0	4.175487995E0	-3.241749048E0	8.777143478E0
2.594605306E0	4.331110954E0	-3.241749048E0	8.554482460E0
2.597485486E0	4.620809078E0	-3.296815634E0	8.022970200E0
2.599005768E0	5.157110691E0	-3.385401249E0	7.110779285E0
2.601546294E0	5.408501625E0	-3.667917013E0	5.889736176E0
2.602749075E0	5.159504890E0	-3.998316765E0	5.367800236E0
2.605600486E0	4.795586109E0	-4.053383350E0	6.837840080E0
2.606900845E0	4.599261284E0	-3.706224203E0	9.610325813E0
2.609696640E0	4.481945515E0	-3.351882458E0	1.156159973E1
2.610940114E0	4.417302132E0	-3.253720045E0	1.191833591E1
2.613785025E0	4.424484730E0	-3.299209833E0	1.109951878E1
2.615396537E0	4.587290287E0	-3.433285236E0	9.804255486E0
2.617860486E0	5.030217648E0	-3.584120035E0	8.662221909E0
2.619092922E0	5.453991413E0	-3.538630009E0	7.881711960E0
2.621913448E0	5.592854977E0	-3.433285236E0	7.656657219E0
2.623624960E0	5.372588634E0	-3.655946016E0	8.276755333E0
2.625966448E0	5.214571476E0	-3.754108191E0	8.518569946E0
2.627164998E0	4.831499100E0	-3.864241600E0	8.784325600E0
2.630020101E0	4.505887508E0	-3.837905407E0	8.631096840E0
2.631561691E0	4.335899353E0	-3.521870613E0	7.776367188E0
2.634081217E0	4.390965939E0	-3.373430252E0	7.465120792E0
2.635283575E0	4.632780075E0	-3.095702887E0	6.945579052E0
2.638135178E0	4.944026470E0	-2.887407303E0	6.663063526E0
2.639687768E0	5.425261021E0	-2.521094322E0	6.560112476E0
2.642197229E0	5.633556366E0	-2.341529369E0	6.588842869E0
2.643432383E0	6.133944988E0	-1.970427990E0	6.825869083E0
2.646263755E0	6.569689274E0	-1.582567334E0	7.211335659E0
2.647600114E0	6.517016888E0	-5.554547906E-1	7.548917770E0
2.650360806E0	6.052541733E0	3.639186621E-1	7.697358608E0
2.651598268E0	5.750872612E0	1.077390790E0	8.264783859E0
2.654473871E0	5.681440830E0	1.400607944E0	9.145850182E0
2.656048306E0	5.772420406E0	1.326387763E0	9.923966408E0
2.658534640E0	5.767632008E0	1.127668977E0	1.046505547E1
2.659725729E0	5.683835030E0	9.864110947E-1	1.080742645E1
2.662588332E0	5.698200226E0	7.829039693E-1	1.113303757E1
2.664674114E0	5.925649166E0	3.830722570E-1	1.135330486E1
2.666647448E0	6.117185116E0	4.070143029E-2	1.134612179E1
2.667917921E0	6.241683960E0	-1.915361285E-1	1.123598862E1
2.670700178E0	6.265625954E0	-3.136404157E-1	1.106121159E1
2.672395614E0	6.224924564E0	-3.495534360E-1	1.077869606E1
2.674759524E0	6.172252178E0	-2.825157940E-1	1.043393135E1
2.675965152E0	6.071695328E0	-1.532289088E-1	1.007001209E1
2.678811524E0	5.925649166E0	2.394201700E-3	9.715670586E0
2.680386075E0	5.822698593E0	1.508347094E-1	9.363722801E0
2.682870486E0	5.856217384E0	2.609679997E-1	9.011775017E0
2.684218960E0	5.932831764E0	3.136404157E-1	8.664615631E0
2.686923101E0	6.004657745E0	3.256114423E-1	8.317456245E0
2.688166345E0	5.995080948E0	3.327940404E-1	7.994239330E0
2.691033370E0	5.901707172E0	4.046200812E-1	7.704541206E0
2.692249345E0	5.714959621E0	5.267243981E-1	7.508216381E0
2.695120794E0	5.540182590E0	5.722141862E-1	7.445967197E0
2.696651306E0	5.250484467E0	5.410895944E-1	7.438784599E0
2.699180101E0	5.130774021E0	5.386953950E-1	7.419631004E0
2.700374537E0	4.843470097E0	5.793967843E-1	7.393294811E0
2.703233024E0	4.572925091E0	6.464344859E-1	7.419631004E0
2.705336152E0	4.553771496E0	6.200982332E-1	7.366958618E0
2.707274601E0	4.953603268E0	5.434837937E-1	6.950367451E0
2.708624345E0	5.193023682E0	4.788403511E-1	6.749254704E0
2.711326793E0	5.588066578E0	2.681505978E-1	6.509834290E0
2.713125729E0	5.664681435E0	1.221042871E-1	6.502651691E0
2.715399640E0	5.853823185E0	-1.436520964E-1	6.543353081E0
2.716622421E0	6.169857979E0	-5.123591423E-1	6.612784863E0
2.719452678E0	6.495469093E0	-8.978256583E-1	6.696582317E0
2.720974460E0	6.732495308E0	-1.225831270E0	6.725312710E0
2.723415114E0	6.947973251E0	-1.527500629E0	6.742072105E0
2.724688921E0	7.182605267E0	-1.805228114E0	6.809109688E0
2.727566563E0	7.386112213E0	-2.003946781E0	6.897695065E0
2.728929960E0	7.558494568E0	-2.099714994E0	6.969521046E0
2.731629498E0	7.623138428E0	-2.114080191E0	7.012616634E0
2.732916883E0	7.630321026E0	-2.094926596E0	7.058106422E0
2.735769601E0	7.613561630E0	-2.051830769E0	7.144298077E0
2.737345921E0	7.546523571E0	-1.984793186E0	7.256825447E0
2.739845293E0	7.477091789E0	-1.917755604E0	7.366958618E0
2.741034460E0	7.462726593E0	-1.862688899E0	7.493851185E0
2.743898986E0	7.412448406E0	-1.826775908E0	7.594407558E0
2.745567152E0	7.206547260E0	-1.798045516E0	7.738059998E0
2.747958601E0	7.089231014E0	-1.776497602E0	7.776367188E0
2.749180729E0	6.847416878E0	-1.690306425E0	7.807491779E0
2.752012255E0	6.591237068E0	-1.589749932E0	7.848193169E0
2.753532768E0	6.174646378E0	-1.544260144E0	7.951143742E0
2.756071986E0	6.054935932E0	-1.537077546E0	7.989450932E0
2.757285191E0	5.844246387E0	-1.537077546E0	8.090007782E0
2.760125486E0	5.657498837E0	-1.563413739E0	8.219294548E0
2.761660729E0	5.547365189E0	-1.604115129E0	8.374917984E0
2.764200639E0	5.566518784E0	-1.604115129E0	8.429984093E0
2.765530883E0	5.566518784E0	-1.630451322E0	8.544905663E0
2.768254139E0	5.566518784E0	-1.675941229E0	8.643068314E0
2.769497075E0	5.535394192E0	-1.692700624E0	8.801085472E0
2.772349755E0	5.432443619E0	-1.683123827E0	8.918401718E0
2.773581460E0	5.319916248E0	-1.640028119E0	9.040505409E0
2.776438024E0	5.183446884E0	-1.565807939E0	9.141061783E0
2.778097652E0	5.006275654E0	-1.510741234E0	9.200917244E0
2.780465409E0	4.829104900E0	-1.493981838E0	9.234436035E0
2.781670537E0	4.740519524E0	-1.414973259E0	9.210494041E0
2.784518909E0	4.707000732E0	-1.264138460E0	9.172186852E0
2.786389729E0	4.711789131E0	-1.101332784E0	9.155426979E0
2.788582793E0	4.673481941E0	-1.003170490E0	9.141061783E0
2.789869114E0	4.659116745E0	-9.481038451E-1	9.074024200E0
2.792636909E0	4.718971729E0	-7.709329724E-1	8.987833023E0
2.794174537E0	4.692635536E0	-6.440402865E-1	8.961497307E0
2.796696062E0	4.587290287E0	-6.296750307E-1	8.935160637E0
2.798229114E0	4.460397720E0	-4.908113480E-1	8.856152534E0
2.800749447E0	4.359841347E0	-4.022258818E-1	8.805873871E0
2.802343152E0	4.326322556E0	-3.878606856E-1	8.779537201E0
2.804750229E0	4.276044369E0	-3.711012602E-1	8.710105896E0
2.806027460E0	4.345476151E0	-3.375824392E-1	8.588001251E0
2.808862909E0	4.436455727E0	-2.561795712E-1	8.485051155E0
2.810288421E0	4.472368717E0	-1.939303428E-1	8.406042099E0
2.812995152E0	4.479551315E0	-2.346317619E-1	8.355764389E0
2.814220268E0	4.426878929E0	-2.561795712E-1	8.317456245E0
2.817084716E0	4.410119534E0	-1.771709323E-1	8.262390137E0
2.818822306E0	4.510675907E0	-7.900865376E-2	8.192957878E0
2.821144024E0	4.556165695E0	-9.097966552E-2	8.166622162E0
2.822394229E0	4.656722069E0	-1.364694983E-1	8.109161377E0
2.825197062E0	4.730942726E0	-1.699883193E-1	8.054094315E0
2.826953998E0	4.759673119E0	-2.370259613E-1	7.991845131E0
2.829264793E0	4.759673119E0	-2.825157940E-1	7.951143742E0
2.830459844E0	4.824316502E0	-3.280056417E-1	7.893682957E0
2.833318408E0	4.922478676E0	-3.663128614E-1	7.855375767E0
2.834854883E0	4.991910458E0	-4.022258818E-1	7.848193169E0
2.837392293E0	5.037400246E0	-4.501099288E-1	7.845798969E0
2.838777921E0	5.092466831E0	-5.291185975E-1	7.845798969E0
2.841444601E0	5.188235283E0	-6.057330370E-1	7.841010571E0
2.843046806E0	5.286397457E0	-7.015010715E-1	7.826645374E0
2.845505139E0	5.398924828E0	-8.140285611E-1	7.805097580E0
2.846871614E0	5.501875401E0	-9.026140571E-1	7.797914982E0
2.849557985E0	5.523423195E0	-9.265560508E-1	7.754819393E0
2.850831652E0	5.477933407E0	-8.834604025E-1	7.690176010E0
2.853653754E0	5.463568211E0	-8.619126081E-1	7.656657219E0
2.854876267E0	5.506663799E0	-8.690952063E-1	7.649474621E0
2.857741793E0	5.592854977E0	-8.786720037E-1	7.630321026E0
2.859347575E0	5.686229229E0	-8.499416113E-1	7.599195957E0
2.861815985E0	5.726930618E0	-8.188169599E-1	7.599195957E0
2.863124652E0	5.724536419E0	-8.355764151E-1	7.632715225E0
2.865869947E0	5.731719017E0	-8.523358107E-1	7.671022415E0
2.867585229E0	5.820304394E0	-7.996633649E-1	7.692570210E0
2.869930601E0	5.877765179E0	-7.589619160E-1	7.685387611E0
2.871311883E0	5.954379559E0	-6.751648784E-1	7.668628216E0
2.873985793E0	5.966350555E0	-5.985504389E-1	7.659051418E0
2.875606383E0	6.002263546E0	-5.195417404E-1	7.632715225E0
2.878047524E0	6.009446144E0	-5.075707436E-1	7.630321026E0
2.879326306E0	6.009446144E0	-4.812345505E-1	7.663839817E0
2.882102139E0	5.990292549E0	-4.453215301E-1	7.709329605E0
2.883745498E0	5.942408562E0	-4.261679053E-1	7.771578789E0
2.886145139E0	5.935225964E0	-4.357447028E-1	7.790732384E0
2.887389575E0	5.944802761E0	-4.764461517E-1	7.829039574E0
2.890199062E0	5.940014362E0	-5.530605912E-1	7.884106159E0
2.891693844E0	5.851428986E0	-7.182605267E-1	7.994239330E0
2.894153960E0	5.829881191E0	-8.188169599E-1	8.051700592E0
2.895453537E0	5.839457989E0	-8.643068075E-1	8.063671112E0
2.898309524E0	5.954379559E0	-1.012747288E0	8.018181801E0
2.899968575E0	6.004657745E0	-1.086967587E0	7.991845131E0
2.902349908E0	5.980715752E0	-1.113303781E0	7.999027729E0
2.903579883E0	5.923254967E0	-1.103726983E0	8.034940720E0
2.906402754E0	5.870582581E0	-1.077390790E0	8.063671112E0
2.908254729E0	5.911283970E0	-1.065419793E0	8.073247910E0
2.910472831E0	6.050147533E0	-1.077390790E0	8.063671112E0
2.911724075E0	6.217741966E0	-1.094150186E0	8.032546997E0
2.914526023E0	6.414066315E0	-1.108515382E0	8.013393402E0
2.916136844E0	6.615179062E0	-1.108515382E0	7.987056732E0
2.918584562E0	6.708553314E0	-1.077390790E0	7.967903137E0
2.919862806E0	6.493074894E0	-1.005564690E0	7.982268333E0
2.922638062E0	6.095637321E0	-9.337386489E-1	8.025363922E0
2.924185844E0	5.753266811E0	-9.289502501E-1	8.061277390E0
2.926696831E0	5.535394192E0	-9.792284966E-1	8.073247910E0
2.927943306E0	5.367800236E0	-1.046266198E0	8.022970200E0
2.930750139E0	5.207388878E0	-1.094150186E0	7.934384346E0
2.932070037E0	5.092466831E0	-1.074996591E0	7.857769966E0
2.934861870E0	4.975151062E0	-1.036689281E0	7.829039574E0
2.936119306E0	4.853046894E0	-1.027112484E0	7.843404770E0
2.938950716E0	4.795586109E0	-1.055842996E0	7.864952564E0
2.940478383E0	5.284003258E0	-1.189918280E0	7.819462776E0
2.943011177E0	5.482721806E0	-1.211466074E0	7.809885979E0
2.944286152E0	5.669469833E0	-1.218648672E0	7.781155586E0
2.947064946E0	5.631162167E0	-1.247379065E0	7.762001991E0
2.948789652E0	5.453991413E0	-1.247379065E0	7.829039574E0
2.951122216E0	5.418078423E0	-1.213860273E0	7.857769966E0
2.952410460E0	5.408501625E0	-1.082179189E0	7.920019150E0
2.955176562E0	5.489904404E0	-9.121908545E-1	8.027758598E0
2.956737806E0	5.719748020E0	-6.799532771E-1	8.305485725E0
2.959250908E0	5.846640587E0	-4.477157295E-1	8.461109161E0
2.960455844E0	6.081272125E0	-1.651999205E-1	8.518569946E0
2.963304793E0	6.454767704E0	1.340752989E-1	8.578424454E0
2.964831498E0	6.701370716E0	3.280056417E-1	8.633491516E0
2.967299690E0	6.622362137E0	3.112462163E-1	8.611943245E0
2.968811844E0	6.423643112E0	1.771709323E-1	8.516175270E0
2.971418523E0	6.311115742E0	1.173158810E-1	8.418013573E0
2.972726883E0	6.253654957E0	9.816227108E-2	8.365341187E0
2.975520229E0	6.136339188E0	4.548983276E-2	8.370129585E0
2.976870152E0	5.949591160E0	-1.005564705E-1	8.389283180E0
2.979622523E0	5.743690014E0	-2.777273953E-1	8.408436775E0
2.981587421E0	5.554547787E0	-4.596867263E-1	8.410830498E0
2.983697869E0	5.492298603E0	-5.961562395E-1	8.401253700E0
2.985109690E0	5.475539207E0	-6.703764796E-1	8.432378769E0
2.987751831E0	5.427655220E0	-7.637503147E-1	8.382100105E0
2.989496767E0	5.446808815E0	-8.259995580E-1	8.295908928E0
2.991817562E0	5.456385612E0	-8.427590132E-1	8.269572258E0
2.993013114E0	5.422866821E0	-8.403648138E-1	8.255207062E0
2.995871600E0	5.465962410E0	-8.140285611E-1	8.216899872E0
2.997449537E0	5.700594425E0	-7.398083210E-1	8.092401505E0
2.999932062E0	5.856217384E0	-6.655880809E-1	7.955932140E0
3.001108537E0	5.781997204E0	-5.985504389E-1	7.848193169E0
3.003986100E0	5.583278179E0	-5.003881454E-1	7.850587368E0
3.005482729E0	5.640739441E0	-4.333505034E-1	7.984662533E0
3.008060523E0	5.822698593E0	-4.836287498E-1	7.970297337E0
3.009291537E0	6.246472359E0	-6.224924326E-1	7.867346764E0
3.012113754E0	6.512228489E0	-6.991068721E-1	7.766790390E0
3.013500037E0	6.524199486E0	-7.015010715E-1	7.690176010E0
3.016209638E0	6.394912720E0	-6.607996821E-1	7.639897823E0
3.017560460E0	6.117185116E0	-6.129156351E-1	7.534552574E0
3.020298408E0	5.920860767E0	-6.224924326E-1	7.441178799E0
3.022177575E0	5.671864033E0	-6.248866320E-1	7.400477409E0
3.024359408E0	5.403713226E0	-6.296750307E-1	7.419631004E0
3.025664883E0	5.252878666E0	-6.344634295E-1	7.489062786E0
3.028413523E0	5.257667065E0	-6.727706790E-1	7.599195957E0
3.030318575E0	5.341464043E0	-7.278373241E-1	7.718906403E0
3.032487677E0	5.470750809E0	-7.685387731E-1	7.819462776E0
3.033837729E0	5.602431774E0	-7.948749661E-1	7.884106159E0
3.036542754E0	5.688623428E0	-8.331822157E-1	7.934384346E0
3.038085614E0	5.729324818E0	-8.667010069E-1	7.943961143E0
3.040603754E0	5.762843609E0	-8.738836050E-1	7.927201748E0
3.041854729E0	5.829881191E0	-8.834604025E-1	7.934384346E0
3.044658600E0	5.861005783E0	-8.882488012E-1	7.965508938E0
3.046263883E0	5.798756599E0	-8.858546019E-1	7.958326340E0
3.048662037E0	5.710171223E0	-9.121908545E-1	7.915230751E0
3.050082190E0	5.633556366E0	-9.672574997E-1	7.922413349E0
3.052774138E0	5.580883980E0	-1.039083481E0	7.977479935E0
3.054205344E0	5.573701382E0	-1.082179189E0	8.042123795E0
3.056904344E0	5.590460777E0	-1.118092179E0	8.078036308E0
3.058149267E0	5.650316238E0	-1.149216771E0	8.113949776E0
3.060999792E0	5.760449409E0	-1.165976286E0	8.142680168E0
3.062528037E0	6.030993938E0	-1.137245774E0	8.250418663E0
3.065060600E0	6.095637321E0	-1.130063176E0	8.257601738E0
3.066288806E0	6.150704384E0	-1.149216771E0	8.243236542E0
3.069114215E0	6.172252178E0	-1.185129881E0	8.212111473E0
3.070851690E0	6.212953568E0	-1.168370485E0	8.154650688E0
3.073184715E0	6.215347767E0	-1.134851575E0	8.121131897E0
3.074372690E0	6.196194172E0	-1.091755986E0	8.063671112E0
3.077238869E0	6.165069580E0	-1.098938584E0	8.027758598E0
3.078787267E0	6.153098583E0	-1.077390790E0	8.037335396E0
3.081314100E0	6.153098583E0	-1.034295082E0	8.046912193E0
3.082538613E0	6.248866558E0	-9.816226959E-1	8.049305916E0
3.085368523E0	6.505045891E0	-9.313444495E-1	8.044517517E0
3.086935190E0	6.737283707E0	-8.882488012E-1	8.073247910E0
3.089426113E0	6.605602264E0	-8.643068075E-1	8.042123795E0
3.090651152E0	6.217741966E0	-8.523358107E-1	7.987056732E0
3.093483061E0	5.674258232E0	-8.068459630E-1	7.915230751E0
3.094701421E0	5.240907669E0	-7.230489254E-1	7.857769966E0
3.097579946E0	5.152322292E0	-6.344634295E-1	7.872135162E0
3.098804306E0	5.489904404E0	-5.578489900E-1	8.054094315E0
3.101668677E0	5.928043365E0	-5.434837937E-1	8.188169479E0
3.103289806E0	6.126761913E0	-5.937620401E-1	8.087613106E0
3.105711600E0	6.229712963E0	-6.320692301E-1	8.006210327E0
3.107054921E0	6.198588371E0	-6.943184733E-1	7.795520782E0
3.109765638E0	6.184223175E0	-7.182605267E-1	7.685387611E0
3.111553152E0	6.181828976E0	-6.943184733E-1	7.647080421E0
3.113835138E0	6.191405773E0	-6.751648784E-1	7.627926826E0
3.115041229E0	6.208165169E0	-6.751648784E-1	7.508216381E0
3.117888292E0	6.136339188E0	-6.751648784E-1	7.283161640E0
3.119434998E0	5.875370979E0	-7.134721279E-1	6.955155849E0
3.121948253E0	5.604825974E0	-7.398083210E-1	6.794744492E0
3.123269844E0	5.588066578E0	-6.607996821E-1	6.943184853E0
3.126001292E0	5.767632008E0	-5.147533417E-1	7.120356083E0
3.127673460E0	5.741295815E0	-4.812345505E-1	6.993463039E0
3.130075446E0	5.659893036E0	-5.051765442E-1	6.969521046E0
3.131393152E0	5.585672379E0	-5.841852427E-1	7.070077419E0
3.134128676E0	5.750872612E0	-6.488286853E-1	7.316680431E0
3.135472152E0	5.932831764E0	-7.613561153E-1	7.584830761E0
3.138241729E0	5.884947777E0	-8.188169599E-1	7.654263020E0
3.139473537E0	5.659893036E0	-7.996633649E-1	7.615955830E0
3.142338100E0	5.307945251E0	-6.847416759E-1	7.498639584E0
3.143883613E0	5.252878666E0	-3.208230138E-1	7.781155586E0
3.146399253E0	5.882553577E0	1.867477298E-1	8.068459511E0
3.147586344E0	7.060500622E0	5.506663918E-1	8.068459511E0
3.150452753E0	7.680599213E0	4.908113480E-1	7.991845131E0
3.152135806E0	7.627926826E0	2.059013397E-1	7.946355343E0
3.154509715E0	7.321468830E0	-1.005564705E-1	7.943961143E0
3.155698460E0	6.962338448E0	-3.758896589E-1	8.003816605E0
3.158564369E0	6.505045891E0	-5.793967843E-1	8.013393402E0
3.160174113E0	5.932831764E0	-6.129156351E-1	8.020575523E0
3.162625676E0	5.396530628E0	-4.644751251E-1	8.037335396E0
3.163897613E0	5.030217648E0	-3.399766386E-1	8.049305916E0
3.166680176E0	4.726154327E0	-4.333505034E-1	7.939172745E0
3.168205767E0	4.481945515E0	-6.991068721E-1	7.711723804E0
3.170741753E0	4.572925091E0	-9.672574997E-1	7.709329605E0
3.171952152E0	4.960785866E0	-1.165976286E0	7.876923561E0
3.174796792E0	5.382165432E0	-1.280897856E0	8.025363922E0
3.176032844E0	5.645527840E0	-1.369483352E0	8.121131897E0
3.178908292E0	5.798756599E0	-1.438915253E0	8.123526573E0
3.180387844E0	5.894524574E0	-1.479616642E0	8.054094315E0
3.182997446E0	5.985504150E0	-1.493981838E0	7.963114738E0
3.184530960E0	6.133944988E0	-1.532289028E0	7.833827972E0
3.187058715E0	6.181828976E0	-1.556231141E0	7.795520782E0
3.189051369E0	6.270414352E0	-1.611297727E0	7.742848396E0
3.191112676E0	6.418854713E0	-1.678335428E0	7.718906403E0
3.192747229E0	6.502651691E0	-1.759738207E0	7.613561630E0
3.195162638E0	6.514622688E0	-1.771709204E0	7.587224960E0
3.196411229E0	6.600813866E0	-1.759738207E0	7.553706169E0
3.199217522E0	6.732495308E0	-1.719036818E0	7.496245384E0
3.200776652E0	6.739677906E0	-1.640028119E0	7.184999466E0
3.203293292E0	6.603208065E0	-1.625662923E0	6.938396454E0
3.204550921E0	6.488286495E0	-1.592144132E0	6.854599476E0
3.207347561E0	6.368576527E0	-1.484405041E0	6.921637058E0
3.208886998E0	6.217741966E0	-1.316810966E0	7.058106422E0
3.211350536E0	6.033388138E0	-1.161187768E0	7.196970463E0
3.212662652E0	5.808333397E0	-1.019929886E0	7.280767441E0
3.215461868E0	5.571307182E0	-9.050082564E-1	7.321468830E0
3.216918806E0	5.437232018E0	-8.355764151E-1	7.369352818E0
3.219494460E0	5.406107426E0	-7.972691655E-1	7.431602001E0
3.220867498E0	5.355829239E0	-7.541735172E-1	7.465120792E0
3.223662868E0	5.346252441E0	-7.278373241E-1	7.479485989E0
3.225273190E0	5.422866821E0	-7.589619160E-1	7.484274387E0
3.227739561E0	5.540182590E0	-8.379706144E-1	7.469909191E0
3.228962190E0	5.693411827E0	-9.145850539E-1	7.453149796E0
3.231794599E0	5.856217384E0	-9.792284966E-1	7.433996201E0
3.233446075E0	6.040570736E0	-1.060631394E0	7.414842606E0
3.235865599E0	6.208165169E0	-1.165976286E0	7.407660007E0
3.237048921E0	6.330269337E0	-1.256955862E0	7.426813602E0
3.239920407E0	6.399701118E0	-1.323993564E0	7.479485989E0
3.241498421E0	6.378153324E0	-1.328781962E0	7.544129372E0
3.243980599E0	6.351817131E0	-1.314416766E0	7.546523571E0
3.245185075E0	6.301538944E0	-1.237802267E0	7.517793179E0
3.248035022E0	6.311115742E0	-1.130063176E0	7.448361397E0
3.249611767E0	6.739677906E0	-9.864110947E-1	7.400477409E0
3.252111407E0	7.084442616E0	-9.026140571E-1	7.369352818E0
3.253318536E0	7.366958618E0	-7.350199223E-1	7.369352818E0
3.256165714E0	6.971915245E0	-5.913678408E-1	7.390900612E0
3.257393152E0	6.586448669E0	-4.668693244E-1	7.412448406E0
3.260262638E0	6.411672115E0	-3.543418646E-1	7.460332394E0
3.261473344E0	6.303933144E0	-2.513911724E-1	7.481880188E0
3.264352176E0	6.452373505E0	-1.532289088E-1	7.493851185E0
3.265869652E0	6.536170483E0	-1.771709323E-1	7.580042362E0
3.268411984E0	6.694188118E0	-2.705447972E-1	7.625532627E0
3.269656267E0	6.816292286E0	-3.639186621E-1	7.687781811E0
3.272466176E0	7.151480675E0	-4.022258818E-1	7.532158375E0
3.274373767E0	7.489062786E0	-4.572925270E-1	7.299921036E0
3.276537791E0	7.922413349E0	-5.770025849E-1	7.273584843E0
3.277716536E0	8.489839554E0	-6.775590777E-1	7.407660007E0
3.280592253E0	8.808267593E0	-6.895300746E-1	7.426813602E0
3.282197767E0	8.566453934E0	-5.889736414E-1	7.115567684E0
3.284653522E0	7.848193169E0	-3.064578176E-1	6.579266071E0
3.285853075E0	6.871358871E0	6.464344263E-2	6.119579315E0
3.288708214E0	5.832275391E0	4.501099288E-1	5.755661011E0
3.290271459E0	4.891354084E0	7.637503147E-1	5.729324818E0
3.292749729E0	4.113238335E0	9.696516991E-1	6.110002518E0
3.294084036E0	3.421314240E0	1.041477680E0	6.521805286E0
3.296822984E0	2.822763920E0	9.504981041E-1	6.856993675E0
3.298188806E0	2.466027737E0	7.182605267E-1	7.285555840E0
3.300941959E0	2.516305923E0	3.591302633E-1	7.826645374E0
3.302182729E0	2.839523315E0	-1.101332754E-1	8.317456245E0
3.305050060E0	3.469198227E0	-6.536170840E-1	8.796297073E0
3.306581959E0	5.121197224E0	-1.355118155E0	8.956708908E0
3.309091022E0	5.631162167E0	-1.546654344E0	8.882488251E0
3.310277306E0	6.485892296E0	-1.903390408E0	8.676587105E0
3.313145253E0	7.120356083E0	-2.308010340E0	8.377311707E0
3.315070652E0	8.056488991E0	-2.870647907E0	7.953537941E0
3.317199368E0	8.391676903E0	-2.966415882E0	7.884106159E0
3.318377883E0	8.951920509E0	-3.052607059E0	7.682993412E0
3.321253676E0	9.184157372E0	-3.055001259E0	7.316680431E0
3.322863883E0	8.920795441E0	-3.019088268E0	7.206547260E0
3.325328676E0	8.559270859E0	-2.942473888E0	7.244854450E0
3.326515998E0	8.221688271E0	-2.796427488E0	7.498639584E0
3.329382253E0	7.979874134E0	-2.528276920E0	7.742848396E0
3.330992575E0	7.891288757E0	-2.164358377E0	7.795520782E0
3.333442753E0	7.769184589E0	-1.812410712E0	7.702147007E0
3.334704152E0	7.343016624E0	-1.651999116E0	7.613561630E0
3.337497022E0	6.713341713E0	-1.695094824E0	7.532158375E0
3.338724690E0	6.945579052E0	-1.501164436E0	7.271190643E0
3.341594253E0	7.927201748E0	-9.959878922E-1	7.122750282E0
3.342841498E0	8.429984093E0	-5.482721925E-1	7.125144482E0
3.345683176E0	8.166622162E0	-2.777273953E-1	7.046135426E0
3.347274113E0	7.556100368E0	-1.364694983E-1	6.974309444E0
3.349759291E0	6.962338448E0	-3.830722719E-2	6.940790653E0
3.350939921E0	6.490680695E0	5.027823523E-2	6.969521046E0
3.353813676E0	6.191405773E0	1.316810995E-1	7.055712223E0
3.355740767E0	6.038176537E0	2.202665508E-1	7.230489254E0
3.357873214E0	6.011840343E0	2.298433632E-1	7.273584843E0
3.359155421E0	5.906495571E0	1.747767180E-1	7.335834026E0
3.361926791E0	5.755661011E0	9.576806799E-3	7.414842606E0
3.363705383E0	5.698200226E0	-3.471592367E-1	7.520187378E0
3.365987829E0	5.724536419E0	-4.668693244E-1	7.522581577E0
3.367218306E0	5.750872612E0	-6.392518282E-1	7.474697590E0
3.370041214E0	5.676652431E0	-7.206547260E-1	7.479485989E0
3.371913498E0	5.516240597E0	-8.212111592E-1	7.623138428E0
3.374067075E0	5.475539207E0	-8.523358107E-1	7.730877399E0
3.375393383E0	5.360617638E0	-9.481038451E-1	7.891288757E0
3.378170214E0	5.231330872E0	-1.108515382E0	7.795520782E0
3.379568959E0	5.097255230E0	-1.350329757E0	7.371747017E0
3.382171959E0	5.104437828E0	-1.474828243E0	7.177816868E0
3.383499306E0	5.207388878E0	-1.546654344E0	7.216124058E0
3.386355368E0	5.018246651E0	-1.661576033E0	7.328651428E0
3.388164075E0	3.955221176E0	-1.987187386E0	7.323863029E0
3.390414829E0	2.585737944E0	-2.398990154E0	7.647080421E0
3.391648075E0	2.169146776E0	-2.422932148E0	8.152256966E0
3.394469099E0	3.014299870E0	-2.147598982E0	7.807491779E0
3.396143729E0	4.012681961E0	-2.051830769E0	6.931213856E0
3.398533829E0	4.371812344E0	-2.106897593E0	6.995857239E0
3.399720729E0	4.118026733E0	-2.195482969E0	8.231265068E0
3.402587829E0	4.338293552E0	-1.989581585E0	8.243236542E0
3.404199306E0	5.315127850E0	-1.587355733E0	7.072471619E0
3.406648829E0	6.184223175E0	-1.352723956E0	6.524199486E0
3.407811613E0	6.126761913E0	-1.532289028E0	6.792350292E0
3.410702983E0	5.961562157E0	-1.754949808E0	6.761225700E0
3.412208113E0	5.822698593E0	-1.766920805E0	6.651092529E0
3.414763522E0	5.386953831E0	-1.936909199E0	7.149086475E0
3.415987075E0	5.595249176E0	-1.977610588E0	7.220912457E0
3.418816675E0	6.028599739E0	-1.994369984E0	7.065289021E0
3.420103536E0	5.724536419E0	-2.279279947E0	7.364564419E0
3.422927791E0	5.540182590E0	-2.387019157E0	7.491456985E0
3.424181459E0	5.360617638E0	-2.408566952E0	7.726089001E0
3.427015714E0	5.374982834E0	-2.310404539E0	7.769184589E0
3.428578113E0	5.197812080E0	-2.133233786E0	8.159439087E0
3.431076675E0	5.068524837E0	-2.128445387E0	8.315062523E0
3.432456036E0	4.912901878E0	-2.030282974E0	8.693346024E0
3.435130637E0	5.140350819E0	-1.893813491E0	8.456320763E0
3.437091690E0	5.554547787E0	-1.709460020E0	8.228871346E0
3.439188675E0	5.592854977E0	-1.687912226E0	8.128314972E0
3.440363382E0	5.674258232E0	-1.604115129E0	8.085219383E0
3.443242560E0	6.177040577E0	-1.434126854E0	7.800309181E0
3.444783882E0	6.428431511E0	-1.374271750E0	7.963114738E0
3.447316752E0	6.509834290E0	-1.367089152E0	8.008605003E0
3.448865959E0	6.519411087E0	-1.386242747E0	7.910442352E0
3.451369945E0	6.624756336E0	-1.405396342E0	7.723694801E0
3.452878652E0	6.677428722E0	-1.453280449E0	7.675810814E0
3.455369806E0	6.888118267E0	-1.462857246E0	7.584830761E0
3.456655421E0	6.991068840E0	-1.426944256E0	7.699752808E0
3.459483060E0	6.770802498E0	-1.381454349E0	7.991845131E0
3.460784113E0	6.454767704E0	-1.338358760E0	8.145073891E0
3.463586791E0	6.205770969E0	-1.194706678E0	8.303091049E0
3.464803075E0	5.966350555E0	-1.072602391E0	8.444349289E0
3.467676637E0	5.753266811E0	-1.082179189E0	8.214506149E0
3.469224575E0	5.729324818E0	-1.165976286E0	7.697358608E0
3.471751868E0	5.875370979E0	-1.295263171E0	7.230489254E0
3.472927536E0	6.050147533E0	-1.436521053E0	7.026981831E0
3.475805791E0	6.019022942E0	-1.549048543E0	6.868964672E0
3.477701382E0	5.786785603E0	-1.695094824E0	6.531382084E0
3.479861560E0	5.815515995E0	-1.716642618E0	6.411672115E0
3.481136998E0	5.786785603E0	-1.802833915E0	6.270414352E0
3.483915483E0	5.681440830E0	-1.915361404E0	6.177040577E0
3.485558844E0	5.853823185E0	-1.915361404E0	5.937620163E0
3.487976367E0	5.949591160E0	-1.905784607E0	5.904101372E0
3.489173152E0	5.863399982E0	-1.900996208E0	5.894524574E0
3.492030444E0	5.549759388E0	-1.896207690E0	5.810727596E0
3.493548498E0	5.535394192E0	-1.795651317E0	5.714959621E0
3.496105498E0	5.434837818E0	-1.781286120E0	5.741295815E0
3.497324536E0	5.312733650E0	-1.738190413E0	5.774814606E0
3.500161367E0	5.070919037E0	-1.742978811E0	5.911283970E0
3.501373882E0	4.714183331E0	-1.759738207E0	5.975927353E0
3.504259406E0	4.831499100E0	-1.714248419E0	6.066906929E0
3.505464267E0	4.821922302E0	-1.738190413E0	6.229712963E0
3.508349021E0	4.821922302E0	-1.754949808E0	6.382941723E0
3.510043152E0	4.371812344E0	-1.939303398E0	6.574477673E0
3.512377560E0	3.962403774E0	-2.104503393E0	6.648698330E0
3.514057652E0	4.338293552E0	-2.085349798E0	6.710947514E0
3.516431252E0	4.999093056E0	-2.066195965E0	6.969521046E0
3.518222421E0	5.109226227E0	-2.238578558E0	7.280767441E0
3.520506290E0	5.178658485E0	-2.439691544E0	7.369352818E0
3.521989575E0	5.535394192E0	-2.573766708E0	7.321468830E0
3.524559752E0	6.208165169E0	-2.624045134E0	7.218518257E0
3.526101767E0	6.730101109E0	-2.573766708E0	7.189787865E0
3.528620367E0	6.940790653E0	-2.463633537E0	7.252037048E0
3.530301152E0	7.149086475E0	-2.310404539E0	7.323863029E0
3.532674483E0	7.668628216E0	-2.121262789E0	7.278373241E0
3.534368113E0	8.080430984E0	-1.932120800E0	7.180211067E0
3.536677575E0	8.293514252E0	-1.735796213E0	7.082048416E0
3.537958344E0	8.743624687E0	-1.493981838E0	6.916848660E0
3.540788752E0	9.334992409E0	-1.206677675E0	6.734889507E0
3.542034767E0	9.761159897E0	-8.930372596E-1	6.636727333E0
3.544875036E0	1.005325317E1	-6.129156351E-1	6.574477673E0
3.546110613E0	1.029027843E1	-3.543418646E-1	6.490680695E0
3.548988829E0	1.037407589E1	-1.436520964E-1	6.361393929E0
3.550797767E0	9.943120003E0	1.053448766E-1	6.059724331E0
3.553049829E0	9.959878922E0	1.843535304E-1	5.889736176E0
3.554242998E0	1.008677197E1	3.208230138E-1	5.523423195E0
3.557104406E0	1.007958889E1	4.357447028E-1	5.231330872E0
3.558781075E0	9.921571732E0	5.506663918E-1	5.135562420E0
3.561165213E0	1.000297451E1	5.554547906E-1	5.169081688E0
3.562354921E0	9.995792389E0	5.147533417E-1	5.363011837E0
3.565219444E0	9.744400978E0	3.687070608E-1	5.803544998E0
3.566808382E0	9.718064308E0	2.633621991E-1	6.169857979E0
3.569295867E0	9.866505623E0	1.675941199E-1	6.517016888E0
3.570484959E0	9.665391922E0	5.985504389E-2	6.928819656E0
3.573350175E0	9.186552048E0	-5.746084079E-2	7.290344238E0
3.574868882E0	8.705317497E0	-1.651999205E-1	7.589619160E0
3.577409982E0	8.408436775E0	-2.489969730E-1	7.821856976E0
3.578627613E0	8.190564156E0	-3.567360640E-1	8.001421928E0
3.581464598E0	8.233659744E0	-4.668693244E-1	8.025363922E0
3.582699536E0	8.307879448E0	-6.129156351E-1	7.989450932E0
3.585562482E0	8.034940720E0	-8.283938169E-1	7.924807549E0
3.586779152E0	7.771578789E0	-1.005564690E0	7.821856976E0
3.589652675E0	7.558494568E0	-1.170764685E0	7.723694801E0
3.591196498E0	7.685387611E0	-1.321599364E0	7.556100368E0
3.593730175E0	7.967903137E0	-1.436521053E0	7.352593422E0
3.594929536E0	8.154650688E0	-1.541865945E0	7.184999466E0
3.597785405E0	8.066065788E0	-1.620874524E0	7.060500622E0
3.599501267E0	7.493851185E0	-1.678335428E0	7.058106422E0
3.601847098E0	7.177816868E0	-1.671152830E0	7.077260017E0
3.603074305E0	6.512228489E0	-1.632845521E0	7.103596210E0
3.605902367E0	6.373364925E0	-1.539471745E0	7.058106422E0
3.607449767E0	6.581660271E0	-1.419761658E0	6.969521046E0
3.609963367E0	6.651092529E0	-1.410184860E0	6.986280441E0
3.611220536E0	6.430825710E0	-1.446097851E0	7.026981831E0
3.614018175E0	6.236895561E0	-1.501164436E0	7.105990410E0
3.615585190E0	6.239289761E0	-1.563413739E0	7.132327080E0
3.618080882E0	6.251260757E0	-1.582567334E0	7.141903877E0
3.619323690E0	6.442796707E0	-1.637633920E0	7.091625214E0
3.622149367E0	6.663063526E0	-1.692700624E0	7.082048416E0
3.623399690E0	7.333439827E0	-1.752555609E0	6.957550049E0
3.626222459E0	7.280767441E0	-1.819593310E0	6.876147270E0
3.627454959E0	7.513004780E0	-1.879448295E0	6.792350292E0
3.630336405E0	8.722076416E0	-1.857900500E0	6.682217121E0
3.631857536E0	9.689333916E0	-1.836352706E0	6.641515732E0
3.634398098E0	1.133415127E1	-1.776497602E0	6.706159115E0
3.635679036E0	1.075714779E1	-1.778891921E0	6.837840080E0
3.638453136E0	1.112585545E1	-1.584961534E0	6.548141479E0
3.640520844E0	1.012507915E1	-1.412579060E0	6.426037312E0
3.642513136E0	9.744400978E0	-1.266532660E0	6.349422932E0
3.643713998E0	1.104205799E1	-1.132457376E0	6.306327343E0
3.646567751E0	1.216015053E1	-9.026140571E-1	6.284779549E0
3.648116421E0	1.208353615E1	-6.440402865E-1	6.339846134E0
3.650630059E0	1.119049835E1	-4.285621047E-1	6.454767704E0
3.651839536E0	1.018493366E1	-2.992752194E-1	6.634333134E0
3.654685213E0	9.234436035E0	-2.466027737E-1	6.854599476E0
3.656532152E0	8.022970200E0	-2.873041928E-1	7.149086475E0
3.658746098E0	6.579266071E0	-4.644751251E-1	7.496245384E0
3.659978305E0	6.375759125E0	-6.823474765E-1	7.635109425E0
3.662801328E0	7.010222435E0	-8.212111592E-1	7.592013359E0
3.664136075E0	7.395689011E0	-9.074024558E-1	7.524975777E0
3.666912713E0	7.299921036E0	-9.816226959E-1	7.503427982E0
3.668134728E0	6.995857239E0	-1.077390790E0	7.477091789E0
3.671001328E0	6.663063526E0	-1.201889277E0	7.441178799E0
3.672696075E0	6.251260757E0	-1.403002143E0	7.362170219E0
3.675062905E0	6.114790916E0	-1.479616642E0	7.328651428E0
3.676265459E0	5.856217384E0	-1.671152830E0	7.237671852E0
3.679116944E0	5.655104637E0	-1.917755604E0	7.146692276E0
3.680811844E0	5.451597214E0	-2.298433542E0	6.971915245E0
3.683166597E0	5.370194435E0	-2.415749550E0	6.897695065E0
3.684669113E0	5.171475887E0	-2.674323320E0	6.732495308E0
3.687220751E0	4.917690277E0	-3.088520288E0	6.517016888E0
3.688834652E0	4.788403511E0	-3.354276657E0	6.385335922E0
3.691295636E0	4.745307922E0	-3.584120035E0	6.263231754E0
3.692477959E0	4.752490520E0	-3.785232782E0	6.141127586E0
3.695349482E0	4.735731125E0	-3.948038578E0	6.040570736E0
3.696857728E0	4.728548527E0	-4.053383350E0	5.951985359E0
3.699345767E0	4.742913723E0	-4.110844135E0	5.887341976E0
3.700628305E0	4.762067318E0	-4.118026733E0	5.861005783E0
3.703464867E0	4.781220913E0	-4.096478939E0	5.861005783E0
3.704762998E0	4.781220913E0	-4.046200752E0	5.908889771E0
3.707558113E0	4.754884720E0	-3.979163170E0	5.983109951E0
3.708798613E0	4.718971729E0	-3.895366192E0	6.093243122E0
3.711652213E0	4.680664539E0	-3.790021181E0	6.212953568E0
3.713232344E0	4.668693542E0	-3.687070608E0	6.342240334E0
3.715710020E0	4.692635536E0	-3.588908434E0	6.473921299E0
3.716900844E0	4.757278919E0	-3.485957623E0	6.603208065E0
3.719764597E0	4.872200489E0	-3.373430252E0	6.713341713E0
3.721517805E0	5.106832027E0	-3.210624456E0	6.876147270E0
3.723825482E0	5.178658485E0	-3.148375273E0	6.921637058E0
3.725145113E0	5.303156853E0	-3.028665066E0	7.003039837E0
3.727879482E0	5.408501625E0	-2.923320293E0	7.079654217E0
3.729398267E0	5.530605793E0	-2.784456491E0	7.184999466E0
3.731940943E0	5.564124584E0	-2.743755102E0	7.216124058E0
3.733127075E0	5.623979568E0	-2.671929121E0	7.271190643E0
3.735994636E0	5.695806026E0	-2.614468336E0	7.314286232E0
3.737665305E0	5.779603004E0	-2.545036316E0	7.369352818E0
3.740069290E0	5.803544998E0	-2.523488522E0	7.386112213E0
3.741311459E0	5.877765179E0	-2.489969730E0	7.405265808E0
3.744123597E0	5.949591160E0	-2.463633537E0	7.438784599E0
3.745355844E0	5.973533154E0	-2.430114746E0	7.486668587E0
3.748220405E0	5.923254967E0	-2.401384354E0	7.584830761E0
3.749457882E0	5.832275391E0	-2.408566952E0	7.668628216E0
3.752309559E0	5.846640587E0	-2.432508945E0	7.723694801E0
3.754054690E0	6.059724331E0	-2.451662540E0	7.694964409E0
3.756370097E0	6.272808552E0	-2.454056740E0	7.627926826E0
3.757631690E0	6.421248913E0	-2.446874142E0	7.594407558E0
3.760424713E0	6.514622688E0	-2.442085743E0	7.603984833E0
3.762253075E0	6.636727333E0	-2.437297344E0	7.647080421E0
3.764501789E0	6.895300865E0	-2.454056740E0	7.738059998E0
3.765684998E0	7.173028469E0	-2.485181332E0	7.800309181E0
3.768556289E0	7.529764175E0	-2.552218914E0	7.900865555E0
3.770080844E0	8.216899872E0	-2.693476915E0	8.209717751E0
3.772616905E0	9.210494041E0	-2.825158119E0	8.698134422E0
3.773834075E0	9.394847870E0	-2.863465309E0	9.038111687E0
3.776670905E0	8.054094315E0	-2.705447912E0	8.961497307E0
3.778212536E0	6.457161903E0	-2.439691544E0	8.556877136E0
3.780649459E0	5.746084213E0	-2.274491549E0	8.180987358E0
3.782013459E0	5.552153587E0	-2.274491549E0	8.147468567E0
3.784784366E0	5.250484467E0	-2.310404539E0	8.279149055E0
3.786041536E0	4.965574265E0	-2.284068346E0	8.264783859E0
3.788879921E0	5.408501625E0	-2.205059767E0	7.982268333E0
3.790139998E0	6.289567947E0	-2.133233786E0	7.575253963E0
3.792985251E0	6.799532890E0	-2.056619167E0	7.321468830E0
3.794648113E0	6.971915245E0	-1.941697598E0	7.259219646E0
3.797046751E0	7.000645638E0	-1.917755604E0	7.259219646E0
3.798642498E0	7.062894821E0	-1.898601890E0	7.273584843E0
3.801101443E0	7.079654217E0	-1.903390408E0	7.326257229E0
3.802778959E0	7.074865818E0	-1.910573006E0	7.383718014E0
3.805171751E0	7.053318024E0	-1.912967205E0	7.438784599E0
3.806554728E0	6.947973251E0	-1.917755604E0	7.486668587E0
3.809226443E0	6.909666061E0	-1.857900500E0	7.544129372E0
3.810856498E0	7.170634270E0	-1.618480325E0	7.438784599E0
3.813303059E0	7.802703381E0	-1.314416766E0	6.943184853E0
3.814482690E0	8.427590370E0	-1.108515382E0	6.581660271E0
3.817357712E0	8.540117264E0	-1.010353088E0	6.469132900E0
3.818890651E0	8.353369713E0	-1.077390790E0	6.411672115E0
3.821419828E0	8.293514252E0	-1.216254473E0	6.466738701E0
3.822711651E0	8.212111473E0	-1.285686255E0	6.596025467E0
3.825474597E0	8.269572258E0	-1.350329757E0	6.325480938E0
3.826729574E0	8.327033043E0	-1.398213744E0	6.100425720E0
3.829572635E0	8.142680168E0	-1.340752959E0	5.925649166E0
3.830793190E0	7.829039574E0	-1.177947283E0	5.779603004E0
3.833662212E0	7.445967197E0	-9.672574997E-1	5.805939198E0
3.835262613E0	7.007828236E0	-7.398083210E-1	5.832275391E0
3.837737020E0	6.385335922E0	-5.123591423E-1	5.973533154E0
3.839258190E0	5.425261021E0	-2.992752194E-1	6.354211330E0
3.841791289E0	4.534617901E0	-9.337386489E-2	6.560112476E0
3.843605805E0	3.816357613E0	8.619125932E-2	6.208165169E0
3.845844905E0	3.713406801E0	3.830722719E-2	6.208165169E0
3.847417344E0	3.675099611E0	-2.011129409E-1	6.330269337E0
3.849899058E0	3.758896589E0	-4.788403511E-1	6.272808552E0
3.851445998E0	4.010287762E0	-8.906430602E-1	6.107608318E0
3.853959905E0	4.101267338E0	-1.012747288E0	6.071695328E0
3.855177574E0	4.285621166E0	-1.268926859E0	5.937620163E0
3.858014751E0	4.496310711E0	-1.553836942E0	5.904101372E0
3.859566305E0	4.608838081E0	-1.874659896E0	5.930437565E0
3.862091635E0	4.620809078E0	-1.960851192E0	5.932831764E0
3.863521998E0	4.704606533E0	-2.147598982E0	5.896918774E0
3.866147635E0	4.848258495E0	-2.336740971E0	5.820304394E0
3.867560728E0	5.102043629E0	-2.549824715E0	5.748478413E0
3.870245481E0	5.255272865E0	-2.791639090E0	5.834669590E0
3.871520498E0	5.384559631E0	-3.035847664E0	5.906495571E0
3.874334981E0	5.509057999E0	-3.234566450E0	5.959167957E0
3.875966805E0	5.619191170E0	-3.387795448E0	6.028599739E0
3.878397251E0	5.707777023E0	-3.507505417E0	6.107608318E0
3.879599805E0	5.844246387E0	-3.600879431E0	6.193799973E0
3.882452827E0	6.059724331E0	-3.651157618E0	6.306327343E0
3.884316651E0	6.301538944E0	-3.708618402E0	6.449979305E0
3.886512635E0	6.495469093E0	-3.768473387E0	6.584054470E0
3.887711151E0	6.730101109E0	-3.837905407E0	6.730101109E0
3.890567520E0	6.950367451E0	-3.928884983E0	6.900089264E0
3.892175305E0	7.105990410E0	-4.041412354E0	7.062894821E0
3.894629097E0	7.218518257E0	-4.129997730E0	7.201758862E0
3.895847459E0	7.311892033E0	-4.185064793E0	7.302315235E0
3.898684366E0	7.429207802E0	-4.244919777E0	7.386112213E0
3.900280421E0	7.594407558E0	-4.352658749E0	7.474697590E0
3.902746789E0	7.699752808E0	-4.479551315E0	7.517793179E0
3.903998190E0	7.747636795E0	-4.563348293E0	7.536946774E0
3.906802289E0	7.759607792E0	-4.608838081E0	7.575253963E0
3.908082036E0	7.752425194E0	-4.668693542E0	7.630321026E0
3.910915058E0	7.754819393E0	-4.685452938E0	7.692570210E0
3.912151421E0	7.735665798E0	-4.663905144E0	7.759607792E0
3.915005366E0	7.680599213E0	-4.630385876E0	7.821856976E0
3.916546344E0	7.580042362E0	-4.632780075E0	7.872135162E0
3.919067712E0	7.527369976E0	-4.637568474E0	7.879317760E0
3.920284190E0	7.400477409E0	-4.627991676E0	7.891288757E0
3.923123443E0	7.256825447E0	-4.599261284E0	7.917624950E0
3.924785459E0	6.979097843E0	-4.515464306E0	7.910442352E0
3.927174866E0	6.715735912E0	-4.513070107E0	7.714118004E0
3.928413036E0	6.409277916E0	-4.608838081E0	7.151480675E0
3.931229712E0	6.098031521E0	-4.647145271E0	6.770802498E0
3.932783651E0	5.932831764E0	-4.577713490E0	6.830657482E0
3.935305789E0	5.935225964E0	-4.458003521E0	7.038952827E0
3.936509690E0	5.947196960E0	-4.343081951E0	7.194576263E0
3.939360635E0	5.896918774E0	-4.273650169E0	7.252037048E0
3.940962805E0	5.820304394E0	-4.247313976E0	7.240066051E0
3.943358344E0	5.796362400E0	-4.230554581E0	7.240066051E0
3.944653844E0	5.844246387E0	-4.201824188E0	7.271190643E0
3.947477289E0	5.834669590E0	-4.177882195E0	7.297526836E0
3.948717421E0	5.741295815E0	-4.194641590E0	7.256825447E0
3.951561305E0	5.652710438E0	-4.276044369E0	7.110779285E0
3.952857690E0	5.659893036E0	-4.378994942E0	6.914454460E0
3.955666289E0	5.750872612E0	-4.405331135E0	6.871358871E0
3.957209882E0	5.908889771E0	-4.328716755E0	7.012616634E0
3.959742673E0	6.023811340E0	-4.220977783E0	7.220912457E0
3.960952574E0	6.064512730E0	-4.139574528E0	7.393294811E0
3.963797558E0	5.935225964E0	-4.108449936E0	7.405265808E0
3.965497421E0	5.714959621E0	-4.177882195E0	7.161057472E0
3.967868904E0	5.717353821E0	-4.204218388E0	7.101202011E0
3.969080344E0	5.688623428E0	-4.256890774E0	6.993463039E0
3.971923789E0	5.590460777E0	-4.266467571E0	7.038952827E0
3.973548997E0	5.590460777E0	-4.153939724E0	7.395689011E0
3.975985866E0	5.674258232E0	-4.101267338E0	7.527369976E0
3.977191959E0	5.884947777E0	-4.046200752E0	7.740454197E0
3.980041443E0	5.961562157E0	-4.024652958E0	7.776367188E0
3.982088036E0	5.621585369E0	-3.739742994E0	7.481880188E0
3.984117904E0	5.480327606E0	-3.641580820E0	7.522581577E0
3.985341151E0	5.341464043E0	-3.646369219E0	7.757213593E0
3.988173019E0	5.418078423E0	-3.837905407E0	7.639897823E0
3.989418228E0	5.537788391E0	-3.933673382E0	7.501033783E0
3.992270250E0	5.628767967E0	-4.007893562E0	7.479485989E0
3.993541728E0	5.734113216E0	-4.053383350E0	7.505822182E0
3.996360596E0	6.011840343E0	-4.034229755E0	7.481880188E0
3.998002459E0	6.438008308E0	-3.976768970E0	7.453149796E0
4.000422212E0	6.749254704E0	-3.971980572E0	7.510610580E0
4.001610805E0	6.852205276E0	-3.971980572E0	7.522581577E0
4.004476904E0	6.749254704E0	-3.991134167E0	7.433996201E0
4.006232997E0	6.593631268E0	-4.019864559E0	7.314286232E0
4.008550865E0	6.500257492E0	-4.043806553E0	7.206547260E0
4.009943036E0	6.452373505E0	-4.062960148E0	7.141903877E0
4.012606635E0	6.406883717E0	-4.079719543E0	7.103596210E0
4.014111651E0	6.344634533E0	-4.089296341E0	7.050923824E0
4.016668673E0	6.268020153E0	-4.091690540E0	6.979097843E0
4.017993113E0	6.181828976E0	-4.079719543E0	6.892906666E0
4.020724019E0	6.059724331E0	-4.039018154E0	6.813898087E0
4.022260690E0	5.834669590E0	-3.926490784E0	6.706159115E0
4.024751190E0	5.683835030E0	-3.895366192E0	6.605602264E0
4.026072074E0	5.693411827E0	-3.962403774E0	6.581660271E0
4.028840173E0	5.734113216E0	-4.027047157E0	6.536170483E0
4.030110151E0	5.748478413E0	-4.074931145E0	6.483498096E0
4.032952865E0	5.702988625E0	-4.110844135E0	6.428431511E0
4.034215536E0	5.604825974E0	-4.125209332E0	6.363788128E0
4.037043058E0	5.487510204E0	-4.115632534E0	6.299144745E0
4.038672767E0	5.322310448E0	-4.094084740E0	6.217741966E0
4.041105250E0	5.288791656E0	-4.084507942E0	6.203376770E0
4.042350190E0	5.264849663E0	-4.077325344E0	6.184223175E0
4.045159981E0	5.214571476E0	-4.201824188E0	6.007051945E0
4.046936228E0	5.142745018E0	-4.402936935E0	5.753266811E0
4.049223019E0	5.128379822E0	-4.659116745E0	5.470750809E0
4.050411459E0	5.224148273E0	-4.900930882E0	5.243301868E0
4.053277711E0	5.422866821E0	-5.121197224E0	5.080495834E0
4.054840920E0	5.623979568E0	-5.305551052E0	4.917690277E0
4.057353942E0	5.803544998E0	-5.444414616E0	4.702212334E0
4.058535305E0	6.002263546E0	-5.578489780E0	4.484339714E0
4.061408750E0	6.112396717E0	-5.777208805E0	4.436455727E0
4.062927959E0	6.059724331E0	-5.954379559E0	4.563348293E0
4.065470134E0	5.983109951E0	-6.009446144E0	4.707000732E0
4.066669420E0	6.016628742E0	-5.904101372E0	4.802768707E0
4.069525558E0	6.165069580E0	-5.645527840E0	4.881777287E0
4.070769690E0	6.356605530E0	-5.317522049E0	5.042188644E0
4.073623981E0	6.521805286E0	-5.020640850E0	5.329493046E0
4.074852920E0	6.619967937E0	-4.795586109E0	5.688623428E0
4.077713750E0	6.706159115E0	-4.671087742E0	6.054935932E0
4.080380882E0	6.804321289E0	-4.577713490E0	6.528987885E0
4.081745057E0	6.823474884E0	-4.548983097E0	6.667851925E0
4.082935151E0	6.837840080E0	-4.498704910E0	6.928819656E0
4.085799711E0	6.837840080E0	-4.460397720E0	7.161057472E0
4.087477036E0	6.840234280E0	-4.424484730E0	7.426813602E0
4.089861096E0	6.847416878E0	-4.405331135E0	7.489062786E0
4.091059382E0	6.849811077E0	-4.347870350E0	7.572859764E0
4.093915096E0	6.849811077E0	-4.278438568E0	7.608773232E0
4.095472690E0	6.883329868E0	-4.187458992E0	7.570465565E0
4.097976096E0	6.897695065E0	-4.151545525E0	7.532158375E0
4.099215651E0	6.919242859E0	-4.082113743E0	7.436390400E0
4.102030788E0	6.947973251E0	-4.036623955E0	7.331045628E0
4.103801690E0	6.983886242E0	-3.976768970E0	7.156269073E0
4.106106904E0	6.986280441E0	-3.948038578E0	7.094019413E0
4.107347074E0	6.986280441E0	-3.885789394E0	6.974309444E0
4.110162250E0	6.981492043E0	-3.794809580E0	6.818686485E0
4.111420382E0	6.991068840E0	-3.725377798E0	6.720524311E0
4.114224151E0	6.983886242E0	-3.646369219E0	6.634333134E0
4.115470036E0	6.967126846E0	-3.567360640E0	6.574477673E0
4.118348788E0	6.986280441E0	-3.476380825E0	6.526593685E0
4.119993113E0	7.055712223E0	-3.385401249E0	6.500257492E0
4.122391057E0	7.163451672E0	-3.308786631E0	6.495469093E0
4.123581420E0	7.261613846E0	-3.270479441E0	6.485892296E0
4.126445403E0	7.362170219E0	-3.239354849E0	6.483498096E0
4.128323882E0	7.453149796E0	-3.215412855E0	6.488286495E0
4.130511173E0	7.534552574E0	-3.205836058E0	6.485892296E0
4.131694305E0	7.613561630E0	-3.203441858E0	6.459556103E0
4.134565673E0	7.706935406E0	-3.208230257E0	6.430825710E0
4.136096267E0	7.764396191E0	-3.198653460E0	6.380547523E0
4.138626327E0	7.826645374E0	-3.217807055E0	6.311115742E0
4.139906613E0	7.898471355E0	-3.246537447E0	6.251260757E0
4.142679750E0	7.936778545E0	-3.277662039E0	6.208165169E0
4.144170228E0	7.941566944E0	-3.301604033E0	6.184223175E0
4.146741134E0	7.929595947E0	-3.342305660E0	6.181828976E0
4.147980228E0	7.886500359E0	-3.385401249E0	6.208165169E0
4.150795557E0	7.833827972E0	-3.421314240E0	6.244078159E0
4.152053959E0	7.769184589E0	-3.452438831E0	6.301538944E0
4.154906673E0	7.706935406E0	-3.473986626E0	6.349422932E0
4.156261420E0	7.642292023E0	-3.500322819E0	6.363788128E0
4.158995711E0	7.551311970E0	-3.529053211E0	6.349422932E0
4.160583728E0	7.400477409E0	-3.581725836E0	6.270414352E0
4.163055673E0	7.374141216E0	-3.610456228E0	6.229712963E0
4.164283190E0	7.335834026E0	-3.660734415E0	6.133944988E0
4.167109711E0	7.295132637E0	-3.706224203E0	6.026205540E0
4.168830420E0	7.218518257E0	-3.763684988E0	5.875370979E0
4.171169288E0	7.156269073E0	-3.782838583E0	5.770026207E0
4.172364228E0	7.120356083E0	-3.794809580E0	5.669469833E0
4.175222942E0	7.074865818E0	-3.794809580E0	5.578489780E0
4.176763382E0	6.998251438E0	-3.756502390E0	5.477933407E0
4.179298134E0	6.871358871E0	-3.687070608E0	5.363011837E0
4.180632420E0	6.777985096E0	-3.634398222E0	5.267243862E0
4.183352096E0	6.751648903E0	-3.612850428E0	5.181052685E0
4.184995343E0	6.737283707E0	-3.586514235E0	5.097255230E0
4.187407959E0	6.701370716E0	-3.562572241E0	5.032611847E0
4.188899343E0	6.689399719E0	-3.543418407E0	4.991910458E0
4.191467211E0	6.739677906E0	-3.536235809E0	4.982333660E0
4.192889690E0	6.777985096E0	-3.531447411E0	4.996698856E0
4.195569749E0	6.813898087E0	-3.543418407E0	5.001487255E0
4.196821267E0	6.883329868E0	-3.569754839E0	5.018246651E0
4.199660057E0	6.969521046E0	-3.586514235E0	5.056553841E0
4.201269613E0	7.046135426E0	-3.586514235E0	5.090072632E0
4.203737980E0	7.103596210E0	-3.593696833E0	5.145139217E0
4.205221805E0	7.146692276E0	-3.610456228E0	5.221754074E0
4.207792403E0	7.153874874E0	-3.615244627E0	5.295974255E0
4.209644574E0	7.094019413E0	-3.588908434E0	5.398924828E0
4.211830980E0	7.070077419E0	-3.584120035E0	5.432443619E0
4.212986613E0	7.034164429E0	-3.586514235E0	5.506663799E0
4.215886134E0	7.007828236E0	-3.593696833E0	5.590460777E0
4.217428151E0	6.986280441E0	-3.600879431E0	5.734113216E0
4.219914711E0	6.979097843E0	-3.605667830E0	5.781997204E0
4.221083536E0	6.959944248E0	-3.617638826E0	5.880159378E0
4.223969634E0	6.931213856E0	-3.627215624E0	5.966350555E0
4.225574420E0	6.871358871E0	-3.627215624E0	6.095637321E0
4.228031997E0	6.849811077E0	-3.624821424E0	6.136339188E0
4.229240651E0	6.809109688E0	-3.615244627E0	6.205770969E0
4.232101557E0	6.770802498E0	-3.600879431E0	6.282385349E0
4.233438920E0	6.713341713E0	-3.564966440E0	6.399701118E0
4.236198326E0	6.679822922E0	-3.538630009E0	6.447585106E0
4.237422074E0	6.658275127E0	-3.512293816E0	6.497863293E0
4.240287480E0	6.629544735E0	-3.490746021E0	6.538564682E0
4.241820920E0	6.593631268E0	-3.459621429E0	6.576871872E0
4.244314980E0	6.572083473E0	-3.416525841E0	6.607996464E0
4.245512997E0	6.564900875E0	-3.375824451E0	6.619967937E0
4.248369326E0	6.552929878E0	-3.342305660E0	6.636727333E0
