"Time (s)"	"Gyroscope x (rad/s)"	"Gyroscope y (rad/s)"	"Gyroscope z (rad/s)"
1.120711600E-2	-1.427454352E-1	-2.801645398E-1	1.342233270E-1
1.401961100E-2	-1.427454352E-1	-2.801645398E-1	1.342233270E-1
1.523538500E-2	-1.427454352E-1	-2.801645398E-1	1.342233270E-1
1.810826500E-2	-1.427454352E-1	-2.801645398E-1	1.342233270E-1
1.962311600E-2	-1.427454352E-1	-2.801645398E-1	1.342233270E-1
2.219757300E-2	-1.427454352E-1	-2.801645398E-1	1.342233270E-1
2.390234600E-2	-1.427454352E-1	-2.801645398E-1	1.342233270E-1
2.622776500E-2	-1.427454352E-1	-2.801645398E-1	1.342233270E-1
2.754511600E-2	-1.427454352E-1	-2.801645398E-1	1.342233270E-1
3.028199600E-2	-1.427454352E-1	-2.801645398E-1	1.342233270E-1
3.199523100E-2	-1.427454352E-1	-2.801645398E-1	1.342233270E-1
3.435634200E-2	-1.427454352E-1	-2.801645398E-1	1.342233270E-1
3.560830800E-2	-1.427454352E-1	-2.801645398E-1	1.342233270E-1
3.841065000E-2	-1.427454352E-1	-2.801645398E-1	1.342233270E-1
3.996492300E-2	-1.427454352E-1	-2.801645398E-1	1.342233270E-1
4.238034600E-2	-1.427454352E-1	-2.801645398E-1	1.342233270E-1
4.367027000E-2	-1.283643723E0	-3.408313513E0	2.988066673E-1
4.649215000E-2	-1.290035248E0	-3.484480143E0	3.685815036E-1
4.797865400E-2	-1.286306858E0	-3.556917906E0	4.324973822E-1
5.045976900E-2	-1.261273146E0	-3.618703365E0	4.878911078E-1
5.175826900E-2	-1.220793009E0	-3.662379265E0	5.347627401E-1
5.460034200E-2	-1.154214025E0	-3.675162315E0	5.731122494E-1
5.627507700E-2	-1.067927599E0	-3.653324366E0	6.029396653E-1
5.865534200E-2	-9.752495885E-1	-3.605920076E0	6.242449880E-1
5.986919300E-2	-8.889631629E-1	-3.541471720E0	6.332997084E-1
6.270930400E-2	-8.085356951E-1	-3.459979057E0	6.317018270E-1
6.439800000E-2	-7.360977530E-1	-3.358246088E0	6.205165386E-1
6.676315000E-2	-6.695187092E-1	-3.238404036E0	5.992112756E-1
6.798634600E-2	-5.970807076E-1	-3.102050066E0	5.704491138E-1
7.081661100E-2	-5.225121975E-1	-2.954510927E0	5.241101384E-1
7.236346200E-2	-4.436826408E-1	-2.795253992E0	4.687163532E-1
7.487580400E-2	-3.621899188E-1	-2.629072666E0	4.016047120E-1
7.616180800E-2	-2.796319127E-1	-2.444782019E0	3.206445873E-1
7.892865000E-2	-1.917476058E-1	-2.240783691E0	2.380866110E-1
8.049611600E-2	-9.960222989E-2	-2.026665688E0	1.603222936E-1
8.300307300E-2	4.261057824E-3	-1.802427411E0	9.161274135E-2
8.424592300E-2	1.113201380E-1	-1.566471338E0	2.929477207E-2
8.705603400E-2	2.178465873E-1	-1.326786876E0	-3.249056637E-2
8.831765400E-2	3.201119602E-1	-1.084971905E0	-9.161274135E-2
9.115195700E-2	4.074636400E-1	-8.527442217E-1	-1.539307088E-1
9.241115400E-2	4.846953154E-1	-6.274407506E-1	-2.167813182E-1
9.523972700E-2	5.518069863E-1	-4.149205089E-1	-2.748382390E-1
9.680369300E-2	6.274407506E-1	-1.193096191E-1	-3.552657068E-1
9.930026500E-2	6.530070901E-1	-2.183792181E-2	-3.787015080E-1
1.005169620E-1	6.961503029E-1	1.571265012E-1	-4.202468395E-1
1.033536110E-1	7.376956344E-1	3.312972486E-1	-4.554005563E-1
1.051885390E-1	7.952198982E-1	5.853627920E-1	-4.942827225E-1
1.074119960E-1	8.282431364E-1	7.440872192E-1	-5.166532397E-1
1.086383460E-1	8.575378656E-1	8.958874345E-1	-5.384911895E-1
1.114664570E-1	8.815063238E-1	1.040763378E0	-5.587311983E-1
1.130334230E-1	9.022790194E-1	1.175519347E0	-5.768406987E-1
1.155273800E-1	9.187905788E-1	1.301220536E0	-5.896238685E-1
1.167550770E-1	9.326390028E-1	1.413073301E0	-5.922870636E-1
1.195808030E-1	9.475527406E-1	1.506283998E0	-5.965480804E-1
1.212339620E-1	9.608685374E-1	1.584580898E0	-6.024070382E-1
1.236087260E-1	9.624664187E-1	1.644235730E0	-6.050702333E-1
1.248575390E-1	9.640643597E-1	1.688444138E0	-6.135923266E-1
1.276622260E-1	9.550095797E-1	1.719869494E0	-6.205165386E-1
1.293585770E-1	9.507485032E-1	1.739044189E0	-6.247776151E-1
1.317069230E-1	9.486179948E-1	1.748631597E0	-6.242449880E-1
1.330615390E-1	9.512811303E-1	1.749696851E0	-6.103965044E-1
1.358755730E-1	9.592706561E-1	1.750229478E0	-6.008091569E-1
1.374360390E-1	9.571400881E-1	1.752359986E0	-5.885586143E-1
1.399343420E-1	9.427590370E-1	1.754490614E0	-5.667206645E-1
1.412107310E-1	9.198558331E-1	1.752892613E0	-5.374259353E-1
1.439870340E-1	8.815063238E-1	1.749696851E0	-5.006743073E-1
1.456943850E-1	7.973504663E-1	1.715075731E0	-4.383563101E-1
1.480451490E-1	7.627293468E-1	1.694303155E0	-4.175836742E-1
1.492641930E-1	6.833671331E-1	1.639974594E0	-3.712446690E-1
1.520976880E-1	5.933523178E-1	1.574460864E0	-3.270362020E-1
1.536641930E-1	4.484763443E-1	1.468466997E0	-2.514024079E-1
1.561728420E-1	3.973436356E-1	1.440237522E0	-2.247707993E-1
1.574505770E-1	3.009372056E-1	1.381647944E0	-1.672465205E-1
1.602267650E-1	2.066612989E-1	1.314536333E0	-1.203748807E-1
1.618465770E-1	6.391586363E-2	1.200553060E0	-5.592638254E-2
1.642865340E-1	2.024002373E-2	1.153148770E0	-3.728425503E-2
1.655332310E-1	-6.231797114E-2	1.062068701E0	-5.858954508E-3
1.683396110E-1	-1.368864775E-1	9.629990458E-1	1.810949668E-2
1.698788080E-1	-2.071939409E-1	8.570052385E-1	3.941478580E-2
1.724350720E-1	-2.929477394E-1	6.918892860E-1	5.912217870E-2
1.739201540E-1	-3.376888335E-1	5.805691481E-1	6.817692518E-2
1.765225340E-1	-3.765709996E-1	4.681837261E-1	6.977482140E-2
1.781407690E-1	-4.048005044E-1	3.589941263E-1	7.350324839E-2
1.805649190E-1	-4.271710515E-1	2.530003190E-1	6.764429063E-2
1.818099230E-1	-4.404868484E-1	1.549959779E-1	6.125270575E-2
1.846188420E-1	-4.479437172E-1	6.125270575E-2	4.793690145E-2
1.863095390E-1	-4.474110603E-1	-1.970739290E-2	3.408846259E-2
1.886716490E-1	-4.399542212E-1	-8.735168725E-2	1.384843793E-2
1.899006540E-1	-4.277036786E-1	-1.342233270E-1	-1.065264456E-2
1.927254570E-1	-4.117247164E-1	-1.635181010E-1	-2.929477207E-2
1.943940000E-1	-3.946804702E-1	-1.736381054E-1	-4.580637068E-2
1.967844180E-1	-3.717772961E-1	-1.613875628E-1	-6.018744037E-2
1.980483850E-1	-3.435477912E-1	-1.272991002E-1	-6.178534031E-2
2.008375720E-1	-3.099919558E-1	-7.936219871E-2	-5.912217870E-2
2.023810390E-1	-2.700445354E-1	-2.077265643E-2	-5.166532472E-2
2.049011160E-1	-2.263686955E-1	4.207794741E-2	-4.367584363E-2
2.062213460E-1	-1.763012707E-1	1.134506613E-1	-3.249056637E-2
2.089655340E-1	-1.299622655E-1	1.848233789E-1	-2.450108156E-2
2.104040000E-1	-7.829693705E-2	2.588592768E-1	-2.237055451E-2
2.130111920E-1	-2.929477207E-2	3.249056637E-1	-2.077265643E-2
2.143275770E-1	1.491370238E-2	3.914846778E-1	-1.757686399E-2
2.171617260E-1	6.444849819E-2	4.522047639E-1	-1.917476021E-2
2.187378850E-1	1.358212233E-1	5.491438508E-1	-2.343581803E-2
2.212224570E-1	1.571265012E-1	5.832322836E-1	-2.290318534E-2
2.224576540E-1	2.024002522E-1	6.540724039E-1	-2.450108156E-2
2.252765340E-1	2.423476577E-1	7.291735411E-1	-2.343581803E-2
2.269831160E-1	3.004045784E-1	8.543421030E-1	-2.343581803E-2
2.293414180E-1	3.206445873E-1	8.953547478E-1	-2.237055451E-2
2.305506160E-1	3.584614992E-1	9.896306992E-1	-1.597896591E-2
2.333955340E-1	4.122573435E-1	1.119060278E0	-1.491370238E-2
2.349443460E-1	4.399542212E-1	1.211738348E0	-2.503371425E-2
2.374226110E-1	4.623247683E-1	1.296959519E0	-3.302319720E-2
2.389062310E-1	4.761732221E-1	1.373658538E0	-4.367584363E-2
2.414763410E-1	4.862932265E-1	1.443433285E0	-4.846953228E-2
2.430468460E-1	4.878911078E-1	1.500957608E0	-5.379585549E-2
2.455357640E-1	4.862932265E-1	1.549959779E0	-5.699164793E-2
2.471084230E-1	4.804342687E-1	1.585646152E0	-5.539375171E-2
2.495891110E-1	4.729774296E-1	1.603222966E0	-5.113269389E-2
2.508592690E-1	4.628573954E-1	1.590972424E0	-3.888215125E-2
2.537011870E-1	4.474110603E-1	1.562742949E0	-2.077265643E-2
2.552246920E-1	4.271710515E-1	1.515338659E0	-3.195793368E-3
2.577893030E-1	3.952131271E-1	1.461010218E0	2.663161140E-3
2.593620770E-1	3.520699143E-1	1.398692250E0	3.728425596E-3
2.618502260E-1	2.998719513E-1	1.342765808E0	-1.597896684E-3
2.631361920E-1	2.423476577E-1	1.279915214E0	-1.118527725E-2
2.659041110E-1	2.002697140E-1	1.180312991E0	-1.597896591E-2
2.676388460E-1	1.667138934E-1	1.052481294E0	-1.171790902E-2
2.699616100E-1	1.283643693E-1	9.198558331E-1	-5.858954508E-3
2.712446540E-1	9.001484513E-2	7.819041014E-1	-3.728425596E-3
2.740146490E-1	5.486112088E-2	6.370281577E-1	1.597896684E-3
2.755831150E-1	2.450108156E-2	4.809668958E-1	1.065264456E-3
2.780881870E-1	-1.331580617E-2	3.275688291E-1	-1.065264456E-3
2.792982690E-1	-4.527373984E-2	1.784317940E-1	-6.924218964E-3
2.821413410E-1	-7.190535218E-2	1.597896591E-2	-1.438106969E-2
2.837146540E-1	-9.960222989E-2	-2.354234457E-1	-3.089267015E-2
2.861639620E-1	-1.134506613E-1	-3.115898669E-1	-4.048004746E-2
2.874837690E-1	-1.246359423E-1	-4.649879336E-1	-5.432848632E-2
2.902554180E-1	-1.432780623E-1	-6.125270724E-1	-8.096009493E-2
2.916451150E-1	-1.672465205E-1	-8.101336360E-1	-1.411475390E-1
2.943086920E-1	-1.747033745E-1	-8.697884083E-1	-1.592570394E-1
2.956335770E-1	-1.896170676E-1	-1.033839107E0	-2.194444835E-1
2.984590720E-1	-1.933455020E-1	-1.128115058E0	-2.604571581E-1
3.000688080E-1	-1.885518134E-1	-1.209075212E0	-2.988066673E-1
3.025329570E-1	-1.837581247E-1	-1.277784705E0	-3.366235793E-1
3.037511920E-1	-1.683117896E-1	-1.340635300E0	-3.760383427E-1
3.065861490E-1	-1.560612470E-1	-1.389104843E0	-4.069310129E-1
3.083395000E-1	-1.454086006E-1	-1.423725963E0	-4.378236830E-1
3.106513800E-1	-1.235706806E-1	-1.443433285E0	-4.591289759E-1
3.118780390E-1	-9.587380290E-2	-1.448227048E0	-4.751079381E-1
3.147050720E-1	-6.498113275E-2	-1.426389098E0	-4.873584807E-1
3.162585000E-1	-3.302319720E-2	-1.380582690E0	-4.921521842E-1
3.187649560E-1	1.012001187E-2	-1.315068960E0	-4.942827225E-1
3.199880390E-1	4.953479767E-2	-1.267132044E0	-4.948153496E-1
3.228191490E-1	9.693906456E-2	-1.236239433E0	-4.985437691E-1
3.246233080E-1	1.416801661E-1	-1.218129873E0	-4.980111420E-1
3.268953030E-1	1.874865443E-1	-1.210140467E0	-5.001416802E-1
3.283751920E-1	2.263686955E-1	-1.211205721E0	-5.006743073E-1
3.309499560E-1	2.631203234E-1	-1.213868856E0	-5.065332651E-1
3.324481540E-1	2.924150825E-1	-1.223456264E0	-5.123922229E-1
3.350471100E-1	3.190467060E-1	-1.237837315E0	-5.198490620E-1
3.362925770E-1	3.419498801E-1	-1.258610010E0	-5.278385282E-1
3.391358030E-1	3.632551730E-1	-1.286306858E0	-5.352953672E-1
3.406773080E-1	3.973436356E-1	-1.333711147E0	-5.443501472E-1
3.431637260E-1	4.074636400E-1	-1.350222707E0	-5.427522659E-1
3.444426540E-1	4.293015897E-1	-1.380582690E0	-5.448827744E-1
3.472175330E-1	4.420847595E-1	-1.410410166E0	-5.432848930E-1
3.490553850E-1	4.532700181E-1	-1.436509132E0	-5.374259353E-1
3.512887640E-1	4.569984376E-1	-1.443965912E0	-5.320996046E-1
3.527515770E-1	4.591289759E-1	-1.451955438E0	-5.161206126E-1
3.553434180E-1	4.607268870E-1	-1.453020692E0	-4.846953154E-1
3.572045770E-1	4.607268870E-1	-1.432780743E0	-4.138552547E-1
3.594060330E-1	4.569984376E-1	-1.411475420E0	-3.552657068E-1
3.607447690E-1	4.415521026E-1	-1.392300606E0	-3.014698327E-1
3.634597640E-1	4.207794666E-1	-1.374191165E0	-2.583266199E-1
3.650246920E-1	3.952131271E-1	-1.356614232E0	-2.189118415E-1
3.675007690E-1	3.696467578E-1	-1.342765808E0	-1.842907518E-1
3.688105390E-1	3.467435837E-1	-1.324656367E0	-1.518001854E-1
3.715721490E-1	3.265035450E-1	-1.314003706E0	-1.198422536E-1
3.730345000E-1	3.142530024E-1	-1.306014180E0	-9.374327213E-2
3.755840380E-1	3.004045784E-1	-1.296426892E0	-6.977482140E-2
3.768450380E-1	2.886866629E-1	-1.289502621E0	-5.326322466E-2
3.796949560E-1	2.806971967E-1	-1.278317332E0	-4.207794741E-2
3.812160380E-1	2.668487430E-1	-1.263936281E0	-3.462109342E-2
3.837553410E-1	2.577939928E-1	-1.249555230E0	-2.929477207E-2
3.852946540E-1	2.428802997E-1	-1.227184653E0	-3.195793182E-2
3.878088790E-1	2.327602804E-1	-1.201085687E0	-3.036003746E-2
3.894886540E-1	2.221076339E-1	-1.170725584E0	-3.408846259E-2
3.918691870E-1	2.039981484E-1	-1.143028736E0	-3.568635881E-2
3.931381540E-1	1.869539171E-1	-1.120125532E0	-4.314320907E-2
3.959227250E-1	1.731054783E-1	-1.097222447E0	-4.953479767E-2
3.974675000E-1	1.613875628E-1	-1.074319243E0	-5.060006306E-2
3.999978410E-1	1.528654546E-1	-1.057807565E0	-5.645901710E-2
4.012462690E-1	1.358212233E-1	-1.035969734E0	-5.113269389E-2
4.040515330E-1	1.315601617E-1	-9.954896569E-1	-4.474110901E-2
4.055890380E-1	1.331580579E-1	-9.353021979E-1	-3.355583176E-2
4.081126870E-1	1.315601617E-1	-8.197209835E-1	-1.970739290E-2
4.094536540E-1	1.406149119E-1	-6.269081235E-1	1.597896684E-3
4.121676480E-1	1.422128081E-1	-3.637878001E-1	1.757686399E-2
4.134255000E-1	1.470064968E-1	-5.699164793E-2	3.249056637E-2
4.162654180E-1	1.507349163E-1	2.806971967E-1	4.740426689E-2
4.175632690E-1	1.533980817E-1	6.338323355E-1	5.592638254E-2
4.203552640E-1	1.645833552E-1	9.933590889E-1	6.711166352E-2
4.220203080E-1	2.045307755E-1	1.470597625E0	8.042746782E-2
4.244316480E-1	2.402171344E-1	1.767806411E0	7.989483327E-2
4.259601920E-1	2.732403278E-1	2.044242382E0	7.403588295E-2
4.284873020E-1	3.083940744E-1	2.273807049E0	5.432848632E-2
4.306690000E-1	3.488741219E-1	2.443716764E0	3.355583176E-2
4.325409180E-1	3.989415467E-1	2.586462021E0	1.225054078E-2
4.338504230E-1	4.591289759E-1	2.745719194E0	-5.858954508E-3
4.365958020E-1	5.566006899E-1	2.919889927E0	-9.587380104E-3
4.383646150E-1	7.478156686E-1	3.104180574E0	-1.597896684E-3
4.406568790E-1	1.007207513E0	3.204315424E0	2.343581803E-2
4.418903080E-1	1.221325755E0	3.072755337E0	4.527373984E-2
4.447106480E-1	1.374723792E0	2.765426636E0	5.858954415E-2
4.463379230E-1	1.508947134E0	2.429335594E0	8.522115648E-2
4.487862640E-1	1.614940882E0	2.156095266E0	1.283643693E-1
4.500940380E-1	1.679922104E0	1.950499177E0	1.608549356E-1
4.528401870E-1	1.715075731E0	1.794970632E0	1.810949594E-1
4.543481920E-1	1.707618952E0	1.669269443E0	1.720402092E-1
4.568745000E-1	1.669802070E0	1.544100881E0	1.358212233E-1
4.581659230E-1	1.611745119E0	1.421062827E0	8.149272949E-2
4.609494560E-1	1.549959779E0	1.357679605E0	3.621899337E-2
4.625873460E-1	1.479652286E0	1.288969994E0	-1.278317347E-2
4.649905330E-1	1.412540674E0	1.221858382E0	-5.539375171E-2
4.662576540E-1	1.356614232E0	1.155279279E0	-9.800432622E-2
4.690445330E-1	1.307612062E0	1.085504532E0	-1.352885813E-1
4.707572310E-1	1.237837315E0	9.640643597E-1	-1.693770438E-1
4.731037640E-1	1.213868856E0	9.209211469E-1	-1.763012707E-1
4.743332690E-1	1.164866686E0	8.170578480E-1	-1.826928556E-1
4.771581870E-1	1.118527651E0	6.929545403E-1	-1.837581247E-1
4.787910770E-1	1.038100243E0	4.724447727E-1	-1.922802329E-1
4.812183790E-1	1.009870648E0	3.962783813E-1	-1.960086524E-1
4.824522310E-1	9.534116983E-1	2.428802997E-1	-2.050634027E-1
4.852723790E-1	9.022790194E-1	9.427590668E-2	-2.295644879E-1
4.868858460E-1	8.239820600E-1	-1.059938148E-1	-2.641855776E-1
4.893336100E-1	8.000136018E-1	-1.672465205E-1	-2.812298238E-1
4.906195380E-1	7.558051348E-1	-2.924150825E-1	-3.131877482E-1
4.933879170E-1	7.020092607E-1	-4.601942301E-1	-3.701793849E-1
4.947257690E-1	6.647250056E-1	-5.736449361E-1	-4.069310129E-1
4.975001480E-1	6.306365728E-1	-6.849650741E-1	-4.468784332E-1
4.988091540E-1	5.944175720E-1	-8.000136018E-1	-4.868258536E-1
5.015900330E-1	5.603290796E-1	-9.129316211E-1	-5.187838078E-1
5.032056540E-1	5.225121975E-1	-1.019458055E0	-5.496764779E-1
5.056518790E-1	4.793690145E-1	-1.106809735E0	-5.795038939E-1
5.071056150E-1	4.319647253E-1	-1.187769890E0	-6.034722924E-1
5.097053400E-1	3.808320463E-1	-1.247424722E0	-6.258428693E-1
5.113745380E-1	3.318298757E-1	-1.287372112E0	-6.444849968E-1
5.137498790E-1	2.812298238E-1	-1.315068960E0	-6.631271243E-1
5.150316540E-1	2.332929224E-1	-1.327852130E0	-6.764429212E-1
5.178048020E-1	1.928128600E-1	-1.324123740E0	-6.892260909E-1
5.194711920E-1	1.587243974E-1	-1.305481553E0	-7.036072016E-1
5.218809940E-1	1.304948926E-1	-1.275654197E0	-7.147924304E-1
5.231403850E-1	1.102548689E-1	-1.228249907E0	-7.238472104E-1
5.259364560E-1	9.853696078E-2	-1.171258211E0	-7.376956344E-1
5.275841150E-1	9.427590668E-2	-1.103613973E0	-7.499461770E-1
5.299625000E-1	9.853696078E-2	-1.028512836E0	-7.616640925E-1
5.312586150E-1	1.075917110E-1	-9.555422068E-1	-7.755125165E-1
5.340204940E-1	1.214401498E-1	-8.777779341E-1	-7.914915085E-1
5.355399230E-1	1.368864775E-1	-8.000136018E-1	-8.069378138E-1
5.380380000E-1	1.597896665E-1	-7.147924304E-1	-8.250473142E-1
5.393526920E-1	1.810949594E-1	-6.221144199E-1	-8.426241875E-1
5.421313400E-1	2.013349831E-1	-5.209143162E-1	-8.617989421E-1
5.440333850E-1	2.284992188E-1	-3.643204570E-1	-8.873652816E-1
5.462071860E-1	2.391518652E-1	-3.099919558E-1	-8.974853158E-1
5.474158080E-1	2.487392575E-1	-1.997370869E-1	-9.145295620E-1
5.502617250E-1	2.620550692E-1	-9.321063757E-2	-9.289106131E-1
5.519945380E-1	2.716424465E-1	6.391586363E-2	-9.539443254E-1
5.543270320E-1	2.727077007E-1	1.139832959E-1	-9.624664187E-1
5.557547310E-1	2.700445354E-1	2.125202566E-1	-9.800432920E-1
5.583821090E-1	2.657834888E-1	3.419498801E-1	-9.997506738E-1
5.599675000E-1	2.647182047E-1	4.175836742E-1	-1.019458055E0
5.624434940E-1	2.615224123E-1	4.724447727E-1	-1.029578090E0
5.638550000E-1	2.599245310E-1	5.044026971E-1	-1.034904361E0
5.664986090E-1	2.604571581E-1	5.150553584E-1	-1.037034988E0
5.682525770E-1	2.679139972E-1	5.006743073E-1	-1.033839107E0
5.705751860E-1	2.769687474E-1	4.554005563E-1	-1.021055937E0
5.720332310E-1	2.972087860E-1	3.802994192E-1	-1.001881242E0
5.746300710E-1	3.158509135E-1	2.796319127E-1	-9.795106649E-1
5.760848080E-1	3.344930410E-1	1.784317940E-1	-9.411611557E-1
5.787268020E-1	3.387540877E-1	8.841694891E-2	-9.012137055E-1
5.801252690E-1	3.355582952E-1	1.544633508E-2	-8.554073572E-1
5.828161480E-1	3.174487948E-1	-4.314320907E-2	-8.143946528E-1
5.846000000E-1	2.870887816E-1	-8.575379103E-2	-7.771103978E-1
5.868775320E-1	2.455434501E-1	-1.219727769E-1	-7.526093125E-1
5.882090000E-1	1.896170676E-1	-1.454086006E-1	-7.355651259E-1
5.909327630E-1	1.288969964E-1	-1.656486243E-1	-7.286409140E-1
5.928328460E-1	3.195793182E-2	-1.864212751E-1	-7.238472104E-1
5.949926090E-1	0.000000000E0	-1.949433982E-1	-7.243798375E-1
5.962748840E-1	-6.444849819E-2	-2.215750068E-1	-7.238472104E-1
5.990477250E-1	-1.182443574E-1	-2.636529505E-1	-7.275756001E-1
6.006668840E-1	-2.013349831E-1	-3.483414650E-1	-7.270429730E-1
6.031086860E-1	-2.269013226E-1	-3.808320463E-1	-7.270429730E-1
6.043507310E-1	-2.806971967E-1	-4.516721368E-1	-7.259777188E-1
6.071633020E-1	-3.291667104E-1	-5.257080197E-1	-7.254450917E-1
6.087822310E-1	-4.010720551E-1	-6.359629035E-1	-7.291735411E-1
6.112014610E-1	-4.234426320E-1	-6.700513363E-1	-7.291735411E-1
6.124643840E-1	-4.612595141E-1	-7.339671850E-1	-7.376956344E-1
6.152786090E-1	-4.953479767E-1	-7.946872711E-1	-7.419567108E-1
6.167081540E-1	-5.400890708E-1	-8.767126203E-1	-7.584682703E-1
6.194205320E-1	-5.741775632E-1	-9.337043166E-1	-7.755125165E-1
6.207926150E-1	-5.992112756E-1	-9.912285805E-1	-7.898935676E-1
6.235100710E-1	-6.242449880E-1	-1.043426514E0	-8.080030680E-1
6.250628080E-1	-6.434197426E-1	-1.083906531E0	-8.255799413E-1
6.275724940E-1	-6.631271243E-1	-1.118527651E0	-8.463526368E-1
6.288336920E-1	-6.780408025E-1	-1.149953008E0	-8.671252728E-1
6.316274940E-1	-6.902913451E-1	-1.173388839E0	-8.937568665E-1
6.333340380E-1	-6.982808709E-1	-1.187769890E0	-9.129316211E-1
6.356891480E-1	-7.009440064E-1	-1.193096161E0	-9.358348250E-1
6.369725770E-1	-7.009440064E-1	-1.201085687E0	-9.592706561E-1
6.397443010E-1	-7.020092607E-1	-1.204814076E0	-9.821738005E-1
6.413339230E-1	-6.972155571E-1	-1.205346704E0	-1.009870648E0
6.437876480E-1	-6.876282096E-1	-1.198955178E0	-1.032241225E0
6.449660380E-1	-6.780408025E-1	-1.193096161E0	-1.057274938E0
6.478421090E-1	-6.652576327E-1	-1.191498280E0	-1.081243396E0
6.493766920E-1	-6.503439546E-1	-1.190965652E0	-1.107342362E0
6.519019550E-1	-6.348975897E-1	-1.179780364E0	-1.136637211E0
6.534548460E-1	-6.183860302E-1	-1.166997194E0	-1.155279279E0
6.559559170E-1	-6.066681147E-1	-1.153681397E0	-1.178182483E0
6.572173080E-1	-5.954828262E-1	-1.136104584E0	-1.199487805E0
6.600528010E-1	-5.880259871E-1	-1.116397142E0	-1.220793009E0
6.613931540E-1	-5.811017752E-1	-1.095091820E0	-1.242098331E0
6.641407240E-1	-5.757754445E-1	-1.070590734E0	-1.255946755E0
6.658530380E-1	-5.715143681E-1	-1.046622276E0	-1.279382586E0
6.682151090E-1	-5.693838596E-1	-1.039165497E0	-1.287372112E0
6.694328840E-1	-5.667206645E-1	-1.026914954E0	-1.296959519E0
6.722682630E-1	-5.672533512E-1	-1.017860174E0	-1.302818418E0
6.739698460E-1	-5.736449361E-1	-1.005609632E0	-1.301220536E0
6.763329170E-1	-5.768406987E-1	-9.981527925E-1	-1.299622655E0
6.775692310E-1	-5.880259871E-1	-9.906959534E-1	-1.294828892E0
6.803861860E-1	-6.056028605E-1	-9.848369956E-1	-1.286306858E0
6.820038080E-1	-6.167881489E-1	-9.789780378E-1	-1.279915214E0
6.844465320E-1	-6.263754964E-1	-9.731190801E-1	-1.272458434E0
6.857375000E-1	-6.354302764E-1	-9.603359103E-1	-1.263936281E0
6.884999170E-1	-6.407565475E-1	-9.470201135E-1	-1.249022603E0
6.900576540E-1	-6.466155052E-1	-9.267801046E-1	-1.235706806E0
6.925740320E-1	-6.476807594E-1	-9.060074091E-1	-1.213868856E0
6.939298840E-1	-6.471481323E-1	-8.836368918E-1	-1.194694042E0
6.966278780E-1	-6.402239203E-1	-8.623315692E-1	-1.176051974E0
6.980502690E-1	-6.380934119E-1	-8.506136537E-1	-1.155279279E0
7.007418400E-1	-6.263754964E-1	-8.415589333E-1	-1.132376075E0
7.020986150E-1	-6.087986231E-1	-8.309062719E-1	-1.109472990E0
7.048300700E-1	-5.949501991E-1	-8.287757635E-1	-1.081243396E0
7.063648460E-1	-5.811017752E-1	-8.372978568E-1	-1.054611802E0
7.088914930E-1	-5.603290796E-1	-8.351673484E-1	-1.024784446E0
7.103031920E-1	-5.416869521E-1	-8.356999755E-1	-1.001881242E0
7.129463010E-1	-5.251753926E-1	-8.452873230E-1	-9.763149023E-1
7.146418840E-1	-5.118595958E-1	-8.703210354E-1	-9.384979606E-1
7.170181860E-1	-5.065332651E-1	-8.847021461E-1	-9.289106131E-1
7.182617310E-1	-4.990763962E-1	-9.161274433E-1	-9.065400362E-1
7.210721860E-1	-4.921521842E-1	-9.512811303E-1	-8.847021461E-1
7.226980000E-1	-4.980111420E-1	-1.023186564E0	-8.362326026E-1
7.251318780E-1	-5.028048158E-1	-1.051416039E0	-8.197209835E-1
7.264514230E-1	-5.203816891E-1	-1.112136126E0	-7.845672965E-1
7.291858010E-1	-5.438175201E-1	-1.170192957E0	-7.510114312E-1
7.308446920E-1	-5.848301649E-1	-1.251153111E0	-7.126619220E-1
7.332463400E-1	-5.976133347E-1	-1.271925807E0	-7.025418878E-1
7.344470380E-1	-6.226470470E-1	-1.318264723E0	-6.886934638E-1
7.373001090E-1	-6.434197426E-1	-1.362473249E0	-6.775081754E-1
7.387574230E-1	-6.562029123E-1	-1.406149030E0	-6.652576327E-1
7.414111090E-1	-6.556702852E-1	-1.430650115E0	-6.572681665E-1
7.426611540E-1	-6.514092088E-1	-1.442900658E0	-6.471481323E-1
7.454998780E-1	-6.418218613E-1	-1.446096539E0	-6.498113275E-1
7.471113840E-1	-6.194512844E-1	-1.428519607E0	-6.625944972E-1
7.495596860E-1	-5.917543769E-1	-1.402420640E0	-6.775081754E-1
7.507798460E-1	-5.656554103E-1	-1.361940622E0	-6.972155571E-1
7.536125700E-1	-5.310343504E-1	-1.311340570E0	-7.259777188E-1
7.555468840E-1	-4.958806038E-1	-1.248489976E0	-7.510114312E-1
7.576559550E-1	-4.628573954E-1	-1.173388839E0	-7.797735929E-1
7.590533460E-1	-4.330300093E-1	-1.097755075E0	-8.117315173E-1
7.617098010E-1	-4.042678475E-1	-1.023719192E0	-8.506136537E-1
7.633265000E-1	-3.840278387E-1	-9.683253765E-1	-8.857674003E-1
7.657847620E-1	-3.595267534E-1	-9.283779860E-1	-9.161274433E-1
7.670623070E-1	-3.286340833E-1	-8.873652816E-1	-9.566074610E-1
7.698394930E-1	-2.833603323E-1	-8.362326026E-1	-9.976201653E-1
7.714942310E-1	-2.322276533E-1	-7.765777707E-1	-1.029045463E0
7.738678390E-1	-1.805623323E-1	-7.238472104E-1	-1.051416039E0
7.751195770E-1	-1.342233270E-1	-6.684534550E-1	-1.072721362E0
7.779226090E-1	-8.894958347E-2	-6.093312502E-1	-1.103613973E0
7.794231920E-1	-5.113269389E-2	-5.512743592E-1	-1.127582431E0
7.819606090E-1	-1.970739290E-2	-5.028048158E-1	-1.151018262E0
7.832630000E-1	-5.326322280E-4	-4.671184719E-1	-1.165931940E0
7.860144930E-1	1.651159860E-2	-4.458131790E-1	-1.176584601E0
7.875916150E-1	3.036003746E-2	-4.506068528E-1	-1.178715110E0
7.900889550E-1	3.408846259E-2	-4.601942301E-1	-1.177649856E0
7.913450380E-1	3.621899337E-2	-4.889563918E-1	-1.171258211E0
7.941429550E-1	3.408846259E-2	-5.283711553E-1	-1.163801432E0
7.958560000E-1	2.237055451E-2	-6.093312502E-1	-1.147822499E0
7.982132240E-1	1.704423130E-2	-6.407565475E-1	-1.138767719E0
7.994218070E-1	4.261057824E-3	-7.073355913E-1	-1.124919295E0
8.022675700E-1	-1.597896591E-2	-7.813714743E-1	-1.105744481E0
8.038621920E-1	-4.900216311E-2	-8.900284767E-1	-1.076982379E0
8.063281850E-1	-7.403588295E-2	-9.619337916E-1	-1.053546548E0
8.076379610E-1	-8.894958347E-2	-9.970875382E-1	-1.041828632E0
8.103829160E-1	-1.262338310E-1	-1.072721362E0	-9.789780378E-1
8.119504230E-1	-1.581917703E-1	-1.128115058E0	-9.528790712E-1
8.144588010E-1	-1.965412945E-1	-1.171790957E0	-9.337043166E-1
8.156854230E-1	-2.269013226E-1	-1.201618314E0	-9.150621891E-1
8.185140310E-1	-2.588592768E-1	-1.229847789E0	-8.889631629E-1
8.198006150E-1	-2.806971967E-1	-1.230380416E0	-8.564726114E-1
8.226113390E-1	-2.908172011E-1	-1.197357297E0	-8.213189244E-1
8.238890380E-1	-2.988066673E-1	-1.139832973E0	-7.840346098E-1
8.267006080E-1	-3.094593287E-1	-1.096157074E0	-7.430219650E-1
8.282855000E-1	-3.179814517E-1	-1.071655989E0	-6.940197945E-1
8.307281850E-1	-3.286340833E-1	-1.053546548E0	-6.466155052E-1
8.322758070E-1	-3.398193717E-1	-1.041828632E0	-5.901564956E-1
8.347819930E-1	-3.643204570E-1	-1.032241225E0	-5.342301130E-1
8.365990770E-1	-3.829625845E-1	-1.005077004E0	-4.857605994E-1
8.388581080E-1	-3.920173049E-1	-9.246495366E-1	-4.319647253E-1
8.400457300E-1	-3.888215125E-1	-8.314388990E-1	-4.032025933E-1
8.429129540E-1	-3.882888854E-1	-7.435545921E-1	-3.882888854E-1
8.445579610E-1	-3.861583769E-1	-6.711165905E-1	-3.723099232E-1
8.469741080E-1	-3.840278387E-1	-6.178534031E-1	-3.584614992E-1
8.481553070E-1	-3.898867965E-1	-5.896238685E-1	-3.510046303E-1
8.510283780E-1	-4.101268053E-1	-5.842975378E-1	-3.435477912E-1
8.525665380E-1	-4.388889670E-1	-6.135923266E-1	-3.467435837E-1
8.550310000E-1	-4.436826408E-1	-6.317018270E-1	-3.536677957E-1
8.563006540E-1	-4.447479248E-1	-6.775081754E-1	-3.648530841E-1
8.591426080E-1	-4.298342168E-1	-7.329019308E-1	-3.824299276E-1
8.606880380E-1	-4.048005044E-1	-8.090683818E-1	-4.106594622E-1
8.632059540E-1	-3.952131271E-1	-8.309062719E-1	-4.202468395E-1
8.644600770E-1	-3.765709996E-1	-9.081379771E-1	-4.490089715E-1
8.672591470E-1	-3.675162494E-1	-9.933590889E-1	-4.825648069E-1
8.688296150E-1	-3.376888335E-1	-1.074319243E0	-5.363606811E-1
8.713006470E-1	-3.296993375E-1	-1.088167667E0	-5.518069863E-1
8.725543840E-1	-3.009372056E-1	-1.092428684E0	-5.880259871E-1
8.753543000E-1	-2.769687474E-1	-1.053013921E0	-6.332997084E-1
8.771008840E-1	-2.748382390E-1	-1.002946496E0	-6.578007936E-1
8.794079160E-1	-2.689792812E-1	-9.310411215E-1	-6.833671331E-1
8.805970770E-1	-2.652508616E-1	-8.527442217E-1	-7.078682184E-1
8.834616850E-1	-2.631203234E-1	-8.202536106E-1	-7.430219650E-1
8.850167300E-1	-2.620550692E-1	-8.207862377E-1	-7.808388472E-1
8.875374930E-1	-2.609897852E-1	-8.383631110E-1	-8.261125684E-1
8.887951540E-1	-2.599245310E-1	-8.633968234E-1	-8.745821118E-1
8.915922620E-1	-2.599245310E-1	-9.092032313E-1	-9.283779860E-1
8.931313840E-1	-2.700445354E-1	-9.747169614E-1	-9.859022498E-1
8.956533000E-1	-2.844256163E-1	-1.045557022E0	-1.044491768E0
8.969868460E-1	-3.110572100E-1	-1.120658159E0	-1.104146600E0
8.997077620E-1	-3.414172530E-1	-1.196292043E0	-1.157409787E0
9.009892690E-1	-3.701793849E-1	-1.263936281E0	-1.203748822E0
9.038046470E-1	-3.898867965E-1	-1.329982638E0	-1.244761467E0
9.050452690E-1	-4.101268053E-1	-1.390170097E0	-1.279915214E0
9.078937230E-1	-4.207794666E-1	-1.453553319E0	-1.308677435E0
9.094665380E-1	-4.314320982E-1	-1.514806032E0	-1.330515265E0
9.119699160E-1	-4.388889670E-1	-1.564873457E0	-1.348624825E0
9.132997690E-1	-4.415521026E-1	-1.608549356E0	-1.362473249E0
9.160235700E-1	-4.410194755E-1	-1.632517815E0	-1.370462775E0
9.180560380E-1	-4.372910559E-1	-1.627724051E0	-1.384311199E0
9.200939160E-1	-4.319647253E-1	-1.616006136E0	-1.388572216E0
9.213344610E-1	-4.218447208E-1	-1.585113525E0	-1.396561742E0
9.241473770E-1	-4.106594622E-1	-1.539307117E0	-1.404018521E0
9.256893070E-1	-3.856257200E-1	-1.461542845E0	-1.412008047E0
9.282085700E-1	-3.765709996E-1	-1.433313370E0	-1.414671183E0
9.294040380E-1	-3.563309610E-1	-1.381115317E0	-1.417866945E0
9.322624540E-1	-3.408846259E-1	-1.329982638E0	-1.418932199E0
9.339270770E-1	-3.185140789E-1	-1.262338400E0	-1.413073301E0
9.363380690E-1	-3.131877482E-1	-1.228249907E0	-1.406681657E0
9.376191530E-1	-3.105245829E-1	-1.199487805E0	-1.392833233E0
9.403919930E-1	-3.131877482E-1	-1.181378245E0	-1.374191165E0
9.418997690E-1	-3.206445873E-1	-1.161138296E0	-1.347559571E0
9.444965690E-1	-3.355582952E-1	-1.143028736E0	-1.314003706E0
9.458935000E-1	-3.526025414E-1	-1.124386668E0	-1.275121570E0
9.485855690E-1	-3.760383427E-1	-1.102548718E0	-1.236239433E0
9.501369610E-1	-4.010720551E-1	-1.082308650E0	-1.193096161E0
9.526461080E-1	-4.255731404E-1	-1.060470819E0	-1.148355126E0
9.540051920E-1	-4.495415986E-1	-1.039165497E0	-1.103613973E0
9.566990690E-1	-4.697816372E-1	-1.018392801E0	-1.056742311E0
9.584826530E-1	-4.921521842E-1	-9.960222840E-1	-1.012001276E0
9.607753770E-1	-5.134574771E-1	-9.752495885E-1	-9.667274952E-1
9.620250380E-1	-5.342301130E-1	-9.512811303E-1	-9.230516553E-1
9.648282620E-1	-5.560680628E-1	-9.273127317E-1	-8.777779341E-1
9.664292690E-1	-5.757754445E-1	-9.001484513E-1	-8.346347213E-1
9.688548000E-1	-6.013417840E-1	-8.729842305E-1	-7.856325507E-1
9.700229230E-1	-6.210491657E-1	-8.452873230E-1	-7.419567108E-1
9.729075690E-1	-6.434197426E-1	-8.170578480E-1	-6.918892860E-1
9.744911530E-1	-6.652576327E-1	-7.920241356E-1	-6.391586661E-1
9.769669540E-1	-6.807039976E-1	-7.648598552E-1	-5.864281058E-1
9.782639610E-1	-6.934871674E-1	-7.472830415E-1	-5.273059011E-1
9.810203770E-1	-7.036072016E-1	-7.313040495E-1	-4.665858448E-1
9.823565380E-1	-7.052050829E-1	-7.195861340E-1	-4.026699662E-1
9.851313390E-1	-7.030745149E-1	-7.073355913E-1	-3.382214606E-1
9.864071920E-1	-6.993461251E-1	-6.966829300E-1	-2.732403278E-1
9.892193770E-1	-6.807039976E-1	-6.908239722E-1	-2.119876295E-1
9.908144610E-1	-6.599313021E-1	-6.791061163E-1	-1.257012039E-1
9.932788770E-1	-6.508765817E-1	-6.748450398E-1	-9.693906456E-2
9.946228840E-1	-6.311691999E-1	-6.652576327E-1	-4.420847446E-2
9.973324150E-1	-6.024070382E-1	-6.338323355E-1	3.515372798E-2
9.991803840E-1	-5.795038939E-1	-6.109291911E-1	8.522115648E-2
1.001375031E0	-5.576659441E-1	-5.811017752E-1	1.342233270E-1
1.002680423E0	-5.352953672E-1	-5.454154015E-1	1.885518134E-1
1.005428300E0	-5.155879855E-1	-5.113269091E-1	2.418150306E-1
1.007213461E0	-4.894890189E-1	-4.804342687E-1	2.924150825E-1
1.009504646E0	-4.639226794E-1	-4.426173866E-1	3.424825370E-1
1.010726461E0	-4.330300093E-1	-3.957457542E-1	3.962783813E-1
1.013559069E0	-4.048005044E-1	-3.398193717E-1	4.474110603E-1
1.015082230E0	-3.792341352E-1	-2.785666585E-1	5.033374429E-1
1.017619300E0	-3.542004228E-1	-2.125202566E-1	5.592638254E-1
1.018863961E0	-3.328951299E-1	-1.454086006E-1	6.167881489E-1
1.021672569E0	-3.131877482E-1	-8.628641814E-2	6.785734296E-1
1.023133846E0	-2.988066673E-1	-3.355583176E-2	7.313040495E-1
1.025723069E0	-2.913498282E-1	1.065264456E-2	7.845672965E-1
1.027002615E0	-2.844256163E-1	4.793690145E-2	8.362326026E-1
1.029776338E0	-2.790992856E-1	7.563377917E-2	8.809736967E-1
1.031365076E0	-2.775014043E-1	9.427590668E-2	9.337043166E-1
1.033850954E0	-2.743056118E-1	1.134506613E-1	9.848369956E-1
1.035105653E0	-2.796319127E-1	1.294296384E-1	1.031175971E0
1.037906223E0	-2.822950780E-1	1.502022892E-1	1.079645514E0
1.039664500E0	-2.924150825E-1	1.784317940E-1	1.144626617E0
1.041960223E0	-2.956108749E-1	1.858886480E-1	1.163268805E0
1.043199076E0	-3.078614175E-1	1.997370869E-1	1.201618314E0
1.046014684E0	-3.190467060E-1	2.077265680E-1	1.234641552E0
1.047680153E0	-3.392867148E-1	2.109223604E-1	1.272991061E0
1.050075223E0	-3.451456726E-1	2.093244642E-1	1.284708977E0
1.051368769E0	-3.499393761E-1	1.938781291E-1	1.305481553E0
1.054129031E0	-3.531351686E-1	1.704423130E-1	1.324656367E0
1.055849615E0	-3.494067490E-1	1.693770438E-1	1.358212233E0
1.058204107E0	-3.488741219E-1	1.752360016E-1	1.368332148E0
1.059545807E0	-3.526025414E-1	1.949433982E-1	1.389637470E0
1.062258377E0	-3.595267534E-1	2.082591951E-1	1.403485894E0
1.063550730E0	-3.723099232E-1	2.077265680E-1	1.413073301E0
1.066355531E0	-3.904194236E-1	1.997370869E-1	1.410942793E0
1.067869115E0	-3.946804702E-1	1.938781291E-1	1.404018521E0
1.070444146E0	-3.973436356E-1	1.896170676E-1	1.392300606E0
1.072616769E0	-3.914846778E-1	1.853560209E-1	1.379517436E0
1.074504607E0	-3.866910040E-1	1.778991669E-1	1.364603758E0
1.076093115E0	-3.792341352E-1	1.709749401E-1	1.354483724E0
1.078558415E0	-3.744404614E-1	1.651159972E-1	1.345429063E0
1.080575269E0	-3.675162494E-1	1.651159972E-1	1.338504791E0
1.082615684E0	-3.653857112E-1	1.672465205E-1	1.333178520E0
1.083852769E0	-3.632551730E-1	1.731054783E-1	1.330515265E0
1.086668300E0	-3.627225459E-1	1.752360016E-1	1.331580520E0
1.088289961E0	-3.653857112E-1	1.763012707E-1	1.335309029E0
1.090727992E0	-3.685815036E-1	1.720402092E-1	1.342765808E0
1.092026923E0	-3.696467578E-1	1.651159972E-1	1.350755334E0
1.094780838E0	-3.733751774E-1	1.539307088E-1	1.363538504E0
1.096401000E0	-3.771036267E-1	1.411475390E-1	1.374723792E0
1.098841684E0	-3.787015080E-1	1.326254308E-1	1.383778572E0
1.100114269E0	-3.797667921E-1	1.219727769E-1	1.389637470E0
1.102895184E0	-3.781688809E-1	1.129180342E-1	1.393365860E0
1.104392153E0	-3.776362538E-1	1.070590764E-1	1.398692250E0
1.106924115E0	-3.749730885E-1	1.022653878E-1	1.400290132E0
1.108204269E0	-3.707120419E-1	1.033306494E-1	1.398692250E0
1.111018877E0	-3.664509654E-1	1.065264493E-1	1.393365860E0
1.112668307E0	-3.595267534E-1	1.113201380E-1	1.381115317E0
1.115080569E0	-3.563309610E-1	1.161138266E-1	1.373125911E0
1.116376576E0	-3.499393761E-1	1.225054115E-1	1.359810114E0
1.119134569E0	-3.446130455E-1	1.262338310E-1	1.337439537E0
1.120887769E0	-3.392867148E-1	1.374191195E-1	1.300155282E0
1.123189030E0	-3.344930410E-1	1.416801661E-1	1.286306858E0
1.124472038E0	-3.275688291E-1	1.533980817E-1	1.252750993E0
1.127243069E0	-3.227751255E-1	1.672465205E-1	1.221325755E0
1.128876423E0	-3.211772442E-1	1.928128600E-1	1.168062449E0
1.131318415E0	-3.233077526E-1	2.130528986E-1	1.131310821E0
1.132574076E0	-3.286340833E-1	2.284992188E-1	1.096689701E0
1.135373530E0	-3.339604139E-1	2.455434501E-1	1.063133955E0
1.136939730E0	-3.440804183E-1	2.524676621E-1	1.031175971E0
1.139434530E0	-3.520699143E-1	2.545982003E-1	1.002946496E0
1.140723461E0	-3.605920076E-1	2.487392575E-1	9.821738005E-1
1.143488799E0	-3.685815036E-1	2.402171344E-1	9.624664187E-1
1.144819192E0	-3.808320463E-1	2.253034264E-1	9.454222322E-1
1.147585223E0	-3.914846778E-1	2.130528986E-1	9.379653335E-1
1.148938153E0	-4.079962969E-1	1.944107562E-1	9.299758673E-1
1.151674723E0	-4.223773479E-1	1.741707325E-1	9.331716895E-1
1.153380499E0	-4.388889670E-1	1.571265012E-1	9.379653335E-1
1.155751953E0	-4.554005563E-1	1.411475390E-1	9.502158761E-1
1.157002153E0	-4.697816372E-1	1.299622655E-1	9.598032832E-1
1.159805876E0	-4.830974340E-1	1.278317273E-1	9.763149023E-1
1.161593269E0	-4.958806038E-1	1.278317273E-1	9.917612076E-1
1.163866530E0	-5.070658922E-1	1.331580579E-1	1.014131784E0
1.165193961E0	-5.145227313E-1	1.379517466E-1	1.042361259E0
1.167920876E0	-5.230448246E-1	1.464738697E-1	1.071655989E0
1.169475346E0	-5.278385282E-1	1.549959779E-1	1.107874990E0
1.171982030E0	-5.315669775E-1	1.656486243E-1	1.144093990E0
1.173286307E0	-5.342301130E-1	1.720402092E-1	1.182976127E0
1.176035030E0	-5.315669775E-1	1.805623323E-1	1.226119399E0
1.177621846E0	-5.235774517E-1	1.842907518E-1	1.285774231E0
1.180110722E0	-5.177185535E-1	1.826928556E-1	1.306546807E0
1.181462115E0	-5.123922229E-1	1.778991669E-1	1.344896317E0
1.184163838E0	-5.065332651E-1	1.725728363E-1	1.379517436E0
1.185719961E0	-4.926848114E-1	1.597896665E-1	1.426921725E0
1.188216030E0	-4.889563918E-1	1.571265012E-1	1.440770149E0
1.189496884E0	-4.777711034E-1	1.470064968E-1	1.463673353E0
1.192270953E0	-4.649879336E-1	1.427454352E-1	1.482315540E0
1.194061461E0	-4.420847595E-1	1.384843737E-1	1.504685998E0
1.196332299E0	-4.239752591E-1	1.390170157E-1	1.511610270E0
1.197583423E0	-4.048005044E-1	1.459412277E-1	1.522795558E0
1.200386607E0	-3.845604658E-1	1.539307088E-1	1.528654456E0
1.202156192E0	-3.685815036E-1	1.672465205E-1	1.536111355E0
1.204453876E0	-3.478088379E-1	1.731054783E-1	1.541437626E0
1.205651153E0	-3.296993375E-1	1.784317940E-1	1.544100881E0
1.208507645E0	-3.110572100E-1	1.752360016E-1	1.548361897E0
1.210157653E0	-2.934803665E-1	1.709749401E-1	1.546764016E0
1.212568107E0	-2.785666585E-1	1.592570394E-1	1.545698762E0
1.214036653E0	-2.567287385E-1	1.448759735E-1	1.538774490E0
1.216621222E0	-2.375539690E-1	1.331580579E-1	1.535046101E0
1.218515846E0	-2.173139453E-1	1.214401498E-1	1.525991321E0
1.220680530E0	-1.965412945E-1	1.102548689E-1	1.516403913E0
1.222063461E0	-1.794970632E-1	1.059938148E-1	1.502555490E0
1.224733991E0	-1.624528319E-1	1.038632840E-1	1.492968082E0
1.226043307E0	-1.448759735E-1	1.049285457E-1	1.484446049E0
1.228845684E0	-1.294296384E-1	1.091896072E-1	1.475923896E0
1.230111038E0	-1.139832959E-1	1.193096191E-1	1.469532371E0
1.232933530E0	-1.027980223E-1	1.315601617E-1	1.462075472E0
1.234645115E0	-9.161274135E-2	1.459412277E-1	1.456216455E0
1.236993684E0	-8.575379103E-2	1.608549356E-1	1.451422811E0
1.238869346E0	-7.989483327E-2	1.768338978E-1	1.445031285E0
1.241047491E0	-7.563377917E-2	1.960086524E-1	1.441302776E0
1.242780307E0	-6.657902896E-2	2.194444835E-1	1.427986979E0
1.245100222E0	-6.444849819E-2	2.247707993E-1	1.431182742E0
1.246472422E0	-5.858954415E-2	2.295644879E-1	1.427454352E0
1.249154876E0	-5.166532472E-2	2.269013226E-1	1.427454352E0
1.250828269E0	-4.261057824E-2	2.162486911E-1	1.429584861E0
1.253230376E0	-3.781688958E-2	2.098570913E-1	1.433845997E0
1.254511153E0	-3.355583176E-2	1.970739216E-1	1.439704895E0
1.257283991E0	-2.982740477E-2	1.677791476E-1	1.447161794E0
1.258946461E0	-2.822950855E-2	1.480717659E-1	1.458879709E0
1.261344722E0	-2.769687586E-2	1.278317273E-1	1.472195506E0
1.262637269E0	-2.876213938E-2	1.097222418E-1	1.480717540E0
1.265398184E0	-2.609897964E-2	9.374327213E-2	1.487641811E0
1.266935269E0	-2.503371425E-2	7.669904083E-2	1.494033456E0
1.269426999E0	-2.237055451E-2	5.699164793E-2	1.496163964E0
1.270714499E0	-2.077265643E-2	4.474110901E-2	1.496696591E0
1.273505953E0	-1.917476021E-2	2.716424316E-2	1.489772320E0
1.275214422E0	-1.544633508E-2	1.331580617E-2	1.479119658E0
1.277560491E0	-1.384843793E-2	-1.597896684E-3	1.467401743E0
1.278936538E0	-1.225054078E-2	-1.491370238E-2	1.447161794E0
1.281613645E0	-1.225054078E-2	-3.089267015E-2	1.424258590E0
1.283365576E0	-1.544633508E-2	-4.527373984E-2	1.401355386E0
1.285679722E0	-1.597896591E-2	-6.018744037E-2	1.374723792E0
1.286927499E0	-1.864212751E-2	-7.563377917E-2	1.345961690E0
1.289732876E0	-2.183792181E-2	-9.321063757E-2	1.310275316E0
1.291285192E0	-2.343581803E-2	-1.086569726E-1	1.277252078E0
1.293793145E0	-2.769687586E-2	-1.182443574E-1	1.236772060E0
1.295070846E0	-3.089267015E-2	-1.262338310E-1	1.195226669E0
1.297846414E0	-3.994741663E-2	-1.320927888E-1	1.159007788E0
1.299515076E0	-4.793690145E-2	-1.347559541E-1	1.116929770E0
1.301921837E0	-5.912217870E-2	-1.336906850E-1	1.081243396E0
1.303225576E0	-7.563377917E-2	-1.336906850E-1	1.046622276E0
1.305975914E0	-9.427590668E-2	-1.363538504E-1	1.012001276E0
1.307266730E0	-1.166464612E-1	-1.384843737E-1	9.837717414E-1
1.310073607E0	-1.406149119E-1	-1.443433315E-1	9.534116983E-1
1.311336999E0	-1.688444167E-1	-1.576591432E-1	9.315737486E-1
1.314162914E0	-1.976065636E-1	-1.704423130E-1	9.097358584E-1
1.315720384E0	-2.418150306E-1	-2.024002522E-1	8.735168576E-1
1.318222760E0	-2.556634545E-1	-2.119876295E-1	8.628641963E-1
1.319635076E0	-2.881540358E-1	-2.359560728E-1	8.372978568E-1
1.322276760E0	-3.291667104E-1	-2.711097896E-1	7.989483476E-1
1.324055922E0	-3.515372574E-1	-2.897519469E-1	7.653924823E-1
1.326346568E0	-3.717772961E-1	-3.014698327E-1	7.323693037E-1
1.327651384E0	-3.909520507E-1	-3.073287904E-1	6.940197945E-1
1.330399991E0	-4.095941782E-1	-3.105245829E-1	6.524744630E-1
1.332181038E0	-4.239752591E-1	-3.041329980E-1	6.072007418E-1
1.334460222E0	-4.383563101E-1	-2.966761589E-1	5.619270205E-1
1.335699769E0	-4.554005563E-1	-2.886866629E-1	5.161206126E-1
1.338513953E0	-4.713795185E-1	-2.833603323E-1	4.703142643E-1
1.340101192E0	-4.868258536E-1	-2.828277051E-1	4.266384244E-1
1.342575222E0	-5.033374429E-1	-2.876214087E-1	3.845604658E-1
1.344021269E0	-5.219795704E-1	-3.009372056E-1	3.392867148E-1
1.346629722E0	-5.384911895E-1	-3.265035450E-1	2.977414131E-1
1.348136884E0	-5.566006899E-1	-3.589941263E-1	2.545982003E-1
1.350757299E0	-5.747101903E-1	-3.930825889E-1	2.178465873E-1
1.352043461E0	-5.869607329E-1	-4.277036786E-1	1.715075821E-1
1.354846260E0	-6.013417840E-1	-4.564658105E-1	1.299622655E-1
1.356536884E0	-6.114618182E-1	-4.793690145E-1	8.468852192E-2
1.358906683E0	-6.205165386E-1	-5.001416802E-1	3.675162420E-2
1.360105807E0	-6.263754964E-1	-5.155879855E-1	-1.278317347E-2
1.362961260E0	-6.317018270E-1	-5.310343504E-1	-6.338323653E-2
1.365006422E0	-6.295713186E-1	-5.544701219E-1	-1.422128081E-1
1.367032799E0	-6.343649626E-1	-5.432848930E-1	-1.699096859E-1
1.368302769E0	-6.370281577E-1	-5.470132828E-1	-2.167813182E-1
1.371087529E0	-6.322344542E-1	-5.640575290E-1	-2.663161159E-1
1.372809076E0	-6.103965044E-1	-6.056028605E-1	-3.414172530E-1
1.375163145E0	-6.018744111E-1	-6.231797338E-1	-3.675162494E-1
1.376413499E0	-5.784385800E-1	-6.593986750E-1	-4.175836742E-1
1.379216837E0	-5.528722405E-1	-7.004113793E-1	-4.671184719E-1
1.380840807E0	-5.044026971E-1	-7.771103978E-1	-5.331648588E-1
1.383277606E0	-4.703142643E-1	-8.021441102E-1	-5.715143681E-1
1.384524038E0	-4.346278906E-1	-8.175904751E-1	-6.119944453E-1
1.387332106E0	-3.941478431E-1	-8.223841786E-1	-6.583334208E-1
1.388696538E0	-3.515372574E-1	-8.096010089E-1	-6.886934638E-1
1.391429183E0	-3.030677438E-1	-7.936220169E-1	-7.403587699E-1
1.392714692E0	-2.577939928E-1	-7.659251690E-1	-7.952198982E-1
1.395517914E0	-2.114549875E-1	-7.163903713E-1	-8.415589333E-1
1.397831645E0	-1.629854590E-1	-6.711165905E-1	-8.831042051E-1
1.399593683E0	-1.171790883E-1	-6.087986231E-1	-8.990831971E-1
1.401072307E0	-7.030745596E-2	-5.475459099E-1	-8.777779341E-1
1.403646837E0	-3.302319720E-2	-4.692489803E-1	-7.936220169E-1
1.405424807E0	-2.290318534E-2	-3.605920076E-1	-6.870955825E-1
1.407705606E0	-4.048004746E-2	-2.556634545E-1	-5.566006899E-1
1.409004769E0	-7.084008306E-2	-1.677791476E-1	-4.218447208E-1
1.411759491E0	-1.203748807E-1	-3.355583176E-2	-3.004045784E-1
1.413377845E0	-1.768338978E-1	1.017327532E-1	-2.077265680E-1
1.415819337E0	-2.279665917E-1	1.837581247E-1	-1.459412277E-1
1.417222845E0	-2.700445354E-1	2.577939928E-1	-1.129180342E-1
1.419873491E0	-3.190467060E-1	3.488741219E-1	-1.038632840E-1
1.421690922E0	-3.653857112E-1	4.095941782E-1	-1.294296384E-1
1.423922384E0	-3.813646734E-1	3.510046303E-1	-1.890844405E-1
1.425191961E0	-3.573962152E-1	2.343581766E-1	-2.668487430E-1
1.428003914E0	-2.993393242E-1	1.299622655E-1	-3.419498801E-1
1.429402269E0	-2.231729031E-1	4.953479767E-2	-4.101268053E-1
1.430858038E0	-1.805623323E-1	1.970739290E-2	-4.372910559E-1
1.432371845E0	-1.097222418E-1	-9.587380104E-3	-4.868258536E-1
1.435205221E0	-7.350324839E-2	5.592638254E-2	-5.006743073E-1
1.436945345E0	-7.510114461E-2	1.800296903E-1	-5.107942820E-1
1.439233491E0	-7.882957160E-2	1.890844405E-1	-5.299690962E-1
1.440694807E0	-8.468852192E-2	2.205097377E-1	-5.422195792E-1
1.443288068E0	-6.231797114E-2	2.396845073E-1	-5.795038939E-1
1.444985345E0	-2.663161233E-2	2.306297570E-1	-6.109291911E-1
1.447346144E0	3.142530099E-2	2.173139453E-1	-6.423544884E-1
1.448585692E0	8.841694891E-2	2.082591951E-1	-6.812366247E-1
1.451400375E0	1.416801661E-1	2.013349831E-1	-7.259777188E-1
1.453022076E0	1.912149638E-1	2.093244642E-1	-7.787083387E-1
1.455459644E0	2.231729031E-1	2.428802997E-1	-8.356999755E-1
1.456675499E0	2.450108230E-1	2.913498282E-1	-9.054747820E-1
1.459513798E0	2.620550692E-1	3.392867148E-1	-9.784454107E-1
1.461078153E0	2.689792812E-1	3.787015080E-1	-1.041296005E0
1.463574067E0	2.732403278E-1	4.021373391E-1	-1.098287702E0
1.464910576E0	2.764361203E-1	4.138552547E-1	-1.145159245E0
1.467628106E0	2.780340314E-1	3.973436356E-1	-1.183508754E0
1.469078268E0	2.700445354E-1	3.568635881E-1	-1.216531992E0
1.471761875E0	2.556634545E-1	2.977414131E-1	-1.247424722E0
1.473117153E0	2.364887148E-1	2.332929224E-1	-1.270327806E0
1.475851221E0	2.215750068E-1	1.709749401E-1	-1.291100502E0
1.477448345E0	2.316950262E-1	1.352885813E-1	-1.304416299E0
1.479912529E0	2.593919039E-1	1.486043930E-1	-1.303351045E0
1.481140192E0	2.950782478E-1	1.571265012E-1	-1.317199469E0
1.483966260E0	3.105245829E-1	1.464738697E-1	-1.339037418E0
1.485723615E0	2.790992856E-1	1.129180342E-1	-1.372593284E0
1.488011375E0	2.625876963E-1	1.027980223E-1	-1.376321673E0
1.489381999E0	2.215750068E-1	7.882957160E-2	-1.368864775E0
1.492065144E0	1.731054783E-1	6.231797114E-2	-1.357146859E0
1.493666038E0	9.427590668E-2	-3.941478580E-2	-1.320927978E0
1.496139606E0	6.498113275E-2	-8.042746782E-2	-1.307079434E0
1.497516422E0	1.544633508E-2	-1.480717659E-1	-1.279382586E0
1.500192529E0	-2.769687586E-2	-1.949433982E-1	-1.246359468E0
1.501806961E0	-7.829693705E-2	-2.556634545E-1	-1.210673094E0
1.504252990E0	-1.070590764E-1	-2.876214087E-1	-1.192563534E0
1.505487345E0	-1.315601617E-1	-3.041329980E-1	-1.184574127E0
1.508306490E0	-1.571265012E-1	-2.972087860E-1	-1.186172009E0
1.509736576E0	-1.805623323E-1	-2.663161159E-1	-1.186704636E0
1.512365922E0	-2.008023560E-1	-2.135855258E-1	-1.198955178E0
1.513859999E0	-2.157160491E-1	-1.470064968E-1	-1.210673094E0
1.516501913E0	-2.290318608E-1	-7.936219871E-2	-1.225586772E0
1.518124538E0	-2.370213419E-1	-6.391586736E-3	-1.242630959E0
1.520545144E0	-2.402171344E-1	5.805691332E-2	-1.260740519E0
1.522167307E0	-2.444781959E-1	1.027980223E-1	-1.282578349E0
1.524598990E0	-2.386192381E-1	1.400822699E-1	-1.305481553E0
1.526292999E0	-2.306297570E-1	1.640507281E-1	-1.323058486E0
1.528652144E0	-2.077265680E-1	1.800296903E-1	-1.340635300E0
1.529891730E0	-1.581917703E-1	2.167813182E-1	-1.355016351E0
1.532705183E0	-9.480853379E-2	2.519350350E-1	-1.372060657E0
1.534342884E0	-3.834952042E-2	2.673813701E-1	-1.394963861E0
1.536765260E0	9.054748341E-3	2.641855776E-1	-1.415736437E0
1.537990807E0	4.207794741E-2	2.482066154E-1	-1.430650115E0
1.540818836E0	5.912217870E-2	2.412824035E-1	-1.434378624E0
1.542361845E0	6.924218684E-2	2.231729031E-1	-1.444498658E0
1.544893221E0	7.456851006E-2	1.571265012E-1	-1.457281828E0
1.546155961E0	8.522115648E-2	7.403588295E-2	-1.475391269E0
1.548947183E0	1.054611802E-1	6.924218964E-3	-1.489772320E0
1.550209653E0	1.358212233E-1	-3.941478580E-2	-1.511077642E0
1.553043721E0	1.645833552E-1	-5.858954415E-2	-1.528654456E0
1.554330884E0	1.949433982E-1	-3.142530099E-2	-1.560079813E0
1.557132798E0	2.183792144E-1	-2.716424316E-2	-1.610147238E0
1.558709961E0	2.524676621E-1	-6.125270575E-2	-1.712412596E0
1.561193144E0	2.652508616E-1	-5.060006306E-2	-1.746501088E0
1.562453422E0	2.886866629E-1	-3.089267015E-2	-1.817873836E0
1.565247567E0	3.238403797E-1	-3.994741663E-2	-1.928661346E0
1.567155268E0	3.520699143E-1	-7.350324839E-2	-2.006425619E0
1.569305644E0	3.840278387E-1	-1.123853996E-1	-2.078863621E0
1.570632922E0	4.197141826E-1	-1.496696621E-1	-2.143844604E0
1.573359913E0	4.468784332E-1	-1.864212751E-1	-2.207760572E0
1.575036230E0	4.761732221E-1	-2.258360684E-1	-2.264219522E0
1.577421144E0	5.022721887E-1	-2.498045117E-1	-2.322276592E0
1.578671384E0	5.262406468E-1	-2.540655732E-1	-2.381931305E0
1.581475452E0	5.523396134E-1	-2.428802997E-1	-2.446912527E0
1.583173845E0	5.747101903E-1	-2.215750068E-1	-2.514024019E0
1.585535336E0	5.997439027E-1	-2.055960447E-1	-2.581135750E0
1.586859422E0	6.269081235E-1	-1.928128600E-1	-2.648247480E0
1.589589336E0	6.572681665E-1	-1.885518134E-1	-2.715359211E0
1.591062076E0	6.865629554E-1	-1.885518134E-1	-2.778209686E0
1.593675653E0	7.169229984E-1	-1.981391907E-1	-2.836799145E0
1.595012345E0	7.451524734E-1	-2.029328793E-1	-2.891127825E0
1.597810721E0	7.627293468E-1	-2.002697140E-1	-2.940662622E0
1.599426191E0	7.776430249E-1	-1.592570394E-1	-2.961435080E0
1.601871144E0	7.808388472E-1	-9.321063757E-2	-2.975816250E0
1.603212961E0	7.701861858E-1	-5.752427876E-2	-2.984338284E0
1.605925182E0	7.515440583E-1	-4.953479767E-2	-2.993925810E0
1.607971768E0	7.233145833E-1	-1.049285457E-1	-3.025351048E0
1.609994336E0	7.110640407E-1	-1.443433315E-1	-3.038666964E0
1.611230961E0	6.865629554E-1	-2.412824035E-1	-3.064233303E0
1.614048528E0	6.620618701E-1	-3.494067490E-1	-3.088201761E0
1.615652191E0	6.087986231E-1	-5.086637735E-1	-3.106843710E0
1.618123913E0	5.874933600E-1	-5.512743592E-1	-3.114833355E0
1.619418653E0	5.438175201E-1	-6.253102422E-1	-3.120159626E0
1.622177259E0	4.958806038E-1	-6.705839634E-1	-3.123355389E0
1.623817768E0	4.282363057E-1	-7.009440064E-1	-3.130279541E0
1.626238682E0	4.095941782E-1	-7.009440064E-1	-3.132410049E0
1.627550153E0	3.579288721E-1	-6.625944972E-1	-3.144128084E0
1.630292105E0	3.344930410E-1	-6.135923266E-1	-3.145193338E0
1.631578538E0	3.158509135E-1	-5.576659441E-1	-3.157443762E0
1.634387951E0	2.988066673E-1	-5.086637735E-1	-3.175553322E0
1.635673038E0	2.785666585E-1	-4.777711034E-1	-3.194195509E0
1.638475451E0	2.567287385E-1	-4.777711034E-1	-3.212305069E0
1.640063153E0	2.295644879E-1	-5.102616549E-1	-3.242665052E0
1.642549413E0	1.949433982E-1	-5.709817410E-1	-3.275688171E0
1.643855922E0	1.629854590E-1	-6.551376581E-1	-3.309776783E0
1.646603182E0	1.209075153E-1	-7.515440583E-1	-3.349191427E0
1.648734461E0	7.882957160E-2	-8.426241875E-1	-3.388073683E0
1.650670336E0	4.048004746E-2	-9.171926975E-1	-3.434412718E0
1.651986538E0	-8.522115648E-3	-9.715211987E-1	-3.480751514E0
1.654723990E0	-5.912217870E-2	-1.008272767E0	-3.524427414E0
1.656309768E0	-1.075917110E-1	-1.032241225E0	-3.561711788E0
1.658784413E0	-1.523328125E-1	-1.041296005E0	-3.604854822E0
1.660110768E0	-1.949433982E-1	-1.023186564E0	-3.646932840E0
1.662838182E0	-2.375539690E-1	-9.795106649E-1	-3.692206621E0
1.664452076E0	-2.743056118E-1	-9.347695708E-1	-3.735349894E0
1.666912605E0	-3.169161677E-1	-8.633968234E-1	-3.779025555E0
1.668204076E0	-3.659183383E-1	-7.787083387E-1	-3.822168827E0
1.670966797E0	-4.170510471E-1	-6.812366247E-1	-3.875432014E0
1.672452191E0	-4.697816372E-1	-5.779059529E-1	-3.924434185E0
1.675019182E0	-5.230448246E-1	-4.772384763E-1	-3.971838474E0
1.676267076E0	-5.880259871E-1	-3.914846778E-1	-4.014449120E0
1.679072682E0	-6.641923785E-1	-3.110572100E-1	-4.049070358E0
1.680823884E0	-8.048073053E-1	-2.130528986E-1	-4.096474648E0
1.683112528E0	-8.570052385E-1	-1.773665249E-1	-4.116181850E0
1.684364345E0	-9.645969868E-1	-1.155811921E-1	-4.142281055E0
1.687165567E0	-1.068460226E0	-6.764429063E-2	-4.160923004E0
1.689390999E0	-1.236239433E0	8.522115648E-3	-4.192348480E0
1.691188913E0	-1.293763638E0	4.048004746E-2	-4.200337887E0
1.692745499E0	-1.408279657E0	1.038632840E-1	-4.215784073E0
1.695242836E0	-1.571797729E0	2.290318608E-1	-4.228567123E0
1.697063153E0	-1.672997832E0	3.126551211E-1	-4.240818024E0
1.699270605E0	-1.768871665E0	4.010720551E-1	-4.252535820E0
1.700708268E0	-1.856755972E0	4.985437691E-1	-4.273840904E0
1.703323682E0	-1.937716007E0	5.922870636E-1	-4.288221836E0
1.704893076E0	-2.003229856E0	7.030745149E-1	-4.295146465E0
1.707383836E0	-2.075135231E0	8.596684337E-1	-4.267982006E0
1.708656461E0	-2.150768995E0	1.061536074E0	-4.237621784E0
1.711437836E0	-2.225337505E0	1.268729925E0	-4.220577717E0
1.712900384E0	-2.287122726E0	1.480717540E0	-4.220577717E0
1.715549797E0	-2.340385914E0	1.666073561E0	-4.221110344E0
1.716822153E0	-2.393116713E0	1.822667480E0	-4.227501869E0
1.719639297E0	-2.436259747E0	1.948368669E0	-4.237621784E0
1.721331499E0	-2.485794544E0	2.067678213E0	-4.246144295E0
1.723700682E0	-2.524144173E0	2.187520504E0	-4.239752769E0
1.724965768E0	-2.561960936E0	2.298840761E0	-4.199805260E0
1.727755643E0	-2.601375818E0	2.383529186E0	-4.130030155E0
1.729479153E0	-2.654106379E0	2.469815731E0	-4.064516544E0
1.731799643E0	-2.723348618E0	2.555569410E0	-4.004329205E0
1.733169999E0	-2.812830687E0	2.647714853E0	-3.945739508E0
1.735853951E0	-2.910302401E0	2.748914957E0	-3.894606829E0
1.737480538E0	-3.031209946E0	2.874616146E0	-3.851463556E0
1.739930490E0	-3.179281712E0	2.998186827E0	-3.817375183E0
1.741175038E0	-3.279949188E0	3.033873081E0	-3.783286810E0
1.743985374E0	-3.344397783E0	2.999252081E0	-3.755589724E0
1.745559499E0	-3.521231651E0	3.070092201E0	-3.732686758E0
1.748045874E0	-3.591006517E0	3.112702847E0	-3.730023384E0
1.749381614E0	-3.738545656E0	3.238404036E0	-3.734284639E0
1.752100566E0	-3.880758524E0	3.355050325E0	-3.739610910E0
1.753542691E0	-4.077832222E0	3.489273787E0	-3.746002436E0
1.756108230E0	-4.149737835E0	3.522296906E0	-3.752926588E0
1.757391961E0	-4.270112514E0	3.621899128E0	-3.766242504E0
1.760207489E0	-4.389422417E0	3.723099232E0	-3.763579369E0
1.761879230E0	-4.551342487E0	3.848800421E0	-3.749198198E0
1.764282682E0	-4.641357422E0	3.915912151E0	-3.724697113E0
1.765537807E0	-4.713262558E0	4.003263950E0	-3.688478231E0
1.768337259E0	-4.754807949E0	4.067179680E0	-3.642671824E0
1.770476961E0	-4.780906677E0	4.158259869E0	-3.575560093E0
1.772389336E0	-4.768656254E0	4.233893394E0	-3.499926329E0
1.773666730E0	-4.728708744E0	4.270112514E0	-3.422694683E0
1.776442797E0	-4.649346828E0	4.255198956E0	-3.342267275E0
1.777953768E0	-4.526841164E0	4.196609497E0	-3.294862986E0
1.780502143E0	-4.360660076E0	4.069310188E0	-3.250654459E0
1.781723268E0	-4.163586140E0	3.862116337E0	-3.199521780E0
1.784555605E0	-3.936152220E0	3.525492668E0	-3.131877422E0
1.786681384E0	-3.558516026E0	2.812830687E0	-2.974750996E0
1.788585374E0	-3.426423073E0	2.502838850E0	-2.904443502E0
1.790083345E0	-3.148921728E0	1.750229478E0	-2.726544380E0
1.792639105E0	-2.877811909E0	8.841695189E-1	-2.521481037E0
1.794035114E0	-2.622148514E0	-5.326322280E-3	-2.286590099E0
1.796735028E0	-2.389920712E0	-8.847021461E-1	-2.036785603E0
1.798073999E0	-2.187520504E0	-1.741174698E0	-1.782720089E0
1.800823528E0	-2.013349771E0	-2.520948410E0	-1.545166135E0
1.802410730E0	-1.870604396E0	-3.195793390E0	-1.329982638E0
1.804884682E0	-1.756088495E0	-3.769438267E0	-1.148887753E0
1.806109614E0	-1.671399951E0	-4.228034496E0	-9.917612076E-1
1.808938835E0	-1.608016729E0	-4.591289997E0	-8.665926456E-1
1.810802191E0	-1.536111355E0	-4.983839989E0	-7.472830415E-1
1.812996605E0	-1.523328185E0	-5.074387074E0	-7.217166424E-1
1.814377884E0	-1.484446049E0	-5.217132568E0	-6.801713705E-1
1.817050374E0	-1.468466997E0	-5.210741043E0	-6.476807594E-1
1.818612999E0	-1.457814455E0	-5.025384903E0	-5.912217498E-1
1.821111412E0	-1.445563912E0	-4.943359852E0	-5.661880374E-1
1.822429230E0	-1.423193336E0	-4.756405830E0	-5.230448246E-1
1.825164643E0	-1.410942793E0	-4.511927605E0	-4.788363874E-1
1.826893614E0	-1.358212233E0	-4.048537731E0	-4.314320982E-1
1.829224412E0	-1.311340570E0	-3.673031807E0	-3.888215125E-1
1.830565076E0	-1.198955178E0	-3.310309410E0	-3.350256681E-1
1.833277605E0	-1.067394972E0	-2.978479385E0	-2.918824553E-1
1.834719961E0	-9.539443254E-1	-2.639192581E0	-2.311623842E-1
1.837345681E0	-8.399610519E-1	-2.307362795E0	-1.768338978E-1
1.838618422E0	-7.190535069E-1	-1.988848686E0	-1.272991002E-1
1.841398489E0	-6.258428693E-1	-1.645300984E0	-9.853696078E-2
1.842974691E0	-5.145227313E-1	-1.326254249E0	-7.137271762E-2
1.845457912E0	-3.898867965E-1	-1.051416039E0	-5.166532472E-2
1.846683807E0	-2.812298238E-1	-7.877630591E-1	-2.769687586E-2
1.849511412E0	-1.677791476E-1	-5.347627401E-1	1.225054078E-2
1.851195999E0	-5.273059011E-2	-2.865561247E-1	5.273059011E-2
1.853564374E0	4.048004746E-2	-4.953479767E-2	1.049285457E-1
1.854808037E0	1.235706806E-1	1.587243974E-1	1.539307088E-1
1.857618297E0	1.970739216E-1	3.286340833E-1	2.013349831E-1
1.859175499E0	2.631203234E-1	4.692489803E-1	2.471413612E-1
1.861693681E0	3.296993375E-1	5.715143681E-1	2.860234976E-1
1.863004422E0	3.728425503E-1	6.530070901E-1	3.307646215E-1
1.865746874E0	3.989415467E-1	7.142598033E-1	3.733751774E-1
1.867425153E0	4.085289240E-1	7.680556774E-1	4.229099751E-1
1.869805951E0	4.314320982E-1	8.623315692E-1	5.235774517E-1
1.871011807E0	4.426173866E-1	9.193232059E-1	5.997439027E-1
1.873859989E0	4.447479248E-1	9.326390028E-1	6.540724039E-1
1.875235922E0	4.298342168E-1	9.198558331E-1	6.860303283E-1
1.877956412E0	4.069310129E-1	8.868326545E-1	6.860303283E-1
1.879213537E0	3.771036267E-1	8.191883564E-1	6.562029123E-1
1.882044374E0	3.515372574E-1	7.243798375E-1	5.981460214E-1
1.883628576E0	3.163835406E-1	5.528722405E-1	4.623247683E-1
1.886119027E0	3.014698327E-1	4.916195571E-1	4.085289240E-1
1.887564384E0	2.780340314E-1	3.717772961E-1	3.014698327E-1
1.890172835E0	2.455434501E-1	2.492718846E-1	1.944107562E-1
1.891893499E0	1.928128600E-1	7.456851006E-2	6.657902896E-2
1.894231950E0	1.560612470E-1	-4.101268202E-2	7.989482954E-3
1.895494922E0	1.187769845E-1	-1.470064968E-1	-3.994741663E-2
1.898285374E0	8.096009493E-2	-2.332929224E-1	-8.149272949E-2
1.899829230E0	3.621899337E-2	-3.121224940E-1	-1.187769845E-1
1.902345758E0	-5.858954508E-3	-3.760383427E-1	-1.640507281E-1
1.903594307E0	-5.113269389E-2	-4.255731404E-1	-2.215750068E-1
1.906399258E0	-1.006674916E-1	-4.580637217E-1	-3.014698327E-1
1.907937807E0	-1.565938741E-1	-4.681837261E-1	-3.888215125E-1
1.910391191E0	-2.162486911E-1	-4.394215941E-1	-4.793690145E-1
1.911739076E0	-2.838929892E-1	-3.813646734E-1	-5.853627920E-1
1.914529027E0	-3.536677957E-1	-3.147856593E-1	-6.892260909E-1
1.915964076E0	-4.138552547E-1	-2.412824035E-1	-7.882956862E-1
1.918580335E0	-4.751079381E-1	-1.368864775E-1	-8.751147389E-1
1.920042537E0	-5.262406468E-1	-7.456851192E-3	-9.443569183E-1
1.922634181E0	-5.629922748E-1	1.075917110E-1	-9.944243431E-1
1.924357307E0	-5.928196907E-1	2.146507949E-1	-1.040763378E0
1.926694681E0	-5.986786485E-1	3.222424984E-1	-1.061003447E0
1.928029268E0	-5.789712071E-1	4.229099751E-1	-1.071123362E0
1.930746912E0	-5.581985712E-1	5.214469433E-1	-1.078580260E0
1.932470037E0	-5.193164349E-1	6.317018270E-1	-1.072188616E0
1.934810027E0	-4.804342687E-1	7.392935157E-1	-1.068460226E0
1.936245191E0	-4.197141826E-1	8.319715261E-1	-1.056742311E0
1.938863450E0	-3.648530841E-1	9.363674521E-1	-1.043959141E0
1.940393691E0	-3.004045784E-1	1.039698124E0	-1.029045463E0
1.942922758E0	-2.274339646E-1	1.136104584E0	-1.011468649E0
1.944155499E0	-1.709749401E-1	1.214401484E0	-9.938917160E-1
1.946976219E0	-1.054611802E-1	1.281513095E0	-9.837717414E-1
1.948544230E0	-1.491370238E-2	1.389104843E0	-9.773801565E-1
1.951035566E0	1.438106969E-2	1.417334318E0	-9.693906307E-1
1.952379114E0	6.285060197E-2	1.476456523E0	-9.512811303E-1
1.955088527E0	1.075917110E-1	1.527589202E0	-9.379653335E-1
1.956697922E0	1.395496428E-1	1.572330356E0	-9.262474179E-1
1.959200373E0	1.624528319E-1	1.611745119E0	-9.070726633E-1
1.960505999E0	1.890844405E-1	1.656486273E0	-8.671252728E-1
1.963289373E0	2.024002522E-1	1.677258849E0	-8.277105093E-1
1.964846460E0	2.082591951E-1	1.698031545E0	-7.797735929E-1
1.967349450E0	2.119876295E-1	1.707618952E0	-7.249124646E-1
1.968597037E0	2.066612989E-1	1.716673613E0	-6.636597514E-1
1.971403296E0	1.981391907E-1	1.719869494E0	-6.077333689E-1
1.973118768E0	1.800296903E-1	1.710814714E0	-5.496764779E-1
1.975454373E0	1.592570394E-1	1.688976765E0	-4.868258536E-1
1.976753999E0	1.278317273E-1	1.642105103E0	-4.261057973E-1
1.979507450E0	8.309062570E-2	1.556351423E0	-3.669835925E-1
1.981313268E0	3.036003746E-2	1.442368031E0	-3.099919558E-1
1.983582142E0	-3.728425503E-2	1.300155282E0	-2.535329461E-1
1.984816999E0	-1.155811921E-1	1.138767719E0	-2.130528986E-1
1.987635142E0	-2.013349831E-1	9.645969868E-1	-1.693770438E-1
1.989250460E0	-2.924150825E-1	7.824367285E-1	-1.331580579E-1
1.991693527E0	-3.808320463E-1	5.933523178E-1	-1.038632840E-1
1.992919191E0	-4.639226794E-1	4.021373391E-1	-7.936219871E-2
1.995746565E0	-5.379585624E-1	2.183792144E-1	-5.486112088E-2
1.997144653E0	-5.768406987E-1	4.740426689E-2	-3.728425503E-2
1.999865950E0	-5.613943934E-1	-1.187769845E-1	-6.072007492E-2
2.001132345E0	-4.857605994E-1	-2.860234976E-1	-1.315601617E-1
2.003954065E0	-3.675162494E-1	-4.362258017E-1	-2.359560728E-1
2.005578845E0	-1.992044598E-1	-6.535397172E-1	-4.101268053E-1
2.008029681E0	-1.603222936E-1	-7.201187611E-1	-4.639226794E-1
2.009339345E0	-1.288969964E-1	-8.309062719E-1	-5.693838596E-1
2.012083565E0	-1.693770438E-1	-9.060074091E-1	-6.546050310E-1
2.014493565E0	-3.776362538E-1	-9.571400881E-1	-7.685883045E-1
2.016137065E0	-4.740426838E-1	-9.640643597E-1	-8.010788560E-1
2.017417999E0	-6.934871674E-1	-9.635316730E-1	-8.575378656E-1
2.020190527E0	-9.305084944E-1	-9.491506219E-1	-9.012137055E-1
2.021722807E0	-1.266066790E0	-9.134642482E-1	-9.677927494E-1
2.024250719E0	-1.463140726E0	-8.602010608E-1	-1.003479123E0
2.025464691E0	-1.618669391E0	-7.797735929E-1	-1.038632870E0
2.028303835E0	-1.726793647E0	-6.705839634E-1	-1.078580260E0
2.030282576E0	-1.772600055E0	-5.097290277E-1	-1.116397142E0
2.032379027E0	-1.764610529E0	-3.195793331E-1	-1.168062449E0
2.033641076E0	-1.707086325E0	-1.166464612E-1	-1.234641552E0
2.036432796E0	-1.615473509E0	8.841694891E-2	-1.310275316E0
2.037821230E0	-1.492435455E0	2.870887816E-1	-1.392300606E0
2.040528681E0	-1.365669012E0	4.644553065E-1	-1.465803862E0
2.041994076E0	-1.236239433E0	6.226470470E-1	-1.544633508E0
2.044616565E0	-1.102016091E0	7.616640925E-1	-1.619202018E0
2.046220960E0	-9.779127836E-1	8.873652816E-1	-1.665008307E0
2.048675142E0	-8.607336879E-1	9.965549111E-1	-1.687378883E0
2.049954230E0	-7.558051348E-1	1.067394972E0	-1.694303155E0
2.052728488E0	-6.615292430E-1	1.109472990E0	-1.688444138E0
2.054716076E0	-5.741775632E-1	1.132908702E0	-1.681519985E0
2.056786488E0	-4.884237647E-1	1.147289872E0	-1.666606188E0
2.058033730E0	-4.079962969E-1	1.137169838E0	-1.657018900E0
2.060839681E0	-3.291667104E-1	1.106809735E0	-1.641039848E0
2.062632230E0	-2.545982003E-1	1.066329718E0	-1.631452560E0
2.064898604E0	-1.768338978E-1	1.020523310E0	-1.613875628E0
2.066171845E0	-1.049285457E-1	9.624664187E-1	-1.605353594E0
2.068951488E0	-3.515372798E-2	9.028116465E-1	-1.597364068E0
2.070564614E0	5.752427876E-2	8.005462289E-1	-1.582450390E0
2.073010334E0	8.575379103E-2	7.669904232E-1	-1.580319762E0
2.074311460E0	1.395496428E-1	7.036072016E-1	-1.569134593E0
2.077063411E0	1.880191714E-1	6.402239203E-1	-1.556351423E0
2.078430999E0	2.530003190E-1	5.518069863E-1	-1.539839745E0
2.081193642E0	2.737729549E-1	5.262406468E-1	-1.535578728E0
2.082451153E0	3.227751255E-1	4.511395097E-1	-1.520665050E0
2.085282527E0	3.488741219E-1	4.085289240E-1	-1.510012388E0
2.086843383E0	3.728425503E-1	3.765709996E-1	-1.494566083E0
2.089322911E0	3.888215125E-1	3.515372574E-1	-1.477521777E0
2.090565114E0	4.042678475E-1	3.286340833E-1	-1.470064998E0
2.093376642E0	4.181163013E-1	3.153182864E-1	-1.471662879E0
2.095280230E0	4.356931746E-1	3.067961633E-1	-1.472195506E0
2.097428911E0	4.554005563E-1	3.078614175E-1	-1.474326015E0
2.098979268E0	4.751079381E-1	3.030677438E-1	-1.476989150E0
2.101482104E0	4.894890189E-1	2.924150825E-1	-1.480717540E0
2.103125345E0	5.028048158E-1	2.764361203E-1	-1.470597625E0
2.105523334E0	5.139901042E-1	2.593919039E-1	-1.444498658E0
2.106794191E0	5.187838078E-1	2.316950262E-1	-1.409877539E0
2.109575988E0	5.139901042E-1	1.928128600E-1	-1.375256419E0
2.111119614E0	5.054680109E-1	1.443433315E-1	-1.338504791E0
2.113636219E0	5.044026971E-1	1.241033077E-1	-1.361407995E0
2.114904806E0	4.932174385E-1	1.049285457E-1	-1.384311199E0
2.117689027E0	4.740426838E-1	8.681905270E-2	-1.381115317E0
2.118973806E0	4.490089715E-1	6.870955974E-2	-1.368332148E0
2.121787142E0	4.181163013E-1	5.379585549E-2	-1.347559571E0
2.123073037E0	3.802994192E-1	3.834952042E-2	-1.333711147E0
2.125874911E0	3.307646215E-1	5.858954508E-3	-1.324123740E0
2.127461268E0	2.780340314E-1	-3.888215125E-2	-1.330515265E0
2.129949373E0	2.178465873E-1	-8.202536404E-2	-1.340635300E0
2.131292922E0	1.645833552E-1	-1.241033077E-1	-1.350755334E0
2.134003219E0	1.043959185E-1	-1.661812514E-1	-1.355548978E0
2.136002230E0	2.290318534E-2	-2.247707993E-1	-1.349690080E0
2.138057488E0	-3.728425596E-3	-2.487392575E-1	-1.346494317E0
2.139543383E0	-4.793690145E-2	-2.993393242E-1	-1.324656367E0
2.142110834E0	-9.001484513E-2	-3.632551730E-1	-1.301753163E0
2.143667037E0	-1.315601617E-1	-4.761732221E-1	-1.245294094E0
2.146170796E0	-1.395496428E-1	-5.107942820E-1	-1.221325755E0
2.147425037E0	-1.427454352E-1	-5.954828262E-1	-1.155279279E0
2.150224180E0	-1.693770438E-1	-7.542072535E-1	-1.022121191E0
2.151832576E0	-1.033306494E-1	-8.245146871E-1	-9.060074091E-1
2.154264922E0	-7.403588295E-2	-8.942894936E-1	-7.749798894E-1
2.155737537E0	-1.651159860E-2	-9.576727748E-1	-6.231797338E-1
2.158320488E0	4.474110901E-2	-1.021055937E0	-4.554005563E-1
2.159744999E0	1.022653878E-1	-1.087635040E0	-2.737729549E-1
2.162424219E0	1.544633508E-1	-1.140898228E0	-8.042746782E-2
2.163713037E0	2.157160491E-1	-1.176051974E0	1.209075153E-1
2.166512719E0	2.780340314E-1	-1.199487805E0	3.153182864E-1
2.168122345E0	3.744404614E-1	-1.190965652E0	4.724447727E-1
2.170572334E0	4.655205607E-1	-1.177117229E0	6.652576327E-1
2.172242383E0	5.704491138E-1	-1.146757245E0	8.575378656E-1
2.174625488E0	6.812366247E-1	-1.105211854E0	1.037034988E0
2.176306768E0	7.893609405E-1	-1.058340192E0	1.201618314E0
2.178683296E0	9.006810784E-1	-1.005077004E0	1.348092198E0
2.180031383E0	1.005609632E0	-9.486179948E-1	1.476989150E0
2.182735949E0	1.120125532E0	-8.932242393E-1	1.586711407E0
2.184340653E0	1.221325755E0	-8.330367804E-1	1.671932578E0
2.186795180E0	1.300687909E0	-7.792409658E-1	1.742240071E0
2.188102230E0	1.366201639E0	-7.344998717E-1	1.793905377E0
2.190847949E0	1.424791217E0	-6.881608367E-1	1.840776920E0
2.192661230E0	1.467401743E0	-6.359629035E-1	1.882322311E0
2.194906103E0	1.494033456E0	-5.912217498E-1	1.918008685E0
2.196212883E0	1.510012388E0	-5.661880374E-1	1.940911889E0
2.198959257E0	1.520665050E0	-5.550028086E-1	1.922802329E0
2.200257576E0	1.520132422E0	-5.693838596E-1	1.888713837E0
2.203070142E0	1.512142897E0	-5.981460214E-1	1.864212751E0
2.204334845E0	1.497229218E0	-6.130596995E-1	1.826395869E0
2.207159103E0	1.472728133E0	-5.965480804E-1	1.774197936E0
2.208781960E0	1.411475420E0	-5.587311983E-1	1.674063087E0
2.211219795E0	1.365669012E0	-5.597964525E-1	1.576058745E0
2.212947499E0	1.317732096E0	-6.002765298E-1	1.464205980E0
2.215273218E0	1.257544637E0	-6.551376581E-1	1.331580520E0
2.216986037E0	1.193628788E0	-7.275756001E-1	1.185639381E0
2.219315488E0	1.119060278E0	-8.314388990E-1	1.024784446E0
2.220531306E0	1.044491768E0	-9.432916641E-1	8.607336879E-1
2.223368642E0	9.725864530E-1	-1.062601328E0	7.030745149E-1
2.224957229E0	8.990831971E-1	-1.186172009E0	5.571333170E-1
2.227442565E0	8.234494328E-1	-1.318264723E0	4.197141826E-1
2.228768691E0	7.462177277E-1	-1.452488065E0	3.004045784E-1
2.231495795E0	6.721818447E-1	-1.573395610E0	1.874865443E-1
2.233156883E0	6.199839115E-1	-1.671399951E0	9.108011425E-2
2.235555911E0	5.779059529E-1	-1.740109444E0	1.118527725E-2
2.236795691E0	5.390238166E-1	-1.785915852E0	-5.699164793E-2
2.239608911E0	4.990763962E-1	-1.805623293E0	-1.102548689E-1
2.241007768E0	4.644553065E-1	-1.799764276E0	-1.486043930E-1
2.243724795E0	4.255731404E-1	-1.764077902E0	-1.778991669E-1
2.245044153E0	3.925499618E-1	-1.707086325E0	-1.965412945E-1
2.247813641E0	3.573962152E-1	-1.630919933E0	-2.045307755E-1
2.249462806E0	3.259709179E-1	-1.549427152E0	-2.109223604E-1
2.251887449E0	2.876214087E-1	-1.450357556E0	-2.130528986E-1
2.253183191E0	2.530003190E-1	-1.339037418E0	-2.114549875E-1
2.255940949E0	2.167813182E-1	-1.221325755E0	-2.167813182E-1
2.258047999E0	1.699096859E-1	-1.028512836E0	-2.178465873E-1
2.259994141E0	1.549959779E-1	-9.656622410E-1	-2.253034264E-1
2.261215691E0	1.368864775E-1	-8.399610519E-1	-2.375539690E-1
2.264047641E0	1.203748807E-1	-7.099987864E-1	-2.450108230E-1
2.265593614E0	1.107875034E-1	-5.257080197E-1	-2.652508616E-1
2.268107334E0	1.081243455E-1	-4.681837261E-1	-2.689792812E-1
2.269310768E0	1.097222418E-1	-3.605920076E-1	-2.801645398E-1
2.272161526E0	1.134506613E-1	-2.647182047E-1	-2.881540358E-1
2.273722229E0	1.294296384E-1	-1.336906850E-1	-2.961435318E-1
2.276236641E0	1.459412277E-1	-6.231797114E-2	-2.982740402E-1
2.277498076E0	1.603222936E-1	3.728425596E-3	-2.993393242E-1
2.280290641E0	1.773665249E-1	6.338323653E-2	-3.020024598E-1
2.281567614E0	1.992044598E-1	1.171790883E-1	-3.004045784E-1
2.284387257E0	2.205097377E-1	1.693770438E-1	-2.934803665E-1
2.285916768E0	2.380866110E-1	2.151834220E-1	-2.838929892E-1
2.288474949E0	2.567287385E-1	2.519350350E-1	-2.689792812E-1
2.290121499E0	2.769687474E-1	2.822950780E-1	-2.545982003E-1
2.292534757E0	2.876214087E-1	3.089267015E-1	-2.380866110E-1
2.293973345E0	2.956108749E-1	3.254382908E-1	-2.247707993E-1
2.296588987E0	3.046656251E-1	3.392867148E-1	-2.082591951E-1
2.298273768E0	3.158509135E-1	3.488741219E-1	-1.960086524E-1
2.300655757E0	3.190467060E-1	3.595267534E-1	-1.842907518E-1
2.301922691E0	3.163835406E-1	3.627225459E-1	-1.805623323E-1
2.304708910E0	3.046656251E-1	3.643204570E-1	-1.768338978E-1
2.306301037E0	2.918824553E-1	3.637878001E-1	-1.800296903E-1
2.308768257E0	2.753708661E-1	3.573962152E-1	-1.853560209E-1
2.310101806E0	2.498045117E-1	3.472762108E-1	-1.885518134E-1
2.312822103E0	2.215750068E-1	3.355582952E-1	-1.928128600E-1
2.314457268E0	1.896170676E-1	3.163835406E-1	-1.992044598E-1
2.316881795E0	1.592570394E-1	2.966761589E-1	-2.061286718E-1
2.318144806E0	1.278317273E-1	2.732403278E-1	-2.087918371E-1
2.320936487E0	9.427590668E-2	2.450108230E-1	-2.130528986E-1
2.322431422E0	6.498113275E-2	2.071939409E-1	-2.210423797E-1
2.325068218E0	3.302319720E-2	1.683117896E-1	-2.327602804E-1
2.326471614E0	3.728425596E-3	1.336906850E-1	-2.450108230E-1
2.329157756E0	-3.089267015E-2	9.534116834E-2	-2.561961114E-1
2.330733114E0	-8.096009493E-2	4.261057824E-2	-2.753708661E-1
2.333220064E0	-1.177117229E-1	1.171790902E-2	-2.956108749E-1
2.334452422E0	-1.507349163E-1	-1.864212751E-2	-3.115898669E-1
2.337274564E0	-1.837581247E-1	-5.006742850E-2	-3.249056637E-1
2.339084883E0	-2.109223604E-1	-8.255799860E-2	-3.360909224E-1
2.341343718E0	-2.332929224E-1	-1.145159304E-1	-3.456783295E-1
2.342539999E0	-2.482066154E-1	-1.448759735E-1	-3.579288721E-1
2.345397872E0	-2.625876963E-1	-1.640507281E-1	-3.621899188E-1
2.347096306E0	-2.711097896E-1	-1.752360016E-1	-3.701793849E-1
2.349472872E0	-2.828277051E-1	-1.800296903E-1	-3.696467578E-1
2.350786345E0	-2.977414131E-1	-1.709749401E-1	-3.664509654E-1
2.353526872E0	-3.121224940E-1	-1.629854590E-1	-3.557983339E-1
2.355518191E0	-3.238403797E-1	-1.544633508E-1	-3.414172530E-1
2.357586487E0	-3.350256681E-1	-1.533980817E-1	-3.233077526E-1
2.358869076E0	-3.440804183E-1	-1.629854590E-1	-3.099919558E-1
2.361641026E0	-3.456783295E-1	-1.821602285E-1	-2.908172011E-1
2.362895306E0	-3.451456726E-1	-2.039981484E-1	-2.737729549E-1
2.365738949E0	-3.376888335E-1	-2.210423797E-1	-2.551308274E-1
2.367019037E0	-3.265035450E-1	-2.391518652E-1	-2.348908186E-1
2.369827756E0	-3.169161677E-1	-2.487392575E-1	-2.189118415E-1
2.371452229E0	-3.014698327E-1	-2.519350350E-1	-2.018676102E-1
2.373902526E0	-2.860234976E-1	-2.503371537E-1	-1.858886480E-1
2.375277383E0	-2.673813701E-1	-2.412824035E-1	-1.693770438E-1
2.377957179E0	-2.482066154E-1	-2.226402760E-1	-1.491370201E-1
2.379678806E0	-2.258360684E-1	-1.960086524E-1	-1.139832959E-1
2.382018026E0	-2.194444835E-1	-1.880191714E-1	-1.043959185E-1
2.383250999E0	-2.055960447E-1	-1.715075821E-1	-7.723167539E-2
2.386073256E0	-1.890844405E-1	-1.565938741E-1	-4.687163606E-2
2.387612152E0	-1.731054783E-1	-1.358212233E-1	-4.793690052E-3
2.390134987E0	-1.699096859E-1	-1.310275346E-1	8.522115648E-3
2.391332806E0	-1.613875628E-1	-1.203748807E-1	3.781688958E-2
2.394190102E0	-1.533980817E-1	-1.107875034E-1	8.309062570E-2
2.395922883E0	-1.549959779E-1	-1.097222418E-1	1.166464612E-1
2.398247768E0	-1.544633508E-1	-1.107875034E-1	1.459412277E-1
2.399470806E0	-1.555286050E-1	-1.166464612E-1	1.741707325E-1
2.402319910E0	-1.549959779E-1	-1.214401498E-1	2.077265680E-1
2.403666268E0	-1.491370201E-1	-1.288969964E-1	2.348908186E-1
2.406301152E0	-1.454086006E-1	-1.358212233E-1	2.561961114E-1
2.407632229E0	-1.390170157E-1	-1.390170157E-1	2.753708661E-1
2.410505948E0	-1.272991002E-1	-1.475391239E-1	2.956108749E-1
2.412041460E0	-1.177117229E-1	-1.486043930E-1	3.147856593E-1
2.414567256E0	-1.070590764E-1	-1.560612470E-1	3.302319944E-1
2.415752345E0	-9.108011425E-2	-1.581917703E-1	3.440804183E-1
2.418622179E0	-7.297061384E-2	-1.475391239E-1	3.531351686E-1
2.420423460E0	-5.432848632E-2	-1.358212233E-1	3.552657068E-1
2.422689872E0	-3.249056637E-2	-1.171790883E-1	3.579288721E-1
2.423904652E0	-1.331580617E-2	-9.960222989E-2	3.520699143E-1
2.426745102E0	-1.597896684E-3	-7.829693705E-2	3.547330499E-1
2.428275383E0	5.858954508E-3	-5.699164793E-2	3.520699143E-1
2.430806064E0	1.065264456E-2	-2.876213938E-2	3.515372574E-1
2.432004729E0	1.012001187E-2	3.728425596E-3	3.515372574E-1
2.434860448E0	1.384843793E-2	5.060006306E-2	3.504720032E-1
2.436381499E0	1.491370238E-2	1.065264493E-1	3.515372574E-1
2.438921833E0	1.278317347E-2	1.747033745E-1	3.584614992E-1
2.440193422E0	1.278317347E-2	2.487392575E-1	3.659183383E-1
2.442977295E0	4.793690052E-3	3.339604139E-1	3.659183383E-1
2.444257883E0	1.065264456E-3	4.229099751E-1	3.717772961E-1
2.447090102E0	-7.456851192E-3	5.155879855E-1	3.824299276E-1
2.448347768E0	-1.597896591E-2	6.061354876E-1	3.973436356E-1
2.451179794E0	-3.195793182E-2	7.238472104E-1	4.314320982E-1
2.452735575E0	-4.261057824E-2	7.882956862E-1	4.660531878E-1
2.455241679E0	-5.273059011E-2	8.367652297E-1	5.049353242E-1
2.456548037E0	-6.338323653E-2	8.692557812E-1	5.523396134E-1
2.459295756E0	-6.977482140E-2	8.815063238E-1	5.965480804E-1
2.460973306E0	-7.563377917E-2	8.751147389E-1	6.471481323E-1
2.463347025E0	-8.362326026E-2	8.415589333E-1	7.030745149E-1
2.464620922E0	-8.628641814E-2	7.856325507E-1	7.600662112E-1
2.467401910E0	-8.681905270E-2	7.062703371E-1	8.117315173E-1
2.468914499E0	-7.989483327E-2	6.087986231E-1	8.623315692E-1
2.471477833E0	-7.403588295E-2	4.990763962E-1	8.362326026E-1
2.472650768E0	-5.326322466E-2	3.850930929E-1	7.733820081E-1
2.475532102E0	-3.994741663E-2	2.684466541E-1	7.185208797E-1
2.477123537E0	-2.556634694E-2	1.555286050E-1	6.695187092E-1
2.479530999E0	-3.728425596E-3	4.953479767E-2	6.242449880E-1
2.480785883E0	1.970739290E-2	-4.793690145E-2	5.922870636E-1
2.483615602E0	5.273059011E-2	-1.438107044E-1	5.581985712E-1
2.485058268E0	8.415589482E-2	-2.226402760E-1	5.230448246E-1
2.487729102E0	1.139832959E-1	-3.020024598E-1	4.942827225E-1
2.489002999E0	1.464738697E-1	-3.776362538E-1	4.830974340E-1
2.491817794E0	1.731054783E-1	-4.447479248E-1	4.697816372E-1
2.493422114E0	1.981391907E-1	-5.038700700E-1	4.617921412E-1
2.495873025E0	2.194444835E-1	-5.502091050E-1	4.628573954E-1
2.497465460E0	2.370213419E-1	-5.917543769E-1	4.671184719E-1
2.499927217E0	2.455434501E-1	-6.285060048E-1	4.777711034E-1
2.501924422E0	2.524676621E-1	-6.673882008E-1	4.948153496E-1
2.503981756E0	2.551308274E-1	-6.764429212E-1	5.049353242E-1
2.505312960E0	2.524676621E-1	-6.870955825E-1	5.187838078E-1
2.508036025E0	2.572613657E-1	-6.769755483E-1	5.416869521E-1
2.509595575E0	2.609897852E-1	-6.546050310E-1	5.800365210E-1
2.512096602E0	2.593919039E-1	-6.428871155E-1	5.901564956E-1
2.513346999E0	2.583266199E-1	-6.151902080E-1	6.151902080E-1
2.516150371E0	2.503371537E-1	-5.544701219E-1	6.348975897E-1
2.517839960E0	2.380866110E-1	-5.070658922E-1	6.434197426E-1
2.520226140E0	2.354234457E-1	-4.580637217E-1	6.508765817E-1
2.521504768E0	2.263686955E-1	-4.074636400E-1	6.588660479E-1
2.524280794E0	2.215750068E-1	-3.536677957E-1	6.631271243E-1
2.525554498E0	2.178465873E-1	-3.009372056E-1	6.578007936E-1
2.528377640E0	2.157160491E-1	-2.434129268E-1	6.492787004E-1
2.529642383E0	2.178465873E-1	-1.901497096E-1	6.391586661E-1
2.532466640E0	2.167813182E-1	-1.342233270E-1	6.253102422E-1
2.534177075E0	2.189118415E-1	-8.042746782E-2	6.114618182E-1
2.536527410E0	2.194444835E-1	-2.929477207E-2	6.013417840E-1
2.538168191E0	2.135855258E-1	2.237055451E-2	5.896238685E-1
2.540581794E0	2.039981484E-1	6.977482140E-2	5.784385800E-1
2.542297537E0	1.992044598E-1	1.059938148E-1	5.656554103E-1
2.544646448E0	1.874865443E-1	1.454086006E-1	5.597964525E-1
2.546081498E0	1.747033745E-1	1.810949594E-1	5.587311983E-1
2.548700486E0	1.592570394E-1	2.066612989E-1	5.624596477E-1
2.550347191E0	1.427454352E-1	2.332929224E-1	5.699164867E-1
2.552760486E0	1.304948926E-1	2.583266199E-1	5.805691481E-1
2.554003806E0	1.134506613E-1	2.796319127E-1	5.986786485E-1
2.556814525E0	1.012001261E-1	3.067961633E-1	6.183860302E-1
2.558446845E0	8.681905270E-2	3.366235793E-1	6.407565475E-1
2.560852729E0	7.403588295E-2	3.605920076E-1	6.615292430E-1
2.562194460E0	5.965480953E-2	3.818973005E-1	6.940197945E-1
2.564928486E0	4.420847446E-2	3.962783813E-1	7.307714224E-1
2.566361614E0	2.556634694E-2	4.090615511E-1	7.637946010E-1
2.569072679E0	6.924218964E-3	4.122573435E-1	7.952198982E-1
2.570333652E0	-1.065264456E-2	4.117247164E-1	8.245146871E-1
2.573161563E0	-3.781688958E-2	3.962783813E-1	8.724516034E-1
2.574728652E0	-5.326322466E-2	3.802994192E-1	9.054747820E-1
2.577221832E0	-6.764429063E-2	3.621899188E-1	9.347695708E-1
2.578561268E0	-7.989483327E-2	3.387540877E-1	9.629990458E-1
2.581275102E0	-8.948221803E-2	3.110572100E-1	9.843043685E-1
2.583111922E0	-1.022653878E-1	2.801645398E-1	9.986854196E-1
2.585334948E0	-1.113201380E-1	2.498045117E-1	1.007740140E0
2.586564498E0	-1.177117229E-1	2.226402760E-1	1.002413869E0
2.589388871E0	-1.198422536E-1	1.826928556E-1	9.869675040E-1
2.591023268E0	-1.304948926E-1	1.480717659E-1	9.672601223E-1
2.593431371E0	-1.496696621E-1	7.190535218E-2	9.406285286E-1
2.594640614E0	-1.986718178E-1	-6.604639441E-2	9.054747820E-1
2.597485486E0	-2.902845740E-1	-3.089267015E-1	8.511462808E-1
2.599055922E0	-4.356931746E-1	-7.121292949E-1	7.989483476E-1
2.601546294E0	-5.901564956E-1	-1.195226669E0	7.531419992E-1
2.602788883E0	-6.657902598E-1	-1.530252337E0	7.105314136E-1
2.605600486E0	-6.423544884E-1	-1.630919933E0	6.583334208E-1
2.606946883E0	-5.667206645E-1	-1.592037678E0	6.061354876E-1
2.609696640E0	-4.873584807E-1	-1.510012388E0	5.550028086E-1
2.610995268E0	-4.239752591E-1	-1.458347082E0	5.054680109E-1
2.613785025E0	-3.936152160E-1	-1.478587031E0	4.538026452E-1
2.615451268E0	-3.765709996E-1	-1.584048271E0	3.968110085E-1
2.617860486E0	-3.542004228E-1	-1.795503259E0	3.355582952E-1
2.619143075E0	-3.238403797E-1	-2.084722519E0	2.759034932E-1
2.621913448E0	-2.764361203E-1	-2.328668118E0	2.242381722E-1
2.623636345E0	-1.826928556E-1	-2.470880985E0	1.688444167E-1
2.625966448E0	-1.512675583E-1	-2.452238798E0	1.571265012E-1
2.627224845E0	-1.022653878E-1	-2.324407101E0	1.454086006E-1
2.630020101E0	-7.084008306E-2	-2.110288858E0	1.390170157E-1
2.631623460E0	-6.018744037E-2	-1.679922104E0	1.374191195E-1
2.634081217E0	-6.072007492E-2	-1.521730304E0	1.358212233E-1
2.635340614E0	-6.924218684E-2	-1.199487805E0	1.342233270E-1
2.638135178E0	-8.309062570E-2	-8.916263580E-1	1.363538504E-1
2.639699268E0	-1.123853996E-1	-4.841626883E-1	1.235706806E-1
2.642210332E0	-1.267664731E-1	-2.423476577E-1	1.049285457E-1
2.643469729E0	-1.486043930E-1	-3.568635881E-2	8.042746782E-2
2.646263755E0	-1.837581247E-1	1.107875034E-1	6.285060197E-2
2.647646537E0	-2.316950262E-1	1.912149638E-1	5.379585549E-2
2.650385871E0	-2.748382390E-1	2.439455539E-1	4.474110901E-2
2.651643229E0	-2.961435318E-1	2.918824553E-1	3.994741663E-2
2.654473871E0	-3.105245829E-1	3.051982522E-1	3.302319720E-2
2.656088498E0	-3.185140789E-1	2.865561247E-1	2.876213938E-2
2.658534640E0	-3.206445873E-1	2.476739883E-1	3.249056637E-2
2.659780960E0	-3.083940744E-1	2.066612989E-1	3.249056637E-2
2.662588332E0	-2.870887816E-1	1.629854590E-1	2.663161233E-2
2.664816345E0	-2.588592768E-1	1.193096191E-1	2.024002373E-2
2.666647448E0	-2.316950262E-1	7.297061384E-2	1.331580617E-2
2.667978037E0	-1.976065636E-1	2.503371425E-2	4.261057824E-3
2.670700178E0	-1.645833552E-1	-3.089267015E-2	-2.130528912E-3
2.672446883E0	-1.374191195E-1	-9.214537591E-2	-3.728425596E-3
2.674759524E0	-1.129180342E-1	-1.645833552E-1	-1.331580617E-2
2.676047460E0	-9.374327213E-2	-2.503371537E-1	-1.757686399E-2
2.678811524E0	-7.936219871E-2	-3.446130455E-1	-2.290318534E-2
2.680426268E0	-7.137271762E-2	-4.474110603E-1	-3.355583176E-2
2.682870486E0	-6.551376730E-2	-5.448827744E-1	-4.367584363E-2
2.684272191E0	-6.551376730E-2	-6.407565475E-1	-5.166532472E-2
2.686923101E0	-6.870955974E-2	-7.291735411E-1	-5.858954415E-2
2.688268921E0	-7.616640627E-2	-8.085356951E-1	-5.965480953E-2
2.691033370E0	-8.309062570E-2	-8.713863492E-1	-5.645901710E-2
2.692304729E0	-8.362326026E-2	-9.081379771E-1	-4.846953228E-2
2.695120794E0	-8.415589482E-2	-9.193232059E-1	-3.302319720E-2
2.696861460E0	-8.309062570E-2	-8.958874345E-1	2.663161140E-3
2.699180101E0	-7.350324839E-2	-8.532768488E-1	3.781688958E-2
2.700431768E0	-6.178534031E-2	-7.957525253E-1	7.723167539E-2
2.703233024E0	-5.326322466E-2	-7.217166424E-1	1.139832959E-1
2.705429998E0	-5.805691332E-2	-6.578007936E-1	1.358212233E-1
2.707274601E0	-6.817692518E-2	-5.906891227E-1	1.528654546E-1
2.708673575E0	-7.936219871E-2	-5.209143162E-1	1.693770438E-1
2.711326793E0	-9.374327213E-2	-4.479437172E-1	1.810949594E-1
2.713182537E0	-1.043959185E-1	-3.797667921E-1	1.917476058E-1
2.715399640E0	-1.145159304E-1	-3.179814517E-1	1.933455020E-1
2.716629768E0	-1.272991002E-1	-2.641855776E-1	1.917476058E-1
2.719452678E0	-1.422128081E-1	-2.215750068E-1	1.890844405E-1
2.721019152E0	-1.576591432E-1	-1.965412945E-1	1.800296903E-1
2.723454152E0	-1.768338978E-1	-1.805623323E-1	1.693770438E-1
2.724763883E0	-1.933455020E-1	-1.747033745E-1	1.518001854E-1
2.727566563E0	-2.055960447E-1	-1.778991669E-1	1.294296384E-1
2.728975883E0	-2.253034264E-1	-1.901497096E-1	1.086569726E-1
2.731678268E0	-2.450108230E-1	-2.087918371E-1	8.202536404E-2
2.732973229E0	-2.604571581E-1	-2.215750068E-1	5.539375171E-2
2.735769601E0	-2.721750736E-1	-2.300971150E-1	2.929477207E-2
2.737353652E0	-2.796319127E-1	-2.359560728E-1	4.261057824E-3
2.739845293E0	-2.812298238E-1	-2.263686955E-1	-3.036003746E-2
2.741134075E0	-2.785666585E-1	-2.093244642E-1	-5.858954415E-2
2.743898986E0	-2.727077007E-1	-1.763012707E-1	-8.681905270E-2
2.745873806E0	-2.556634545E-1	-1.123853996E-1	-1.235706806E-1
2.747958601E0	-2.492718846E-1	-9.321063757E-2	-1.358212233E-1
2.749247037E0	-2.380866110E-1	-5.432848632E-2	-1.571265012E-1
2.752012255E0	-2.205097377E-1	-1.384843793E-2	-1.736381054E-1
2.753578844E0	-1.965412945E-1	4.580637068E-2	-1.901497096E-1
2.756071986E0	-1.874865443E-1	6.498113275E-2	-1.970739216E-1
2.757334652E0	-1.683117896E-1	1.086569726E-1	-2.029328793E-1
2.760125486E0	-1.507349163E-1	1.454086006E-1	-2.093244642E-1
2.761667114E0	-1.187769845E-1	1.933455020E-1	-2.237055302E-1
2.764200639E0	-9.853696078E-2	2.215750068E-1	-2.327602804E-1
2.765633806E0	-7.776430249E-2	2.476739883E-1	-2.423476577E-1
2.768254139E0	-5.912217870E-2	2.700445354E-1	-2.471413612E-1
2.769555691E0	-3.781688958E-2	2.908172011E-1	-2.524676621E-1
2.772349755E0	-1.171790902E-2	3.126551211E-1	-2.535329461E-1
2.773699114E0	1.118527725E-2	3.302319944E-1	-2.476739883E-1
2.776438024E0	3.675162420E-2	3.382214606E-1	-2.412824035E-1
2.778146537E0	5.539375171E-2	3.451456726E-1	-2.242381722E-1
2.780465409E0	7.403588295E-2	3.360909224E-1	-2.114549875E-1
2.781680691E0	8.841694891E-2	3.222424984E-1	-1.928128600E-1
2.784518909E0	1.006674916E-1	3.078614175E-1	-1.800296903E-1
2.786437614E0	1.113201380E-1	2.934803665E-1	-1.651159972E-1
2.788582793E0	1.182443574E-1	2.743056118E-1	-1.454086006E-1
2.789930229E0	1.257012039E-1	2.545982003E-1	-1.326254308E-1
2.792636909E0	1.304948926E-1	2.380866110E-1	-1.161138266E-1
2.794256844E0	1.342233270E-1	2.279665917E-1	-9.693906456E-2
2.796696062E0	1.352885813E-1	2.189118415E-1	-7.563377917E-2
2.798278652E0	1.368864775E-1	2.093244642E-1	-5.006742850E-2
2.800749447E0	1.422128081E-1	2.087918371E-1	-3.036003746E-2
2.802400268E0	1.411475390E-1	2.002697140E-1	-2.663161140E-3
2.804809139E0	1.352885813E-1	1.874865443E-1	1.384843793E-2
2.806076152E0	1.288969964E-1	1.773665249E-1	2.663161233E-2
2.808862909E0	1.171790883E-1	1.597896665E-1	3.834952042E-2
2.810396268E0	1.091896072E-1	1.470064968E-1	4.900216311E-2
2.812996832E0	9.747169912E-2	1.358212233E-1	6.125270575E-2
2.814282306E0	8.575379103E-2	1.214401498E-1	6.817692518E-2
2.817084716E0	7.510114461E-2	1.033306494E-1	7.563377917E-2
2.818885614E0	5.486112088E-2	8.042746782E-2	7.829693705E-2
2.821144024E0	4.154531285E-2	6.657902896E-2	7.882957160E-2
2.822459921E0	3.195793182E-2	5.166532472E-2	7.882957160E-2
2.825197062E0	2.396845073E-2	3.941478580E-2	8.415589482E-2
2.827071268E0	1.384843793E-2	2.716424316E-2	8.522115648E-2
2.829264793E0	6.391586736E-3	1.118527725E-2	8.575379103E-2
2.830508306E0	-1.597896684E-3	-7.989482954E-3	8.735168725E-2
2.833318408E0	-7.989482954E-3	-2.450108156E-2	8.575379103E-2
2.834901344E0	-1.384843793E-2	-4.261057824E-2	8.628641814E-2
2.837392293E0	-1.704423130E-2	-6.018744037E-2	8.681905270E-2
2.838844729E0	-2.290318534E-2	-7.882957160E-2	8.468852192E-2
2.841444601E0	-2.237055451E-2	-9.906959534E-2	8.468852192E-2
2.843057844E0	-3.142530099E-2	-1.193096191E-1	8.202536404E-2
2.845505139E0	-3.675162420E-2	-1.384843737E-1	7.882957160E-2
2.846933460E0	-4.261057824E-2	-1.619201899E-1	7.669904083E-2
2.849557985E0	-5.006742850E-2	-1.917476058E-1	7.510114461E-2
2.850886921E0	-6.178534031E-2	-2.221076339E-1	6.924218684E-2
2.853653754E0	-7.350324839E-2	-2.530003190E-1	6.924218684E-2
2.854928114E0	-8.255799860E-2	-2.812298238E-1	6.604639441E-2
2.857741793E0	-9.534116834E-2	-3.126551211E-1	6.018744037E-2
2.859403383E0	-1.065264493E-1	-3.403519988E-1	5.912217870E-2
2.861815985E0	-1.123853996E-1	-3.605920076E-1	5.432848632E-2
2.863707075E0	-1.177117229E-1	-3.691141307E-1	5.326322466E-2
2.865869947E0	-1.177117229E-1	-3.733751774E-1	4.793690145E-2
2.867592037E0	-1.198422536E-1	-3.707120419E-1	3.834952042E-2
2.869930601E0	-1.193096191E-1	-3.701793849E-1	3.462109342E-2
2.871365229E0	-1.187769845E-1	-3.616572917E-1	2.663161233E-2
2.873985793E0	-1.209075153E-1	-3.605920076E-1	1.704423130E-2
2.875658267E0	-1.134506613E-1	-3.483414650E-1	4.261057824E-3
2.878047524E0	-1.139832959E-1	-3.451456726E-1	1.597896684E-3
2.879441421E0	-1.102548689E-1	-3.334277868E-1	-3.195793368E-3
2.882102139E0	-1.059938148E-1	-3.222424984E-1	-1.012001187E-2
2.883791460E0	-9.480853379E-2	-3.041329980E-1	-1.597896591E-2
2.886145139E0	-8.788431436E-2	-2.934803665E-1	-1.917476021E-2
2.887442998E0	-7.243798673E-2	-2.753708661E-1	-1.970739290E-2
2.890199062E0	-5.805691332E-2	-2.540655732E-1	-2.024002373E-2
2.891810883E0	-4.154531285E-2	-2.306297570E-1	-1.757686399E-2
2.894204229E0	-2.822950855E-2	-2.151834220E-1	-1.491370238E-2
2.895533383E0	-1.438106969E-2	-2.034655064E-1	-1.597896591E-2
2.898309524E0	-3.195793368E-3	-1.928128600E-1	-2.077265643E-2
2.900042883E0	9.054748341E-3	-1.858886480E-1	-1.810949668E-2
2.902349908E0	1.917476021E-2	-1.763012707E-1	-2.077265643E-2
2.903641421E0	2.769687586E-2	-1.651159972E-1	-2.024002373E-2
2.906402754E0	3.781688958E-2	-1.549959779E-1	-1.917476021E-2
2.908303652E0	4.420847446E-2	-1.443433315E-1	-2.396845073E-2
2.910472831E0	4.527373984E-2	-1.368864775E-1	-3.195793182E-2
2.911790806E0	4.474110901E-2	-1.294296384E-1	-4.527373984E-2
2.914526023E0	4.314320907E-2	-1.198422536E-1	-6.231797114E-2
2.916146844E0	4.314320907E-2	-1.086569726E-1	-8.255799860E-2
2.918584562E0	3.355583176E-2	-9.906959534E-2	-8.948221803E-2
2.919925306E0	2.716424316E-2	-9.374327213E-2	-8.948221803E-2
2.922638062E0	2.556634694E-2	-8.841694891E-2	-7.989483327E-2
2.924196191E0	2.024002373E-2	-8.415589482E-2	-6.711166352E-2
2.926696831E0	1.278317347E-2	-8.255799860E-2	-5.166532472E-2
2.928004344E0	5.858954508E-3	-8.362326026E-2	-3.462109342E-2
2.930750139E0	-1.597896684E-3	-8.415589482E-2	-1.225054078E-2
2.932125152E0	-8.522115648E-3	-8.309062570E-2	1.012001187E-2
2.934861870E0	-1.278317347E-2	-8.362326026E-2	3.249056637E-2
2.936168421E0	-1.331580617E-2	-7.989483327E-2	5.486112088E-2
2.938950716E0	-1.810949668E-2	-7.669904083E-2	6.657902896E-2
2.940528075E0	-1.597896591E-2	-7.084008306E-2	6.498113275E-2
2.943011177E0	-1.757686399E-2	-7.084008306E-2	6.764429063E-2
2.944342575E0	-1.810949668E-2	-7.084008306E-2	6.817692518E-2
2.947064946E0	-1.651159860E-2	-6.657902896E-2	7.297061384E-2
2.948888537E0	-1.384843793E-2	-6.125270575E-2	7.829693705E-2
2.951122216E0	-1.171790902E-2	-5.805691332E-2	7.989483327E-2
2.952451383E0	-2.663161140E-3	-5.592638254E-2	8.096009493E-2
2.955176562E0	9.054748341E-3	-5.379585549E-2	7.829693705E-2
2.956800652E0	2.290318534E-2	-5.060006306E-2	6.817692518E-2
2.959250908E0	3.728425503E-2	-4.793690145E-2	5.166532472E-2
2.960518498E0	5.486112088E-2	-4.261057824E-2	2.876213938E-2
2.963304793E0	7.456851006E-2	-3.462109342E-2	1.597896684E-3
2.964886075E0	9.001484513E-2	-3.142530099E-2	-1.704423130E-2
2.967364293E0	9.480853379E-2	-4.154531285E-2	-2.929477207E-2
2.968864421E0	1.006674916E-1	-5.699164793E-2	-3.888215125E-2
2.971418523E0	1.012001261E-1	-7.776430249E-2	-4.740426689E-2
2.972761460E0	9.853696078E-2	-9.693906456E-2	-5.219795927E-2
2.975533062E0	9.800432622E-2	-1.246359423E-1	-4.953479767E-2
2.976917921E0	9.321063757E-2	-1.416801661E-1	-4.154531285E-2
2.979622523E0	8.894958347E-2	-1.624528319E-1	-2.609897964E-2
2.981935677E0	8.468852192E-2	-1.773665249E-1	-1.757686399E-2
2.983697869E0	8.468852192E-2	-1.805623323E-1	-2.663161140E-3
2.985174960E0	7.669904083E-2	-1.976065636E-1	1.012001187E-2
2.987751831E0	6.551376730E-2	-2.199771106E-1	2.024002373E-2
2.989540344E0	5.166532472E-2	-2.503371537E-1	3.408846259E-2
2.991817562E0	4.900216311E-2	-2.615224123E-1	3.994741663E-2
2.993129537E0	3.621899337E-2	-2.790992856E-1	4.527373984E-2
2.995871600E0	1.970739290E-2	-3.089267015E-1	4.314320907E-2
2.997458267E0	-1.065264456E-2	-3.600593805E-1	3.728425503E-2
2.999932062E0	-2.290318534E-2	-3.802994192E-1	3.568635881E-2
3.001143075E0	-3.888215125E-2	-3.973436356E-1	4.101268202E-2
3.003986100E0	-5.006742850E-2	-3.973436356E-1	4.154531285E-2
3.005523690E0	-6.285060197E-2	-3.877562582E-1	2.769687586E-2
3.008060523E0	-6.764429063E-2	-3.834952116E-1	1.757686399E-2
3.009343690E0	-7.456851006E-2	-3.728425503E-1	-1.065264456E-3
3.012113754E0	-8.894958347E-2	-3.595267534E-1	-2.450108156E-2
3.013606652E0	-9.853696078E-2	-3.504720032E-1	-3.781688958E-2
3.016209638E0	-1.081243455E-1	-3.494067490E-1	-4.793690145E-2
3.017630883E0	-1.203748807E-1	-3.600593805E-1	-4.846953228E-2
3.020298408E0	-1.342233270E-1	-3.749730885E-1	-4.420847446E-2
3.022286960E0	-1.475391239E-1	-3.989415467E-1	-3.408846259E-2
3.024359408E0	-1.613875628E-1	-4.223773479E-1	-2.343581803E-2
3.025712229E0	-1.693770438E-1	-4.420847595E-1	-1.597896591E-2
3.028413523E0	-1.752360016E-1	-4.569984376E-1	-4.793690052E-3
3.030369190E0	-1.747033745E-1	-4.633900523E-1	-5.326322280E-3
3.032487677E0	-1.784317940E-1	-4.697816372E-1	-5.858954508E-3
3.033895998E0	-1.768338978E-1	-4.740426838E-1	-5.326322280E-3
3.036542754E0	-1.773665249E-1	-4.793690145E-1	-5.858954508E-3
3.038096152E0	-1.773665249E-1	-4.926848114E-1	-6.924218964E-3
3.040603754E0	-1.773665249E-1	-5.044026971E-1	-1.278317347E-2
3.042106537E0	-1.768338978E-1	-5.150553584E-1	-1.491370238E-2
3.044658600E0	-1.821602285E-1	-5.368933082E-1	-1.597896591E-2
3.046314306E0	-1.869539171E-1	-5.581985712E-1	-1.331580617E-2
3.048719831E0	-1.944107562E-1	-5.747101903E-1	-1.171790902E-2
3.050138460E0	-1.960086524E-1	-5.906891227E-1	-6.924218964E-3
3.052774138E0	-1.965412945E-1	-6.056028605E-1	-2.130528912E-3
3.054214306E0	-1.986718178E-1	-6.221144199E-1	1.597896684E-3
3.056910754E0	-1.960086524E-1	-6.370281577E-1	3.195793368E-3
3.058201498E0	-1.954760253E-1	-6.498113275E-1	-1.065264456E-3
3.060999792E0	-1.896170676E-1	-6.466155052E-1	-7.456851192E-3
3.062537344E0	-1.741707325E-1	-6.247776151E-1	-2.396845073E-2
3.065060600E0	-1.656486243E-1	-6.194512844E-1	-2.876213938E-2
3.066301460E0	-1.581917703E-1	-6.008091569E-1	-3.941478580E-2
3.069114215E0	-1.374191195E-1	-5.640575290E-1	-5.539375171E-2
3.070910421E0	-1.257012039E-1	-5.416869521E-1	-6.231797114E-2
3.073184715E0	-1.145159304E-1	-5.118595958E-1	-7.297061384E-2
3.074427767E0	-1.006674916E-1	-4.799016416E-1	-7.989483327E-2
3.077238869E0	-8.681905270E-2	-4.362258017E-1	-8.894958347E-2
3.078907421E0	-6.924218684E-2	-3.877562582E-1	-9.427590668E-2
3.081314100E0	-5.006742850E-2	-3.296993375E-1	-1.033306494E-1
3.082595729E0	-2.716424316E-2	-2.567287385E-1	-1.182443574E-1
3.085368523E0	2.130528912E-3	-1.661812514E-1	-1.379517466E-1
3.086980806E0	2.929477207E-2	-7.829693705E-2	-1.507349163E-1
3.089429138E0	4.953479767E-2	-2.663161140E-3	-1.507349163E-1
3.090696960E0	6.657902896E-2	5.805691332E-2	-1.336906850E-1
3.093483061E0	7.669904083E-2	1.022653878E-1	-1.097222418E-1
3.094746498E0	8.575379103E-2	1.438107044E-1	-8.628641814E-2
3.097579946E0	1.022653878E-1	2.018676102E-1	-7.882957160E-2
3.098916537E0	1.166464612E-1	2.625876963E-1	-8.096009493E-2
3.101668677E0	1.267664731E-1	2.988066673E-1	-7.723167539E-2
3.103341921E0	1.251685768E-1	3.243730366E-1	-8.415589482E-2
3.105711600E0	1.161138266E-1	3.222424984E-1	-7.882957160E-2
3.107106421E0	1.022653878E-1	3.206445873E-1	-7.776430249E-2
3.109765638E0	8.735168725E-2	3.147856593E-1	-7.456851006E-2
3.111603537E0	5.912217870E-2	2.961435318E-1	-7.084008306E-2
3.113835138E0	4.527373984E-2	2.828277051E-1	-7.084008306E-2
3.115127575E0	1.225054078E-2	2.322276533E-1	-6.444849819E-2
3.117888292E0	-3.408846259E-2	1.480717659E-1	-4.793690145E-2
3.119442806E0	-1.054611802E-1	5.326322280E-4	-1.544633508E-2
3.121948253E0	-1.310275346E-1	-3.994741663E-2	-6.924218964E-3
3.123332537E0	-1.677791476E-1	-1.017327532E-1	3.728425596E-3
3.126001292E0	-2.130528986E-1	-1.699096859E-1	2.024002373E-2
3.127704306E0	-2.743056118E-1	-2.604571581E-1	5.912217870E-2
3.130075446E0	-2.902845740E-1	-2.838929892E-1	6.924218684E-2
3.131442460E0	-3.153182864E-1	-3.115898669E-1	8.415589482E-2
3.134128676E0	-3.334277868E-1	-3.286340833E-1	1.006674916E-1
3.135521344E0	-3.366235793E-1	-3.366235793E-1	1.091896072E-1
3.138250215E0	-3.472762108E-1	-3.653857112E-1	1.225054115E-1
3.139527690E0	-3.611246645E-1	-4.159857631E-1	1.422128081E-1
3.142338100E0	-3.515372574E-1	-4.122573435E-1	1.496696621E-1
3.143951344E0	-3.366235793E-1	-3.792341352E-1	1.320927888E-1
3.146399253E0	-3.190467060E-1	-3.472762108E-1	7.882957160E-2
3.147890383E0	-3.014698327E-1	-3.110572100E-1	3.089267015E-2
3.150452753E0	-2.833603323E-1	-2.753708661E-1	-7.456851192E-3
3.152186921E0	-2.583266199E-1	-2.402171344E-1	-3.462109342E-2
3.154509715E0	-2.290318608E-1	-1.981391907E-1	-5.273059011E-2
3.155745421E0	-2.002697140E-1	-1.677791476E-1	-5.379585549E-2
3.158564369E0	-1.677791476E-1	-1.475391239E-1	-4.527373984E-2
3.160271037E0	-1.336906850E-1	-1.272991002E-1	-2.716424316E-2
3.162625676E0	-9.800432622E-2	-1.161138266E-1	-1.597896591E-2
3.163956267E0	-7.616640627E-2	-1.416801661E-1	4.793690052E-3
3.166680176E0	-6.285060197E-2	-2.045307755E-1	3.621899337E-2
3.168239998E0	-5.113269389E-2	-2.593919039E-1	6.231797114E-2
3.170741753E0	-3.195793182E-2	-2.865561247E-1	7.776430249E-2
3.172004383E0	-9.587380104E-3	-2.972087860E-1	8.309062570E-2
3.174796792E0	1.651159860E-2	-2.945456207E-1	8.468852192E-2
3.176081652E0	4.580637068E-2	-2.790992856E-1	7.989483327E-2
3.178908292E0	6.764429063E-2	-2.647182047E-1	7.403588295E-2
3.180443536E0	8.894958347E-2	-2.466087192E-1	6.870955974E-2
3.182997446E0	1.049285457E-1	-2.332929224E-1	5.805691332E-2
3.184583152E0	1.235706806E-1	-2.119876295E-1	4.474110901E-2
3.187058715E0	1.342233270E-1	-1.986718178E-1	3.781688958E-2
3.189051369E0	1.438107044E-1	-1.672465205E-1	2.290318534E-2
3.191112676E0	1.571265012E-1	-1.443433315E-1	4.793690052E-3
3.192753652E0	1.640507281E-1	-1.288969964E-1	-1.065264456E-2
3.195162638E0	1.624528319E-1	-1.091896072E-1	-2.769687586E-2
3.196463806E0	1.613875628E-1	-8.788431436E-2	-5.006742850E-2
3.199217522E0	1.470064968E-1	-9.001484513E-2	-6.391586363E-2
3.200783652E0	1.177117229E-1	-1.123853996E-1	-7.403588295E-2
3.203293292E0	8.948221803E-2	-1.400822699E-1	-8.042746782E-2
3.204619806E0	6.231797114E-2	-1.608549356E-1	-8.096009493E-2
3.207347561E0	3.994741663E-2	-1.725728363E-1	-8.309062570E-2
3.208894190E0	2.130528912E-2	-1.747033745E-1	-7.776430249E-2
3.211407676E0	2.663161140E-3	-1.800296903E-1	-6.870955974E-2
3.212724344E0	-9.587380104E-3	-1.928128600E-1	-5.486112088E-2
3.215461868E0	-2.663161233E-2	-2.045307755E-1	-3.994741663E-2
3.216973575E0	-3.941478580E-2	-2.183792144E-1	-2.556634694E-2
3.219554806E0	-4.740426689E-2	-2.354234457E-1	-5.858954508E-3
3.220924267E0	-5.965480953E-2	-2.540655732E-1	8.522115648E-3
3.223662868E0	-7.190535218E-2	-2.689792812E-1	2.769687586E-2
3.225326460E0	-8.415589482E-2	-2.865561247E-1	4.367584363E-2
3.227739561E0	-9.853696078E-2	-3.051982522E-1	5.539375171E-2
3.229040767E0	-1.102548689E-1	-3.254382908E-1	6.231797114E-2
3.231794599E0	-1.278317273E-1	-3.478088379E-1	6.604639441E-2
3.233453113E0	-1.480717659E-1	-3.744404614E-1	6.498113275E-2
3.235865599E0	-1.539307088E-1	-3.840278387E-1	6.178534031E-2
3.237057075E0	-1.640507281E-1	-3.930825889E-1	5.645901710E-2
3.239920407E0	-1.736381054E-1	-3.930825889E-1	5.379585549E-2
3.241553113E0	-1.826928556E-1	-3.936152160E-1	4.633900523E-2
3.243980599E0	-1.848233789E-1	-3.989415467E-1	4.207794741E-2
3.245196613E0	-1.965412945E-1	-4.063983858E-1	3.728425503E-2
3.248035022E0	-2.077265680E-1	-4.095941782E-1	2.450108156E-2
3.249659536E0	-2.231729031E-1	-4.181163013E-1	-3.089267015E-2
3.252111407E0	-2.327602804E-1	-4.154531360E-1	-5.486112088E-2
3.253356575E0	-2.391518652E-1	-4.021373391E-1	-6.178534031E-2
3.256165714E0	-2.418150306E-1	-3.893541694E-1	-7.350324839E-2
3.257487460E0	-2.407497615E-1	-3.605920076E-1	-7.403588295E-2
3.260262638E0	-2.343581766E-1	-3.344930410E-1	-7.084008306E-2
3.261518806E0	-2.322276533E-1	-3.057309091E-1	-7.776430249E-2
3.264352176E0	-2.215750068E-1	-2.567287385E-1	-7.669904083E-2
3.265910652E0	-2.055960447E-1	-1.954760253E-1	-8.575379103E-2
3.268411984E0	-1.832254827E-1	-1.209075153E-1	-8.841694891E-2
3.269707998E0	-1.693770438E-1	-5.219795927E-2	-1.091896072E-1
3.272466176E0	-1.576591432E-1	1.384843793E-2	-1.294296384E-1
3.274473190E0	-1.358212233E-1	9.800432622E-2	-1.629854590E-1
3.276537791E0	-1.059938148E-1	1.906823367E-1	-2.087918371E-1
3.277851998E0	-8.415589482E-2	2.577939928E-1	-2.636529505E-1
3.280592253E0	-8.202536404E-2	2.668487430E-1	-3.078614175E-1
3.282248767E0	-1.134506613E-1	1.981391907E-1	-3.355582952E-1
3.284653522E0	-1.656486243E-1	7.616640627E-2	-3.446130455E-1
3.285897883E0	-2.402171344E-1	-1.012001261E-1	-3.382214606E-1
3.288708214E0	-3.153182864E-1	-2.790992856E-1	-3.174487948E-1
3.290359383E0	-3.787015080E-1	-4.367584288E-1	-2.801645398E-1
3.292768791E0	-4.319647253E-1	-5.752428174E-1	-2.284992188E-1
3.294231729E0	-4.825648069E-1	-7.052050829E-1	-1.597896665E-1
3.296822984E0	-5.150553584E-1	-7.941546440E-1	-8.575379103E-2
3.298198075E0	-5.278385282E-1	-8.383631110E-1	-1.438106969E-2
3.300960445E0	-5.230448246E-1	-8.468852639E-1	5.432848632E-2
3.302227421E0	-4.953479767E-1	-7.936220169E-1	1.097222418E-1
3.305050060E0	-4.585963488E-1	-7.238472104E-1	1.315601617E-1
3.306623613E0	-4.085289240E-1	-6.306365728E-1	1.358212233E-1
3.309091022E0	-3.717772961E-1	-5.709817410E-1	1.150485575E-1
3.310332613E0	-3.504720032E-1	-5.475459099E-1	8.468852192E-2
3.313145253E0	-3.312972486E-1	-5.278385282E-1	3.888215125E-2
3.315090498E0	-3.131877482E-1	-5.161206126E-1	-2.290318534E-2
3.317199368E0	-3.014698327E-1	-5.177185535E-1	-9.108011425E-2
3.318428190E0	-2.945456207E-1	-5.241101384E-1	-1.571265012E-1
3.321253676E0	-2.961435318E-1	-5.379585624E-1	-2.125202566E-1
3.322898306E0	-2.865561247E-1	-5.443501472E-1	-2.583266199E-1
3.325328676E0	-2.684466541E-1	-5.352953672E-1	-2.940129936E-1
3.326564229E0	-2.391518652E-1	-5.118595958E-1	-3.227751255E-1
3.329382253E0	-2.141181529E-1	-4.910869002E-1	-3.510046303E-1
3.331002459E0	-1.917476058E-1	-4.756405652E-1	-3.707120419E-1
3.333442753E0	-1.688444167E-1	-4.676510990E-1	-3.749730885E-1
3.334751806E0	-1.571265012E-1	-4.745753109E-1	-3.499393761E-1
3.337497022E0	-1.565938741E-1	-4.783037305E-1	-3.499393761E-1
3.338732806E0	-1.443433315E-1	-4.474110603E-1	-3.861583769E-1
3.341594253E0	-1.432780623E-1	-4.143878818E-1	-4.181163013E-1
3.342848729E0	-1.432780623E-1	-3.930825889E-1	-4.394215941E-1
3.345683176E0	-1.432780623E-1	-3.760383427E-1	-4.458131790E-1
3.347313806E0	-1.480717659E-1	-3.499393761E-1	-4.372910559E-1
3.349759291E0	-1.502022892E-1	-3.190467060E-1	-4.159857631E-1
3.351008344E0	-1.507349163E-1	-2.822950780E-1	-3.893541694E-1
3.353813676E0	-1.438107044E-1	-2.396845073E-1	-3.605920076E-1
3.355750690E0	-1.304948926E-1	-1.805623323E-1	-3.259709179E-1
3.357873214E0	-1.272991002E-1	-1.629854590E-1	-3.110572100E-1
3.359213075E0	-1.150485575E-1	-1.230380461E-1	-2.801645398E-1
3.361926791E0	-1.017327532E-1	-7.616640627E-2	-2.466087192E-1
3.363750267E0	-7.776430249E-2	-1.544633508E-2	-2.045307755E-1
3.365987829E0	-7.243798673E-2	-4.261057824E-3	-1.922802329E-1
3.367267267E0	-5.965480953E-2	2.077265643E-2	-1.688444167E-1
3.370041214E0	-4.527373984E-2	4.740426689E-2	-1.475391239E-1
3.371923729E0	-8.522115648E-3	1.043959185E-1	-1.193096191E-1
3.374078306E0	1.384843793E-2	1.347559541E-1	-9.800432622E-2
3.375441652E0	2.343581803E-2	1.406149119E-1	-7.084008306E-2
3.378170214E0	1.917476021E-2	1.283643693E-1	-4.261057824E-2
3.379578959E0	9.054748341E-3	1.139832959E-1	-1.278317347E-2
3.382228190E0	5.858954508E-3	1.198422536E-1	1.012001187E-2
3.383565575E0	-5.326322280E-3	1.123853996E-1	4.207794741E-2
3.386355368E0	-1.225054078E-2	7.297061384E-2	1.155811921E-1
3.388205229E0	-3.195793368E-3	7.456851006E-2	2.210423797E-1
3.390414829E0	9.587380104E-3	3.941478580E-2	3.179814517E-1
3.391784267E0	-9.054748341E-3	-2.183792181E-2	3.728425503E-1
3.394469099E0	-5.006742850E-2	-1.241033077E-1	4.063983858E-1
3.396215459E0	-4.793690145E-2	-1.667138934E-1	4.308994710E-1
3.398533829E0	-3.142530099E-2	-1.533980817E-1	4.724447727E-1
3.399760844E0	-3.728425503E-2	-1.869539171E-1	4.884237647E-1
3.402587829E0	-5.965480953E-2	-2.466087192E-1	4.713795185E-1
3.404239921E0	-1.091896072E-1	-3.051982522E-1	4.351605177E-1
3.406648829E0	-1.272991002E-1	-3.137203753E-1	4.250405133E-1
3.407853190E0	-1.683117896E-1	-3.563309610E-1	4.165183902E-1
3.410702983E0	-1.890844405E-1	-3.808320463E-1	4.069310129E-1
3.412249652E0	-2.008023560E-1	-3.824299276E-1	4.245078862E-1
3.414763522E0	-2.221076339E-1	-3.877562582E-1	4.218447208E-1
3.416026421E0	-2.157160491E-1	-3.850930929E-1	4.149205089E-1
3.418816675E0	-2.269013226E-1	-3.856257200E-1	4.426173866E-1
3.420154690E0	-2.242381722E-1	-3.893541694E-1	4.564658105E-1
3.422927791E0	-2.199771106E-1	-4.005394280E-1	4.830974340E-1
3.424246075E0	-2.215750068E-1	-4.213120937E-1	5.033374429E-1
3.427015714E0	-1.789644361E-1	-4.207794666E-1	5.177185535E-1
3.428587806E0	-1.294296384E-1	-4.308994710E-1	5.635249019E-1
3.431076675E0	-1.113201380E-1	-4.511395097E-1	5.944175720E-1
3.432504959E0	-7.030745596E-2	-4.767058492E-1	5.938849449E-1
3.435130637E0	-7.084008306E-2	-5.097290277E-1	6.082659960E-1
3.437140767E0	-2.450108156E-2	-5.155879855E-1	6.151902080E-1
3.439188675E0	-3.781688958E-2	-5.464806557E-1	6.194512844E-1
3.440415613E0	-1.597896684E-3	-5.571333170E-1	6.082659960E-1
3.443242560E0	-1.810949668E-2	-5.869607329E-1	5.981460214E-1
3.444835267E0	3.462109342E-2	-5.651227832E-1	5.864281058E-1
3.447316752E0	1.864212751E-2	-5.725796223E-1	5.784385800E-1
3.448919536E0	5.699164793E-2	-5.528722405E-1	5.645901561E-1
3.451369945E0	4.793690145E-2	-5.507417321E-1	5.555354357E-1
3.452994882E0	6.072007492E-2	-5.406216979E-1	5.438175201E-1
3.455426344E0	9.747169912E-2	-5.134574771E-1	5.299690962E-1
3.456713036E0	1.257012039E-1	-4.745753109E-1	5.262406468E-1
3.459483060E0	1.821602285E-1	-4.277036786E-1	5.326322317E-1
3.460791267E0	2.173139453E-1	-4.127899706E-1	5.411543250E-1
3.463586791E0	2.556634545E-1	-4.042678475E-1	5.597964525E-1
3.464903729E0	2.913498282E-1	-4.005394280E-1	5.826996565E-1
3.467676637E0	3.078614175E-1	-4.117247164E-1	6.008091569E-1
3.469269882E0	3.025351167E-1	-4.458131790E-1	6.215817928E-1
3.471751868E0	2.988066673E-1	-4.548679292E-1	6.322344542E-1
3.472937459E0	3.009372056E-1	-4.431500137E-1	6.503439546E-1
3.475805791E0	2.822950780E-1	-4.351605177E-1	6.796387434E-1
3.477945306E0	2.599245310E-1	-4.175836742E-1	7.068029642E-1
3.479861560E0	2.466087192E-1	-4.095941782E-1	7.222493291E-1
3.481215767E0	2.327602804E-1	-3.749730885E-1	7.494135499E-1
3.483915483E0	2.024002522E-1	-3.627225459E-1	7.701861858E-1
3.485567844E0	1.720402092E-1	-3.163835406E-1	7.920241356E-1
3.487976367E0	1.523328125E-1	-3.051982522E-1	8.042746782E-1
3.489291229E0	1.288969964E-1	-2.620550692E-1	8.309062719E-1
3.492030444E0	1.107875034E-1	-2.231729031E-1	8.468852639E-1
3.493607536E0	6.977482140E-2	-1.837581247E-1	8.884305358E-1
3.496106252E0	5.858954415E-2	-1.363538504E-1	9.123989940E-1
3.497367267E0	4.527373984E-2	-9.321063757E-2	9.523464441E-1
3.500161367E0	2.876213938E-2	-8.096009493E-2	9.938917160E-1
3.501416844E0	2.130528912E-2	-6.657902896E-2	1.018925428E0
3.504259406E0	3.195793368E-3	-7.030745596E-2	1.060470819E0
3.505509459E0	-5.326322280E-4	-7.084008306E-2	1.087102413E0
3.508349021E0	-7.456851192E-3	-6.977482140E-2	1.142496109E0
3.510138382E0	-1.278317347E-2	-7.723167539E-2	1.203216195E0
3.512377560E0	-2.556634694E-2	-1.294296384E-1	1.243163586E0
3.514102152E0	-2.077265643E-2	-1.677791476E-1	1.266066790E0
3.516431252E0	-1.544633508E-2	-1.976065636E-1	1.301753163E0
3.518230267E0	-1.118527725E-2	-2.295644879E-1	1.332113147E0
3.520506290E0	-5.858954508E-3	-2.684466541E-1	1.352353215E0
3.522043421E0	-6.391586736E-3	-3.067961633E-1	1.355016351E0
3.524559752E0	-4.793690052E-3	-3.398193717E-1	1.348624825E0
3.526108729E0	-3.195793368E-3	-3.707120419E-1	1.340102673E0
3.528620367E0	-4.261057824E-3	-4.042678475E-1	1.326786876E0
3.530341459E0	-5.858954508E-3	-4.410194755E-1	1.295361519E0
3.532674483E0	-1.012001187E-2	-4.772384763E-1	1.258610010E0
3.534419229E0	-1.384843793E-2	-5.075985193E-1	1.221858382E0
3.536724805E0	-2.609897964E-2	-5.390238166E-1	1.165399313E0
3.538005344E0	-3.888215125E-2	-5.656554103E-1	1.093493938E0
3.540788752E0	-5.486112088E-2	-5.864281058E-1	1.017327547E0
3.542071536E0	-6.711166352E-2	-6.040049195E-1	9.369000793E-1
3.544900252E0	-8.468852192E-2	-6.082659960E-1	8.516789079E-1
3.546335190E0	-8.735168725E-2	-5.826996565E-1	7.653924823E-1
3.548988829E0	-8.894958347E-2	-5.267732739E-1	6.966829300E-1
3.550854844E0	-8.575379103E-2	-3.872236311E-1	5.949501991E-1
3.553049829E0	-8.522115648E-2	-2.817624509E-1	5.320996046E-1
3.554299690E0	-8.309062570E-2	-2.316950262E-1	5.017395616E-1
3.557104406E0	-7.616640627E-2	-6.498113275E-2	4.239752591E-1
3.559067382E0	-6.711166352E-2	2.556634694E-2	3.653857112E-1
3.561165213E0	-6.977482140E-2	9.693906456E-2	3.275688291E-1
3.562406767E0	-6.178534031E-2	1.496696621E-1	2.977414131E-1
3.565219444E0	-6.444849819E-2	1.747033745E-1	2.689792812E-1
3.566890882E0	-6.231797114E-2	1.709749401E-1	2.359560728E-1
3.569295867E0	-6.604639441E-2	1.491370201E-1	2.178465873E-1
3.570540729E0	-6.498113275E-2	1.139832959E-1	2.178465873E-1
3.573350175E0	-7.190535218E-2	6.924218684E-2	2.269013226E-1
3.574906998E0	-7.030745596E-2	1.384843793E-2	2.412824035E-1
3.577409982E0	-7.084008306E-2	-4.633900523E-2	2.652508616E-1
3.578724459E0	-7.510114461E-2	-1.155811921E-1	2.796319127E-1
3.581464598E0	-7.456851006E-2	-1.826928556E-1	2.881540358E-1
3.582744575E0	-8.202536404E-2	-2.407497615E-1	3.110572100E-1
3.585562482E0	-8.415589482E-2	-2.828277051E-1	3.243730366E-1
3.586828613E0	-8.735168725E-2	-3.153182864E-1	3.419498801E-1
3.589652675E0	-8.468852192E-2	-3.355582952E-1	3.424825370E-1
3.591246152E0	-9.374327213E-2	-3.440804183E-1	3.302319944E-1
3.593730175E0	-1.033306494E-1	-3.446130455E-1	3.137203753E-1
3.594984190E0	-1.027980223E-1	-3.254382908E-1	2.977414131E-1
3.597785405E0	-9.480853379E-2	-2.908172011E-1	2.812298238E-1
3.599512882E0	-9.800432622E-2	-2.332929224E-1	2.897519469E-1
3.601847098E0	-8.788431436E-2	-2.151834220E-1	2.902845740E-1
3.603137767E0	-9.960222989E-2	-1.789644361E-1	2.908172011E-1
3.605902367E0	-9.587380290E-2	-1.427454352E-1	3.004045784E-1
3.607508536E0	-1.097222418E-1	-1.198422536E-1	2.908172011E-1
3.609963367E0	-9.906959534E-2	-1.161138266E-1	2.897519469E-1
3.611279228E0	-1.166464612E-1	-1.113201380E-1	3.046656251E-1
3.614018175E0	-1.193096191E-1	-1.033306494E-1	3.158509135E-1
3.615593805E0	-1.283643693E-1	-9.374327213E-2	3.382214606E-1
3.618095290E0	-1.203748807E-1	-9.214537591E-2	3.217098713E-1
3.619441652E0	-1.619201899E-1	-9.108011425E-2	3.323625028E-1
3.622149367E0	-1.486043930E-1	-7.084008306E-2	3.243730366E-1
3.623452536E0	-1.459412277E-1	-6.231797114E-2	3.067961633E-1
3.626246598E0	-1.848233789E-1	-5.166532472E-2	3.179814517E-1
3.627497498E0	-1.677791476E-1	-3.781688958E-2	2.482066154E-1
3.630336405E0	-2.039981484E-1	-3.515372798E-2	2.109223604E-1
3.631976728E0	-1.917476058E-1	-7.456851192E-3	7.936219871E-2
3.634398098E0	-2.135855258E-1	-2.077265643E-2	4.580637068E-2
3.635742805E0	-2.279665917E-1	-6.657902896E-2	-7.350324839E-2
3.638453136E0	-2.599245310E-1	-1.448759735E-1	-1.086569726E-1
3.640538536E0	-2.849582434E-1	-1.997370869E-1	-1.581917703E-1
3.642513136E0	-3.004045784E-1	-2.167813182E-1	-2.641855776E-1
3.643831882E0	-3.147856593E-1	-1.960086524E-1	-3.818973005E-1
3.646567751E0	-3.201119602E-1	-1.645833552E-1	-4.836300611E-1
3.648125421E0	-3.222424984E-1	-1.235706806E-1	-5.608617067E-1
3.650630059E0	-3.169161677E-1	-7.510114461E-2	-6.157228351E-1
3.651895113E0	-3.036003709E-1	-2.024002373E-2	-6.455502510E-1
3.654685213E0	-2.785666585E-1	4.101268202E-2	-6.428871155E-1
3.656541805E0	-2.487392575E-1	1.070590764E-1	-5.885586143E-1
3.658746098E0	-2.135855258E-1	1.731054783E-1	-5.512743592E-1
3.660050959E0	-1.853560209E-1	2.258360684E-1	-5.310343504E-1
3.662801328E0	-1.656486243E-1	2.657834888E-1	-5.123922229E-1
3.664194382E0	-1.459412277E-1	2.918824553E-1	-4.932174385E-1
3.666912713E0	-1.304948926E-1	3.067961633E-1	-4.649879336E-1
3.668188152E0	-1.150485575E-1	3.174487948E-1	-4.308994710E-1
3.671001328E0	-1.033306494E-1	3.185140789E-1	-3.946804702E-1
3.672704267E0	-9.374327213E-2	3.190467060E-1	-3.398193717E-1
3.675062905E0	-8.735168725E-2	3.126551211E-1	-3.009372056E-1
3.676315267E0	-8.255799860E-2	3.014698327E-1	-2.593919039E-1
3.679116944E0	-8.255799860E-2	2.924150825E-1	-2.247707993E-1
3.681146498E0	-8.788431436E-2	2.775014043E-1	-1.880191714E-1
3.683166597E0	-9.108011425E-2	2.604571581E-1	-1.480717659E-1
3.684897113E0	-1.001348570E-1	2.402171344E-1	-1.118527651E-1
3.687220751E0	-1.091896072E-1	2.237055302E-1	-7.084008306E-2
3.688874536E0	-1.225054115E-1	2.066612989E-1	-3.834952042E-2
3.691295636E0	-1.368864775E-1	1.906823367E-1	-1.012001187E-2
3.692524652E0	-1.528654546E-1	1.720402092E-1	1.331580617E-2
3.695349482E0	-1.704423130E-1	1.528654546E-1	3.781688958E-2
3.696896498E0	-1.890844405E-1	1.379517466E-1	5.752427876E-2
3.699410444E0	-2.066612989E-1	1.262338310E-1	7.297061384E-2
3.700682075E0	-2.247707993E-1	1.182443574E-1	8.522115648E-2
3.703464867E0	-2.391518652E-1	1.123853996E-1	9.906959534E-2
3.704826228E0	-2.524676621E-1	1.086569726E-1	1.123853996E-1
3.707562213E0	-2.647182047E-1	1.107875034E-1	1.251685768E-1
3.708861882E0	-2.732403278E-1	1.139832959E-1	1.395496428E-1
3.711652213E0	-2.790992856E-1	1.166464612E-1	1.539307088E-1
3.713468728E0	-2.822950780E-1	1.187769845E-1	1.688444167E-1
3.715710020E0	-2.854908705E-1	1.209075153E-1	1.853560209E-1
3.716951421E0	-2.854908705E-1	1.262338310E-1	1.997370869E-1
3.719764597E0	-2.870887816E-1	1.326254308E-1	2.130528986E-1
3.721528305E0	-2.838929892E-1	1.432780623E-1	2.263686955E-1
3.723825482E0	-2.849582434E-1	1.486043930E-1	2.306297570E-1
3.725204075E0	-2.801645398E-1	1.512675583E-1	2.423476577E-1
3.727879482E0	-2.753708661E-1	1.592570394E-1	2.476739883E-1
3.729445459E0	-2.700445354E-1	1.683117896E-1	2.663161159E-1
3.731940943E0	-2.652508616E-1	1.693770438E-1	2.695119083E-1
3.733259998E0	-2.583266199E-1	1.725728363E-1	2.790992856E-1
3.735994636E0	-2.535329461E-1	1.731054783E-1	2.902845740E-1
3.737706344E0	-2.412824035E-1	1.784317940E-1	3.036003709E-1
3.740069290E0	-2.311623842E-1	1.869539171E-1	3.131877482E-1
3.741369036E0	-2.183792144E-1	1.917476058E-1	3.222424984E-1
3.744123597E0	-2.055960447E-1	2.018676102E-1	3.312972486E-1
3.745421075E0	-1.858886480E-1	2.141181529E-1	3.435477912E-1
3.748220405E0	-1.667138934E-1	2.306297570E-1	3.589941263E-1
3.749585228E0	-1.459412277E-1	2.444781959E-1	3.669835925E-1
3.752309559E0	-1.251685768E-1	2.620550692E-1	3.707120419E-1
3.754103536E0	-1.107875034E-1	2.727077007E-1	3.701793849E-1
3.756370097E0	-9.374327213E-2	2.812298238E-1	3.659183383E-1
3.757651959E0	-7.723167539E-2	2.918824553E-1	3.515372574E-1
3.760424713E0	-6.072007492E-2	3.014698327E-1	3.419498801E-1
3.762298921E0	-4.101268202E-2	3.158509135E-1	3.190467060E-1
3.764501789E0	-2.130528912E-2	3.328951299E-1	2.945456207E-1
3.765728805E0	3.728425596E-3	3.589941263E-1	2.599245310E-1
3.768556289E0	4.527373984E-2	4.293015897E-1	2.119876295E-1
3.770088344E0	1.091896072E-1	5.624596477E-1	1.390170157E-1
3.772616905E0	1.768338978E-1	6.924219131E-1	8.149272949E-2
3.773883959E0	2.247707993E-1	7.494135499E-1	7.350324839E-2
3.776670905E0	2.476739883E-1	7.169229984E-1	9.267801046E-2
3.778257921E0	2.588592768E-1	6.492787004E-1	1.097222418E-1
3.780694459E0	2.737729549E-1	5.944175720E-1	1.374191195E-1
3.782052959E0	2.961435318E-1	5.640575290E-1	1.768338978E-1
3.784784366E0	3.153182864E-1	5.480785370E-1	2.263686955E-1
3.786091575E0	3.302319944E-1	5.518069863E-1	2.508697808E-1
3.788896366E0	3.366235793E-1	5.805691481E-1	2.524676621E-1
3.790251498E0	3.408846259E-1	6.199839115E-1	2.466087192E-1
3.792985251E0	3.488741219E-1	6.625944972E-1	2.396845073E-1
3.794699767E0	3.542004228E-1	7.179882526E-1	2.221076339E-1
3.797046751E0	3.542004228E-1	7.419567108E-1	2.087918371E-1
3.798688382E0	3.542004228E-1	7.595335841E-1	1.997370869E-1
3.801101443E0	3.526025414E-1	7.664577961E-1	1.901497096E-1
3.803196382E0	3.499393761E-1	7.723167539E-1	1.864212751E-1
3.805171751E0	3.504720032E-1	7.717841268E-1	1.864212751E-1
3.806603959E0	3.536677957E-1	7.744472623E-1	1.885518134E-1
3.809226443E0	3.483414650E-1	7.707188129E-1	1.784317940E-1
3.810971498E0	3.254382908E-1	7.435545921E-1	1.502022892E-1
3.813303059E0	2.998719513E-1	7.073355913E-1	1.070590764E-1
3.814488959E0	2.705771625E-1	6.711165905E-1	6.444849819E-2
3.817357712E0	2.428802997E-1	6.205165386E-1	3.675162420E-2
3.818898998E0	2.210423797E-1	5.752428174E-1	4.793690052E-3
3.821419828E0	1.992044598E-1	5.502091050E-1	-2.396845073E-2
3.822755613E0	1.715075821E-1	4.980111420E-1	-5.539375171E-2
3.825474597E0	1.411475390E-1	4.346278906E-1	-8.202536404E-2
3.826771651E0	1.065264493E-1	3.542004228E-1	-1.086569726E-1
3.829572635E0	6.711166352E-2	2.530003190E-1	-1.246359423E-1
3.830800421E0	2.663161233E-2	1.608549356E-1	-1.326254308E-1
3.833662212E0	-5.858954508E-3	7.297061384E-2	-1.336906850E-1
3.835325882E0	-3.089267015E-2	3.195793368E-3	-1.241033077E-1
3.837737020E0	-3.941478580E-2	-3.675162420E-2	-9.214537591E-2
3.839314844E0	-5.006742850E-2	-8.096009493E-2	-4.687163606E-2
3.841791289E0	-6.924218684E-2	-1.523328125E-1	0.000000000E0
3.843615536E0	-9.108011425E-2	-2.812298238E-1	7.882957160E-2
3.845844905E0	-9.800432622E-2	-3.249056637E-1	1.022653878E-1
3.847468498E0	-1.091896072E-1	-4.101268053E-1	1.528654546E-1
3.849899058E0	-1.225054115E-1	-4.825648069E-1	2.055960447E-1
3.851558382E0	-1.400822699E-1	-5.480785370E-1	2.732403278E-1
3.853959905E0	-1.470064968E-1	-5.651227832E-1	2.966761589E-1
3.855235959E0	-1.571265012E-1	-5.944175720E-1	3.339604139E-1
3.858014751E0	-1.640507281E-1	-6.082659960E-1	3.701793849E-1
3.859621459E0	-1.773665249E-1	-6.061354876E-1	4.250405133E-1
3.862091635E0	-1.858886480E-1	-5.928196907E-1	4.527373910E-1
3.863563882E0	-1.954760253E-1	-5.640575290E-1	4.825648069E-1
3.866147635E0	-2.034655064E-1	-5.315669775E-1	5.060006380E-1
3.867630190E0	-2.071939409E-1	-4.964132309E-1	5.257080197E-1
3.870245481E0	-2.157160491E-1	-4.532700181E-1	5.395564437E-1
3.871575690E0	-2.205097377E-1	-4.053331316E-1	5.534048676E-1
3.874334981E0	-2.263686955E-1	-3.526025414E-1	5.597964525E-1
3.876013344E0	-2.274339646E-1	-2.924150825E-1	5.651227832E-1
3.878397251E0	-2.316950262E-1	-2.306297570E-1	5.656554103E-1
3.879717959E0	-2.316950262E-1	-1.688444167E-1	5.587311983E-1
3.882452827E0	-2.332929224E-1	-1.097222418E-1	5.502091050E-1
3.884326536E0	-2.295644879E-1	-5.379585549E-2	5.331648588E-1
3.886512635E0	-2.300971150E-1	-6.391586736E-3	5.097290277E-1
3.887888844E0	-2.237055302E-1	3.941478580E-2	4.846953154E-1
3.890567520E0	-2.194444835E-1	7.829693705E-2	4.575310946E-1
3.892232113E0	-2.109223604E-1	1.145159304E-1	4.261057973E-1
3.894629097E0	-2.039981484E-1	1.432780623E-1	3.994741738E-1
3.895891498E0	-1.970739216E-1	1.645833552E-1	3.685815036E-1
3.898684366E0	-1.896170676E-1	1.794970632E-1	3.339604139E-1
3.900352382E0	-1.864212751E-1	1.901497096E-1	2.988066673E-1
3.902746789E0	-1.800296903E-1	1.986718178E-1	2.641855776E-1
3.904049805E0	-1.741707325E-1	1.981391907E-1	2.327602804E-1
3.906802289E0	-1.672465205E-1	1.928128600E-1	2.024002522E-1
3.908128190E0	-1.619201899E-1	1.826928556E-1	1.725728363E-1
3.910915058E0	-1.587243974E-1	1.709749401E-1	1.486043930E-1
3.912207305E0	-1.549959779E-1	1.544633508E-1	1.241033077E-1
3.915005366E0	-1.496696621E-1	1.352885813E-1	1.027980223E-1
3.916594690E0	-1.411475390E-1	1.017327532E-1	8.309062570E-2
3.919067712E0	-1.358212233E-1	7.936219871E-2	7.350324839E-2
3.920352344E0	-1.288969964E-1	6.178534031E-2	6.870955974E-2
3.923123443E0	-1.235706806E-1	4.367584363E-2	6.977482140E-2
3.924793036E0	-1.294296384E-1	3.408846259E-2	7.510114461E-2
3.927174866E0	-1.502022892E-1	1.384843793E-2	8.948221803E-2
3.928421574E0	-1.747033745E-1	-1.544633508E-2	1.097222418E-1
3.931229712E0	-1.965412945E-1	-4.846953228E-2	1.320927888E-1
3.932829036E0	-2.119876295E-1	-8.096009493E-2	1.480717659E-1
3.935305789E0	-2.258360684E-1	-1.113201380E-1	1.651159972E-1
3.936519459E0	-2.386192381E-1	-1.395496428E-1	1.810949594E-1
3.939360635E0	-2.535329461E-1	-1.699096859E-1	2.002697140E-1
3.940971805E0	-2.657834888E-1	-1.997370869E-1	2.130528986E-1
3.943421673E0	-2.769687474E-1	-2.242381722E-1	2.247707993E-1
3.944903651E0	-2.865561247E-1	-2.503371537E-1	2.375539690E-1
3.947477289E0	-2.993393242E-1	-2.838929892E-1	2.540655732E-1
3.948769882E0	-3.206445873E-1	-3.275688291E-1	2.700445354E-1
3.951575827E0	-3.435477912E-1	-3.856257200E-1	2.838929892E-1
3.952903690E0	-3.664509654E-1	-4.372910559E-1	2.966761589E-1
3.955666289E0	-3.813646734E-1	-4.740426838E-1	2.998719513E-1
3.957256228E0	-3.866910040E-1	-4.910869002E-1	3.036003709E-1
3.959742673E0	-3.872236311E-1	-4.900216460E-1	3.046656251E-1
3.961005228E0	-3.888215125E-1	-4.948153496E-1	3.131877482E-1
3.963797558E0	-3.978762627E-1	-5.182511806E-1	3.243730366E-1
3.965508151E0	-4.154531360E-1	-5.661880374E-1	3.451456726E-1
3.967868904E0	-4.223773479E-1	-5.869607329E-1	3.515372574E-1
3.969139305E0	-4.303668439E-1	-6.226470470E-1	3.653857112E-1
3.971923789E0	-4.245078862E-1	-6.279733777E-1	3.797667921E-1
3.973594690E0	-3.994741738E-1	-5.603290796E-1	3.888215125E-1
3.975985866E0	-3.850930929E-1	-5.182511806E-1	3.914846778E-1
3.977251997E0	-3.579288721E-1	-4.293015897E-1	3.930825889E-1
3.980041443E0	-3.291667104E-1	-2.977414131E-1	4.149205089E-1
3.982138882E0	-2.940129936E-1	-1.704423130E-1	4.362258017E-1
3.984117904E0	-2.604571581E-1	-5.273059011E-2	4.506068528E-1
3.985389497E0	-2.343581766E-1	4.367584363E-2	4.713795185E-1
3.988173019E0	-2.146507949E-1	1.241033077E-1	4.873584807E-1
3.989473382E0	-1.949433982E-1	1.981391907E-1	5.028048158E-1
3.992270250E0	-1.763012707E-1	2.636529505E-1	5.161206126E-1
3.993657997E0	-1.608549356E-1	3.238403797E-1	5.177185535E-1
3.996360596E0	-1.448759735E-1	3.856257200E-1	5.060006380E-1
3.998062382E0	-1.283643693E-1	4.623247683E-1	4.937500656E-1
4.000422212E0	-1.134506613E-1	5.390238166E-1	4.799016416E-1
4.001617728E0	-1.086569726E-1	5.970807076E-1	4.697816372E-1
4.004476904E0	-1.043959185E-1	6.279733777E-1	4.623247683E-1
4.006244997E0	-1.043959185E-1	6.348975897E-1	4.617921412E-1
4.008550865E0	-1.102548689E-1	6.359629035E-1	4.596616030E-1
4.010094151E0	-1.171790883E-1	6.226470470E-1	4.585963488E-1
4.012606635E0	-1.235706806E-1	5.976133347E-1	4.591289759E-1
4.014118151E0	-1.347559541E-1	5.635249019E-1	4.633900523E-1
4.016668673E0	-1.459412277E-1	5.251753926E-1	4.687163532E-1
4.018044036E0	-1.576591432E-1	4.820321798E-1	4.745753109E-1
4.020724019E0	-1.720402092E-1	4.404868484E-1	4.873584807E-1
4.022271074E0	-1.917476058E-1	3.659183383E-1	5.107942820E-1
4.024785865E0	-2.008023560E-1	3.398193717E-1	5.166532397E-1
4.026127382E0	-2.167813182E-1	2.838929892E-1	5.262406468E-1
4.028840173E0	-2.290318608E-1	2.284992188E-1	5.411543250E-1
4.030157767E0	-2.455434501E-1	1.773665249E-1	5.523396134E-1
4.032952865E0	-2.631203234E-1	1.262338310E-1	5.731122494E-1
