"Time (s)"	"Linear Acceleration x (m/s^2)"	"Linear Acceleration y (m/s^2)"	"Linear Acceleration z (m/s^2)"
1.958300000E-2	5.157887936E-3	-1.116406918E-2	1.028347015E-1
2.753307700E-2	-2.630505860E-1	-1.363098621E-2	2.993335724E-1
3.557380800E-2	-4.600977898E-1	4.917618632E-1	4.174108505E-1
4.363750000E-2	-1.912910461E0	9.336826801E-1	-4.110183716E-1
5.171942300E-2	-1.800292253E0	1.734499454E0	1.330954552E0
5.983157700E-2	-9.831087589E-1	1.539516807E0	3.835465431E0
6.794446200E-2	-2.347248793E-2	2.246644497E-1	2.637759209E0
7.604915400E-2	1.399675369E0	-8.884772062E-1	2.526785851E0
8.420642300E-2	1.955063105E0	-1.084898233E0	2.381074905E0
9.236846200E-2	1.975632071E0	-9.236491919E-1	1.529227257E0
1.004761160E-1	2.006628036E0	-8.704038858E-1	-9.383869171E-2
1.085970390E-1	1.371858954E0	-5.242191553E-1	-4.960079193E-1
1.167132690E-1	1.161119580E0	-1.886735559E-1	-8.672313690E-1
1.248179620E-1	1.040986180E0	2.120053768E-1	-8.129959106E-1
1.330080770E-1	5.230692625E-1	7.372857928E-1	-3.434123993E-1
1.411135390E-1	2.461347580E-1	9.410158396E-1	-1.907730103E-2
1.492246160E-1	-5.041856766E-1	4.870032072E-1	-1.758945465E0
1.573573850E-1	-6.023170948E-1	7.202000022E-1	-3.265124321E0
1.654927310E-1	-3.586463928E-1	6.843756437E-1	-3.147980690E0
1.738745000E-1	-1.125403643E-1	4.505400658E-1	-1.919708252E0
1.817380000E-1	2.643220425E-1	1.540239453E-1	-4.376144409E-1
1.898530770E-1	7.829225063E-1	-2.320954204E-1	4.724960327E-1
1.980053080E-1	6.527546644E-1	-5.077337623E-1	3.836956024E-1
2.061699230E-1	-4.491496086E-2	-4.240245819E-1	6.590480804E-1
2.142751920E-1	-9.822845459E-2	-3.813022375E-2	7.533893585E-1
2.224110770E-1	3.330101967E-1	-7.799416780E-2	8.016490936E-1
2.305105390E-1	3.298221827E-1	-9.600609541E-2	7.997121811E-1
2.388606920E-1	5.149276257E-1	-2.896168232E-1	7.175397873E-1
2.470597310E-1	-5.361390114E-2	-2.307966352E-1	1.721725464E-1
2.551204620E-1	-9.403434992E-1	4.681685567E-1	4.172010422E-1
2.630292690E-1	-5.216115713E-1	2.820351124E-1	-6.323709488E-1
2.711473460E-1	-7.492209673E-1	8.928616643E-1	4.513387680E-1
2.792584620E-1	-6.812805533E-1	8.593158722E-1	6.418714523E-1
2.873949230E-1	-3.085060120E-1	8.361834288E-1	1.191108704E0
2.955842690E-1	7.437813282E-1	1.025939584E-1	1.285444260E0
3.037080390E-1	6.537228823E-1	-1.408299208E-1	1.615062714E0
3.118354230E-1	2.217317820E-1	-9.139534831E-2	1.730635643E0
3.199465390E-1	-4.365538359E-1	-3.384556770E-1	1.468253136E0
3.283263850E-1	-4.459886551E-1	-5.802345872E-1	2.409087181E0
3.362584620E-1	1.220809221E-1	1.444669217E-1	1.813336372E0
3.443858460E-1	1.644228697E-1	3.507035673E-1	1.401638985E0
3.526506920E-1	-9.602260590E-2	4.507221282E-1	6.720600128E-1
3.606440770E-1	-1.657011747E0	-5.645736456E-1	-3.189277649E-2
3.687663080E-1	-1.080471277E0	1.290500164E-2	-1.561720848E0
3.768372310E-1	-7.001194954E-1	3.023906350E-1	-1.491944313E0
3.850771920E-1	-7.555913925E-2	8.407412171E-1	-1.682488918E0
3.930573850E-1	-2.000207901E-1	3.272422552E-1	-1.687154293E0
4.012055380E-1	-5.900802612E-1	1.479020119E-1	-2.223535538E0
4.094130770E-1	-1.696054935E0	3.524593711E-1	-4.298328400E0
4.174679230E-1	-1.941058397E0	7.584725618E-1	-7.403122902E0
4.256236150E-1	-1.348135233E0	1.382000923E0	-5.414778709E0
4.337336540E-1	4.604003429E-1	1.450626373E0	-2.321817875E0
4.418515000E-1	1.905648708E-1	4.380652010E-1	9.975494385E0
4.499982690E-1	-1.276413441E0	8.388335109E-1	9.226218224E0
4.580744620E-1	-4.846595526E-1	-8.489502072E-1	1.619430542E0
4.661615000E-1	1.854557991E-1	-2.082184076E0	1.163297653E0
4.742966540E-1	-7.969964743E-1	-4.217681289E-1	2.917824745E0
4.824075770E-1	-4.635852575E-1	8.464683294E-1	2.749302864E0
4.905221540E-1	9.644163847E-1	1.101142645E0	1.752698898E0
4.987101920E-1	1.753292680E0	1.011134505E0	1.145799637E0
5.068400380E-1	1.703899026E0	9.880357981E-1	2.311620712E-1
5.149358850E-1	1.312477946E0	6.043099165E-1	-9.956598282E-1
5.231059610E-1	1.037884593E0	5.807274580E-2	-7.565574646E-1
5.311653850E-1	1.041977167E0	-2.847973108E-1	1.407918930E-1
5.392558850E-1	1.480905056E0	-2.965141535E-1	7.812709808E-1
5.473788460E-1	1.866050959E0	-2.748665810E-1	4.087591171E-1
5.555438460E-1	2.162191629E0	-2.775171399E-1	-4.072437286E-1
5.637962690E-1	2.140637159E0	-2.142243981E-1	-4.926939011E-1
5.718146920E-1	1.007979393E0	-1.974148154E-1	8.003778458E-1
5.799821150E-1	-6.889539957E-1	-1.214060783E-1	2.111273766E0
5.881243460E-1	-1.027326703E0	-6.341428757E-1	-1.956024170E-1
5.962272310E-1	-1.583943367E-1	-4.827592969E-1	-1.920569420E0
6.043052310E-1	1.375823021E-1	3.431971073E-1	-1.854434967E0
6.124275770E-1	5.611968040E-1	8.615671396E-1	-1.984050751E0
6.206994230E-1	9.587833881E-1	7.334300280E-1	-1.939875603E0
6.287786540E-1	1.029700279E0	3.877591491E-1	-1.758920670E0
6.369279610E-1	1.050692558E0	2.268368006E-2	-1.530404091E0
6.449595770E-1	1.050969124E0	-3.313435316E-1	-1.202570915E0
6.531542310E-1	1.104621649E0	-6.603748798E-1	-9.092197418E-1
6.613439230E-1	9.984426498E-1	-8.617233634E-1	-1.164072037E0
6.693846540E-1	7.982988358E-1	-7.500857711E-1	-1.183186531E0
6.775224610E-1	3.214838505E-1	-9.144583941E-1	-1.184703827E0
6.856416920E-1	1.151044369E-1	-1.028676748E0	-1.432102203E0
6.938223070E-1	-3.376984596E-1	-1.275527120E0	-1.880644798E0
7.019844610E-1	-4.023883343E-1	-1.184169888E0	-1.830019951E0
7.102500380E-1	-6.262021065E-1	-9.776706696E-1	-1.503886223E0
7.182521150E-1	-3.617851734E-1	-7.835279703E-1	-1.746053696E0
7.264154230E-1	-7.635982037E-1	-4.022955596E-1	-2.123085976E0
7.344393460E-1	-7.250006199E-1	-2.097200155E-1	-2.913004398E0
7.426187310E-1	-2.935130596E-1	1.482369900E-1	-2.047637939E0
7.507393460E-1	1.519079208E-1	7.673311830E-1	-9.977340698E-1
7.588566150E-1	4.860811234E-1	4.769736528E-1	-9.277458191E-1
7.670046540E-1	8.839466572E-1	-6.353038549E-2	-1.489107132E0
7.750798070E-1	5.530269146E-1	-2.002358735E-1	-1.782922745E-1
7.831795380E-1	5.505814552E-1	-3.850266337E-1	-6.519622803E-1
7.912990000E-1	-2.422008514E-1	-6.072592139E-1	-9.059610367E-1
7.993843070E-1	-8.205952644E-1	-9.204457998E-1	-8.640756607E-1
8.075879610E-1	-1.313597202E0	-1.073985934E0	-1.218389988E0
8.156461150E-1	-1.459275961E0	-1.137344599E0	-1.744335175E0
8.238435380E-1	-6.104307175E-1	-1.234711885E0	-1.114997864E0
8.322418840E-1	-6.408081055E-1	-1.000985384E0	-8.487958908E-1
8.400129230E-1	-1.211994648E0	-8.214032054E-1	-1.442353725E0
8.481239230E-1	-4.961774349E-1	-3.446265161E-1	-1.672122955E0
8.562691920E-1	-6.254489422E-1	-8.481472731E-2	-2.034670830E0
8.644197690E-1	-7.355768681E-1	4.841582775E-1	-1.327826500E0
8.725468070E-1	-6.398131847E-1	7.017197013E-1	-1.909002304E0
8.805606150E-1	-1.205444574E0	-4.990234375E-1	-2.525415897E0
8.887620770E-1	-4.979362488E-1	-6.667407155E-1	-1.050530434E0
8.969536920E-1	4.082341194E-1	-8.919148445E-1	-9.330077171E-1
9.050098070E-1	1.468710899E-1	-1.270713210E0	-6.969494820E-1
9.132659230E-1	-5.230970383E-1	-8.895354867E-1	-2.569189072E-1
9.212898460E-1	-6.809391975E-1	-8.700923920E-1	-7.230844498E-1
9.293685000E-1	-4.888696671E-1	-1.030730844E0	-6.780543327E-1
9.375646920E-1	-4.806327820E-1	-1.429607391E0	-4.674577713E-1
9.458548460E-1	-1.148444176E0	-1.748666286E0	-6.968607903E-1
9.539646530E-1	-1.590970278E0	-1.904433489E0	-6.925859451E-1
9.619609610E-1	-1.671794653E0	-2.277033329E0	-1.319894791E-1
9.700165770E-1	-1.469286442E0	-2.837860823E0	2.349281311E-1
9.782205380E-1	-1.447139263E0	-3.211248636E0	5.296201706E-1
9.863609230E-1	-1.517662525E0	-3.439584732E0	1.275671005E0
9.945901920E-1	-1.107039452E0	-3.852582216E0	1.928196907E0
1.002641807E0	-7.795124054E-1	-4.237275124E0	2.195629120E0
1.010686153E0	-3.935093880E-1	-4.159683228E0	2.362870216E0
1.018819576E0	-4.057259560E-1	-3.833191872E0	2.584620476E0
1.026953576E0	-3.223710060E-1	-3.619755268E0	2.576782227E0
1.035050423E0	-6.737470627E-1	-3.477356434E0	2.993528366E0
1.043158000E0	-1.103848934E0	-3.586983919E0	3.423818588E0
1.051266576E0	-9.320564270E-1	-3.591910124E0	3.734953880E0
1.059495000E0	-1.118429184E0	-3.019265652E0	4.078804970E0
1.067825038E0	-9.668436050E-1	-3.072010756E0	3.861428261E0
1.075701423E0	-8.464884758E-1	-2.355799913E0	4.550062180E0
1.083805346E0	-1.303583145E0	-1.755890489E0	4.337242126E0
1.091973076E0	-1.692252398E0	-1.494387269E0	3.808328629E0
1.100054769E0	-1.916570187E0	-1.084804654E0	3.570572853E0
1.108149538E0	-1.900569439E0	-7.438321114E-1	3.468764305E0
1.116331846E0	-1.895514011E0	-5.807964802E-1	3.357568741E0
1.124373115E0	-1.636983156E0	-4.729661345E-1	3.408398628E0
1.132522346E0	-1.652484179E0	-3.646563292E-1	3.378156662E0
1.140675423E0	-1.955960035E0	-4.459758401E-1	3.233029366E0
1.148819807E0	-2.322686672E0	-5.644083619E-1	3.036359787E0
1.156991192E0	-2.664641857E0	-5.719904304E-1	2.428856850E0
1.165131038E0	-2.814218521E0	-5.430682302E-1	1.931249619E0
1.173230115E0	-3.080502033E0	-7.061240673E-1	1.579319000E0
1.181404769E0	-2.952531576E0	-1.113904476E0	1.518704414E0
1.189486499E0	-2.425917387E0	-1.467634439E0	1.346340179E0
1.197573307E0	-1.949285269E0	-1.605579734E0	1.471800804E0
1.205642269E0	-1.943849802E0	-1.876559734E0	1.394897461E0
1.214022423E0	-1.745068789E0	-2.056571007E0	1.309920311E0
1.222001807E0	-1.562802315E0	-1.874035954E0	1.338583946E0
1.230061692E0	-1.668631792E0	-1.542404294E0	1.103924751E0
1.238794230E0	-1.733391047E0	-1.426732659E0	7.499542236E-1
1.246414307E0	-1.517737389E0	-1.329395294E0	8.262834549E-1
1.254446999E0	-1.419310570E0	-1.337180734E0	1.045256615E0
1.262582192E0	-1.492472410E0	-1.308125019E0	7.933616638E-1
1.270658269E0	-1.377492428E0	-1.057615399E0	7.230997086E-1
1.278772269E0	-1.014195681E0	-9.770947695E-1	7.740297318E-1
1.286876615E0	-7.424812317E-1	-8.231956959E-1	6.688795090E-1
1.295026999E0	-4.746861458E-1	-5.766525269E-1	6.960220337E-1
1.303128307E0	-5.619297028E-1	-1.840817928E-1	4.022769928E-1
1.311292730E0	-8.098266125E-1	9.077215195E-2	-6.449985504E-2
1.319508999E0	-8.444576263E-1	2.790832520E-1	-4.295387268E-1
1.327545884E0	-6.033632755E-1	4.291303158E-1	-3.527069092E-1
1.335648615E0	-1.393609047E-1	3.733091354E-1	-3.538236618E-1
1.343974269E0	-1.930103302E-1	4.051058292E-1	-6.389932632E-1
1.351989269E0	-2.751131058E-1	6.992954016E-1	-9.256510735E-1
1.360094499E0	-3.551015854E-1	8.259940147E-1	-1.164273739E0
1.368251769E0	-5.183076859E-2	6.292462349E-1	-1.228265285E0
1.376366615E0	3.306846619E-1	6.598751545E-1	-6.736464500E-1
1.384486692E0	6.182799339E-1	8.652939796E-1	-6.195263863E-1
1.392675230E0	8.991336823E-1	1.211403728E0	-1.016067028E0
1.400973769E0	1.262420654E0	2.144868851E0	-1.255323887E0
1.408956807E0	1.235199451E0	5.099437714E0	-3.080931187E0
1.417173499E0	3.231724739E0	3.891446114E0	-3.148593903E0
1.425143307E0	5.028895855E0	1.357041240E0	-1.258945465E-1
1.432324461E0	3.324241161E0	1.037975788E0	2.422780991E0
1.440454922E0	1.115904808E0	1.360652447E-1	-1.491672516E0
1.448537153E0	2.498263836E0	-1.208724976E-1	6.409807205E-1
1.455459644E0	3.172827244E0	-2.393641472E-1	1.558595657E0
1.456667538E0	3.519986629E0	-3.494973183E-1	1.237772942E0
1.464870307E0	3.507635593E0	-5.724751949E-1	7.860050201E-1
1.472971268E0	2.608876228E0	-4.273653030E-1	1.382735252E0
1.481089153E0	1.940144062E0	-3.646421432E-1	2.897198677E0
1.489295268E0	3.420867920E0	-5.610871315E-1	1.139499664E0
1.497479807E0	2.966558456E0	-3.493649960E-1	9.264135361E-1
1.505445422E0	3.332298756E0	-3.247761726E-2	1.694795609E0
1.513639999E0	3.859254837E0	1.160135984E0	5.656595230E-1
1.522152115E0	3.156164169E0	1.444692612E0	-4.918098450E-2
1.529846192E0	2.486493587E0	5.674333572E-1	5.857248306E-1
1.537950422E0	2.541437626E0	-5.275475979E-1	1.582618713E0
1.546114268E0	2.085803509E0	-1.094658971E0	2.734460831E-1
1.554281422E0	1.964111328E0	-9.865401983E-1	1.009431839E0
1.562397884E0	2.866157055E0	-1.148461103E0	5.838632584E-1
1.570579230E0	2.671961784E0	-1.034966588E0	9.839801788E-1
1.578614538E0	1.618822575E0	-1.958746314E0	8.257331848E-1
1.586758153E0	1.550027370E0	-2.708483934E0	3.828020096E-1
1.594952807E0	1.364069462E0	-3.152007103E0	9.244098663E-1
1.603154076E0	-1.372809410E-1	-4.823069096E0	-3.630733490E-2
1.611177499E0	6.232099533E-1	-5.081325054E0	-4.838333130E-1
1.619312345E0	9.453320503E-1	-4.343337059E0	-4.513969421E-1
1.627504538E0	7.540445328E-1	-4.391066074E0	-1.146492958E0
1.635616538E0	4.752793312E-1	-4.973633289E0	-8.530945778E-1
1.643757268E0	1.286823750E0	-4.992268562E0	-7.817802429E-1
1.651924961E0	1.645020962E0	-4.459686279E0	-1.008948803E0
1.659990230E0	1.327383518E0	-3.859148979E0	-1.032316685E0
1.668142884E0	4.949827194E-1	-2.406708479E0	-8.934030533E-1
1.676211614E0	-2.290349007E-1	-1.274143696E0	-1.308090687E0
1.684302268E0	-9.800763130E-1	-7.409418821E-1	-2.390700817E0
1.692402038E0	-2.144659281E0	-7.161599994E-1	-2.545128345E0
1.700649922E0	-2.577265501E0	-1.375611663E0	-2.404600620E0
1.708600384E0	-3.820349693E0	-3.375758648E0	-2.071459770E0
1.716774768E0	-3.657620907E0	-4.943494797E0	-3.179152966E0
1.724903114E0	-3.843909979E0	-5.531365395E0	-3.182336807E0
1.733030999E0	-6.482496262E0	-4.405129910E0	-4.377444744E0
1.741119461E0	-6.241507053E0	-6.046878815E0	-6.930782318E0
1.749329691E0	-4.228337288E0	-8.423006058E0	-7.147753239E0
1.757356384E0	-2.613206387E0	-6.046096325E0	-7.912067413E0
1.765500691E0	-2.371681690E0	-2.619555235E0	-7.550538063E0
1.773655961E0	-3.171735764E0	1.878456354E0	-3.491170406E0
1.781675807E0	-8.235270977E-1	2.647251606E0	5.072525024E0
1.790037384E0	-3.242390633E0	3.468399048E0	1.393134594E1
1.798028614E0	-9.057706833E0	6.077441216E0	1.677384186E1
1.806060537E0	-7.616668701E0	6.942691326E0	1.035055161E1
1.814367614E0	-3.302392483E0	5.986732960E0	4.953532219E0
1.822377845E0	-2.144912243E0	5.232197285E0	2.605212212E0
1.830516461E0	-1.759274483E0	3.704619408E0	3.388000488E0
1.838608268E0	-1.597679615E0	2.612343788E0	6.797719002E0
1.846644614E0	-1.155605316E-1	-1.120824337E0	5.601093292E0
1.854767537E0	-4.074363708E-1	-2.728371859E0	4.148385048E0
1.862959922E0	3.676047325E-1	-3.761378765E0	2.347521782E0
1.870977614E0	-9.305267334E-1	-4.301171303E0	-2.624835968E-1
1.879166076E0	1.321107388E0	-3.759249210E0	-1.580353260E0
1.886119027E0	3.915934563E0	-3.551127911E0	-1.675510406E0
1.887551537E0	4.368438721E0	-3.543945312E0	-1.555799961E0
1.895459614E0	2.560662270E0	-2.620684624E0	-1.948485851E0
1.903555845E0	3.325176239E-1	-1.280197382E0	-1.951037407E0
1.911714807E0	1.631495953E0	-5.816841125E-1	-2.726454258E0
1.919999230E0	1.113448143E0	2.115496397E-1	-3.283552170E0
1.927975422E0	-1.270405531E0	1.161162257E0	-1.618316174E0
1.936154114E0	-2.346648693E0	1.710850596E0	6.372871399E-1
1.944109076E0	-2.471743584E0	2.053581715E0	1.725184441E0
1.952329884E0	-1.624035597E0	2.998254776E0	1.906747818E0
1.960460076E0	-1.148955345E0	3.446000099E0	8.325901031E-1
1.968545999E0	-1.578181982E0	2.585094213E0	8.073234558E-2
1.976716691E0	-1.343375683E0	1.713259339E0	-8.942213058E-1
1.984770653E0	-8.380863667E-1	1.376478076E0	-1.663166046E0
1.992874153E0	-4.493360519E-1	1.711890459E0	-2.316515923E0
2.001083422E0	-3.989310265E-1	-2.360669613E0	9.498920441E-1
2.009287114E0	1.675233364E0	-1.604865837E1	6.094397545E0
2.017381653E0	-4.107108116E-1	-6.465255737E0	-5.312502861E0
2.025424499E0	-1.111833096E0	3.130511045E0	-8.648922920E0
2.033596730E0	-1.384003162E0	3.836599350E0	-9.078302383E-1
2.041946807E0	-2.311959267E-1	1.954987764E0	4.078680992E0
2.049906845E0	-2.251918316E0	2.140659332E0	3.865386009E0
2.058023730E0	-3.438386440E0	2.443810940E0	3.000581741E0
2.066073845E0	-2.840706110E0	9.107518792E-1	3.094594002E0
2.074264230E0	-2.081342220E0	-3.804823160E-1	2.678585052E0
2.082406691E0	-1.544975281E0	-7.378855348E-1	2.009938240E0
2.090518730E0	-1.228507996E0	-8.066526055E-1	1.047391891E0
2.098964999E0	3.378474712E-1	-9.487509727E-1	6.687612534E-1
2.106787345E0	-7.957744598E-2	-2.220666647E0	1.688499451E-1
2.114852960E0	4.754579067E-1	-4.182745934E0	-8.231105804E-1
2.123020576E0	1.027259827E-1	-2.532925844E0	-1.931460381E0
2.131235576E0	1.148062229E0	-2.124893904E0	-2.729400158E0
2.139489076E0	6.203896999E-1	-1.963794708E0	-2.079905987E0
2.147416883E0	-9.310309887E-1	-1.280337214E0	-2.881326675E-1
2.155675614E0	-4.121446133E0	-1.021963596E0	2.213973999E0
2.163665230E0	-7.011634827E0	-1.864023209E0	2.337444305E0
2.172026306E0	-7.037372589E0	-5.515090942E0	2.419168472E0
2.179951460E0	-5.007206917E0	-3.088691235E0	2.194894791E0
2.188050383E0	-1.309948206E0	-2.452740669E0	2.869062424E-1
2.196117422E0	8.170504570E-1	-1.650546908E0	-2.580605507E0
2.204288422E0	3.198318958E0	-1.455988884E-1	-4.099907875E0
2.212672383E0	5.573314190E0	2.659673452E0	-4.775324345E0
2.220488883E0	8.438350677E0	2.844162941E0	-2.850056648E0
2.228719537E0	8.258694649E0	3.246640444E0	-6.234369278E-1
2.236753691E0	6.098474503E0	3.533295155E0	9.582557678E-1
2.244975691E0	3.296597958E0	4.236838818E0	8.723678589E-1
2.253114229E0	1.540415764E0	5.455079556E0	5.816097260E-1
2.261165691E0	1.322680950E0	5.737189770E0	4.137468338E-1
2.268107334E0	1.564441204E0	5.170922756E0	5.237884521E-1
2.269301960E0	1.526134014E0	4.948261738E0	4.495687485E-1
2.277462229E0	1.206389427E0	4.394256115E0	2.798290253E-1
2.285674653E0	8.973627090E-1	3.591041088E0	7.250881195E-2
2.293923768E0	3.463864326E-1	2.968585968E0	-1.460628510E-1
2.301873614E0	2.795815468E-1	2.915297270E0	-4.659175873E-2
2.310003037E0	6.852378845E-1	3.006547213E0	-3.386106491E-1
2.318092537E0	7.552418709E-1	3.246632099E0	-3.856925964E-1
2.326291691E0	8.066911697E-1	2.786885977E0	-2.242240906E-1
2.334407345E0	1.025078773E0	2.353815794E0	-6.241211891E-1
2.342533229E0	6.614346504E-1	1.514539123E0	-6.405487061E-1
2.350728422E0	3.268566132E-1	1.618428946E0	-4.435853958E-1
2.358825383E0	-7.380943298E-1	1.521259308E0	-7.100443840E-1
2.366977460E0	-1.014061213E0	1.627600908E0	-3.090286255E-2
2.375197268E0	-1.187316656E0	9.154832363E-1	2.112197876E-1
2.383209191E0	-1.627870798E0	3.587983251E-1	1.813030243E-1
2.399448076E0	-2.056377649E0	-1.699494123E-1	-1.032934189E-1
2.407611306E0	-1.740175724E0	-2.982394695E-1	2.217617035E-1
2.415722768E0	-1.356745243E0	-3.038749099E-1	5.251483917E-1
2.423876922E0	-4.789390564E-1	-7.615821958E-1	7.469148636E-1
2.431971575E0	-3.088188171E-2	-1.109697819E0	1.531515121E-1
2.440159114E0	7.056899071E-1	-1.719540000E0	-2.812805176E-1
2.448309152E0	1.334199905E0	-1.542466879E0	-6.150121689E-1
2.456513729E0	7.617950439E-1	-7.354314327E-1	-6.070942879E-1
2.464565460E0	1.913728714E-1	-7.923699617E-1	4.293823242E-2
2.472617345E0	2.200225353E0	-2.133993626E0	9.257202148E-1
2.480747037E0	3.261231422E0	-4.029145718E0	1.023606300E0
2.488957152E0	1.436908722E0	-1.318278551E0	1.462281227E0
2.497414575E0	5.531358719E-2	6.685245633E-1	9.257869720E-1
2.505269075E0	-6.529283524E-1	9.616996646E-1	3.480510712E-1
2.513305922E0	-9.894006252E-1	4.144876003E-1	2.047786713E-1
2.521452268E0	-5.145511627E-1	1.300457120E-1	-2.476844788E-1
2.529597075E0	6.361341476E-2	-1.111012101E-1	-1.601209641E-1
2.538119498E0	-5.026960373E-2	4.019711614E-1	-2.401924133E-1
2.545980383E0	-5.393934250E-1	8.966750503E-1	-7.554550171E-1
2.553955998E0	-1.370393276E0	5.991497040E-1	-9.712586403E-1
2.562155537E0	-1.805779934E0	-4.218682051E-1	-9.115390778E-1
2.570293229E0	-2.147254705E0	-1.522377372E0	-8.863692284E-1
2.578519922E0	-2.116925001E0	-2.756212234E0	-5.231113434E-1
2.586523037E0	-1.377383232E0	-3.647785902E0	-3.903102875E-2
2.594605306E0	-3.600792885E-1	-3.652053595E0	-4.753875732E-2
2.602749075E0	4.223461151E-1	-4.349678040E0	-3.211608410E0
2.610940114E0	-4.307627678E-1	-3.540260553E0	3.398679733E0
2.619092922E0	4.948139191E-1	-3.781988621E0	-5.751028061E-1
2.627164998E0	-2.886390686E-1	-4.083833218E0	4.233236313E-1
2.635283575E0	-6.145653725E-1	-3.304689407E0	-1.336454868E0
2.643432383E0	8.420100212E-1	-2.167382002E0	-1.428040981E0
2.651598268E0	4.687342644E-1	8.975889683E-1	4.210472107E-3
2.659725729E0	4.206600189E-1	8.291119337E-1	2.534298897E0
2.667917921E0	9.877052307E-1	-3.297272027E-1	2.956676483E0
2.675965152E0	8.128185272E-1	-2.815818787E-1	1.793652534E0
2.684218960E0	6.464614868E-1	1.890752763E-1	4.057321548E-1
2.692249345E0	3.764901161E-1	4.046907127E-1	-7.171244621E-1
2.700374537E0	-5.547404289E-1	4.624356627E-1	-7.930369377E-1
2.708624345E0	-2.506713867E-1	3.712043762E-1	-1.407030582E0
2.716622421E0	6.989059448E-1	-6.052194238E-1	-1.525424480E0
2.724688921E0	1.697720051E0	-1.880018592E0	-1.319901466E0
2.732916883E0	2.132700443E0	-2.149877787E0	-1.062456131E0
2.741034460E0	1.949940205E0	-1.898979425E0	-6.165289879E-1
2.749180729E0	1.285522461E0	-1.646134973E0	-2.692503929E-1
2.757285191E0	2.505388260E-1	-1.421401858E0	3.597450256E-2
2.765530883E0	-1.609277725E-2	-1.516107321E0	4.831581116E-1
2.773581460E0	-2.442445755E-1	-1.534199834E0	9.658966064E-1
2.780465409E0	-7.192206383E-1	-1.341786504E0	1.149677277E0
2.781670537E0	-8.078060150E-1	-1.262777925E0	1.125735283E0
2.789869114E0	-8.683676720E-1	-7.545601130E-1	9.758863449E-1
2.798229114E0	-1.042970657E0	-2.576076090E-1	7.426481247E-1
2.806027460E0	-1.130101681E0	-6.780034304E-2	4.568471909E-1
2.814220268E0	-1.017462730E0	5.328321457E-2	1.667652130E-1
2.822394229E0	-7.576966286E-1	2.107045799E-1	-5.992221832E-2
2.830459844E0	-5.654630661E-1	5.313327909E-2	-2.901673317E-1
2.838777921E0	-2.812767029E-1	-1.176228523E-1	-3.471207619E-1
2.846871614E0	1.329469681E-1	-4.614314437E-1	-3.966164589E-1
2.854876267E0	1.309251785E-1	-3.986735940E-1	-5.389637947E-1
2.863124652E0	3.295416832E-1	-3.370847702E-1	-5.413866043E-1
2.871311883E0	5.335025787E-1	-1.529146433E-1	-4.868435860E-1
2.879326306E0	5.613903999E-1	5.847185850E-2	-4.723620415E-1
2.887389575E0	4.712734222E-1	7.574063540E-2	-2.892093658E-1
2.895453537E0	3.447594643E-1	-3.020989895E-1	-3.957462311E-2
2.903579883E0	4.088969231E-1	-5.305330157E-1	-5.416965485E-2
2.911724075E0	6.825246811E-1	-5.077173114E-1	-4.135322571E-2
2.919862806E0	9.349899292E-1	-4.067251682E-1	-7.499408722E-2
2.927943306E0	-2.062892914E-1	-4.333329797E-1	-2.216625214E-2
2.936119306E0	-7.301130295E-1	-3.955605626E-1	-1.939983368E-1
2.944286152E0	7.751560211E-2	-5.618699789E-1	-2.481079102E-1
2.952410460E0	-1.893606186E-1	-4.012864828E-1	-1.031169891E-1
2.960455844E0	4.789872169E-1	5.236824751E-1	4.992027283E-1
2.968811844E0	8.173942566E-1	8.607320189E-1	4.991235733E-1
2.976870152E0	3.356828690E-1	5.731722713E-1	3.767614365E-1
2.985109690E0	-1.494922638E-1	-3.775238991E-3	4.270648956E-1
2.993013114E0	-2.168383598E-1	-1.765817404E-1	2.599892616E-1
3.001108537E0	1.210813522E-1	6.660693884E-2	-1.319060326E-1
3.009291537E0	5.603551865E-1	4.753679037E-2	-9.440755844E-2
3.017560460E0	4.071507454E-1	6.125068665E-2	-4.097156525E-1
3.025664883E0	-4.826183319E-1	4.675453901E-2	-4.362387657E-1
3.033837729E0	-1.621613503E-1	-1.031378508E-1	-1.914453506E-2
3.041854729E0	3.501605988E-2	-1.809765697E-1	5.425500870E-2
3.050082190E0	-1.931538582E-1	-2.531414032E-1	6.684970856E-2
3.058149267E0	-2.084155083E-1	-4.199098945E-1	2.836394310E-1
3.066288806E0	2.601914406E-1	-4.050027132E-1	4.382133484E-1
3.074372690E0	2.786822319E-1	-3.370527029E-1	2.801074982E-1
3.082538613E0	3.122525215E-1	-2.218432426E-1	2.807965279E-1
3.090651152E0	2.777590752E-1	-9.652554989E-2	2.207350731E-1
3.098804306E0	-4.357671738E-1	1.908455491E-1	2.761592865E-1
3.107054921E0	2.939367294E-1	4.448324442E-2	6.732940674E-4
3.115041229E0	3.224158287E-1	5.621892214E-2	-3.016119003E-1
3.123269844E0	-2.934308052E-1	7.413607836E-2	-8.695130348E-1
3.131393152E0	-3.091940880E-1	1.680104733E-1	-7.308926582E-1
3.139473537E0	-2.559180260E-1	-2.096557617E-2	-1.665377617E-1
3.147586344E0	1.117693901E0	1.344924450E0	3.081374168E-1
3.155698460E0	9.972386360E-1	4.187053442E-1	2.606525421E-1
3.163897613E0	-9.437260628E-1	4.620864093E-1	3.137326241E-1
3.171952152E0	-1.027269363E0	-3.581978679E-1	1.528654099E-1
3.180387844E0	-1.107883453E-1	-6.701115966E-1	3.436269760E-1
3.189051369E0	2.515516281E-1	-8.064646721E-1	4.246377945E-2
3.196411229E0	5.763440132E-1	-9.588490725E-1	-1.427040100E-1
3.204550921E0	4.557437897E-1	-7.871626616E-1	-8.350572586E-1
3.212662652E0	-2.358427048E-1	-2.061721683E-1	-3.988237381E-1
3.220867498E0	-6.996159554E-1	6.934344769E-2	-2.045464516E-1
3.228962190E0	-3.762693405E-1	-7.707852125E-2	-2.037382126E-1
3.237048921E0	2.408456802E-1	-3.997738361E-1	-2.122015953E-1
3.245185075E0	1.900014877E-1	-3.586821556E-1	-1.010413170E-1
3.253318536E0	1.227911472E0	1.613180041E-1	-2.253212929E-1
3.261473344E0	1.408877373E-1	6.562364101E-1	-9.198808670E-2
3.269656267E0	6.374607086E-1	5.501263142E-1	1.275596619E-1
3.277716536E0	2.314098358E0	2.373837829E-1	-1.549777985E-1
3.285853075E0	7.052407265E-1	9.706781507E-1	-1.451978207E0
3.294084036E0	-2.769729137E0	1.954709768E0	-1.028518677E0
3.302182729E0	-3.401361942E0	8.327873945E-1	8.119487762E-1
3.310277306E0	2.051715851E-1	-9.280875325E-1	1.208540440E0
3.318377883E0	2.639422417E0	-2.057979584E0	2.443466187E-1
3.326515998E0	1.874891758E0	-1.796796679E0	8.990859985E-2
3.334704152E0	9.642748833E-1	-6.588520408E-1	2.314424515E-1
3.341594253E0	1.518335342E0	-1.359617710E-2	-2.346763611E-1
3.342841498E0	2.021117687E0	4.341195226E-1	-2.322821617E-1
3.350939921E0	5.697631836E-2	1.018680811E0	-3.680553436E-1
3.359155421E0	-5.425128937E-1	1.133381486E0	1.041555405E-2
3.367218306E0	-7.028989792E-1	3.128072023E-1	1.526207924E-1
3.375393383E0	-1.089438915E0	-1.514196396E-3	5.652303696E-1
3.383499306E0	-1.226630688E0	-6.030116677E-1	-1.244020462E-1
3.391648075E0	-4.259208679E0	-1.469516039E0	8.080320358E-1
3.399720729E0	-2.314411163E0	-1.217659712E0	8.938279152E-1
3.407811613E0	-3.180589676E-1	-5.256682634E-1	-5.303120613E-1
3.415987075E0	-8.686418533E-1	-9.374099970E-1	-8.021593094E-2
3.424181459E0	-1.122630596E0	-1.331116319E0	4.475598335E-1
3.432456036E0	-1.538524628E0	-8.818897009E-1	1.397410393E0
3.440363382E0	-7.487320900E-1	-3.918335438E-1	7.745447159E-1
3.448865959E0	1.245641708E-1	-1.167484522E-1	5.848221779E-1
3.456655421E0	5.700139999E-1	-1.329879761E-1	4.013886452E-1
3.464803075E0	-4.741964340E-1	2.376805544E-1	1.166100502E0
3.471751868E0	-5.367665291E-1	4.208171368E-2	-6.789398193E-2
3.472927536E0	-3.619899750E-1	-9.917616844E-2	-2.714014053E-1
3.481136998E0	-6.429476738E-1	-4.454225302E-1	-1.008759022E0
3.489173152E0	-5.775957108E-1	-5.137817860E-1	-1.369055748E0
3.497324536E0	-1.129799366E0	-3.105710745E-1	-1.479568005E0
3.505464267E0	-1.603791714E0	-2.519826889E-1	-1.027819157E0
3.514057652E0	-2.071007729E0	-5.326496363E-1	-5.471768379E-1
3.521989575E0	-8.604869843E-1	-9.454026222E-1	6.808805466E-2
3.530301152E0	7.501850128E-1	-6.121417284E-1	8.920049667E-2
3.537958344E0	2.333109379E0	2.690724134E-1	-2.919878960E-1
3.546110613E0	3.858899593E0	1.462860465E0	-6.860542297E-1
3.554242998E0	3.639374256E0	2.176751614E0	-1.628987312E0
3.562354921E0	3.552849293E0	2.395703316E0	-1.786877155E0
3.570484959E0	3.235766411E0	1.957691669E0	-2.285909653E-1
3.578627613E0	1.766384602E0	1.557697535E0	8.435420990E-1
3.586779152E0	1.339581490E0	9.293547869E-1	6.765170097E-1
3.594929536E0	1.708287239E0	4.158681631E-1	5.884552002E-2
3.603074305E0	5.531978607E-2	3.454558849E-1	-7.313251495E-3
3.611220536E0	-2.918243408E-2	5.533808470E-1	-7.518482208E-2
3.619323690E0	-1.770687103E-2	3.856476545E-1	-3.345489502E-3
3.627454959E0	1.024762154E0	1.338888407E-1	-2.801012993E-1
3.635679036E0	4.269746304E0	2.533670664E-1	-2.299699783E-1
3.643713998E0	4.542751312E0	9.072426558E-1	-7.483897209E-1
3.651839536E0	3.669310570E0	1.731042147E0	-4.080286026E-1
3.659978305E0	-1.450963020E-1	1.330649853E0	5.926189423E-1
3.668134728E0	4.828495979E-1	9.180376530E-1	4.223489761E-1
3.676265459E0	-6.444206238E-1	3.107604980E-1	1.677274704E-1
3.684669113E0	-1.316219330E0	-6.980981827E-1	-3.509178162E-1
3.692477959E0	-1.723760605E0	-1.805087686E0	-9.516563416E-1
3.700628305E0	-1.705068588E0	-2.124810219E0	-1.236433506E0
3.708798613E0	-1.739911556E0	-1.882131815E0	-1.006059647E0
3.716900844E0	-1.694900990E0	-1.422461271E0	-4.877533913E-1
3.725145113E0	-1.134814739E0	-9.107093811E-1	-8.477926254E-2
3.733127075E0	-7.943892479E-1	-5.004656315E-1	1.817851067E-1
3.741311459E0	-5.167608261E-1	-2.660667896E-1	3.105716705E-1
3.749457882E0	-5.324206352E-1	-1.362290382E-1	5.624675751E-1
3.757631690E0	8.865261078E-2	-1.336948872E-1	4.727635384E-1
3.765684998E0	8.685894012E-1	-1.448774338E-1	6.625633240E-1
3.773834075E0	3.124058723E0	-5.200905800E-1	1.871788979E0
3.782013459E0	-6.776342392E-1	5.950403214E-2	9.424276352E-1
3.790139998E0	9.751129150E-2	1.934635639E-1	3.354120255E-1
3.798642498E0	9.159927368E-1	4.188526869E-1	-7.582187653E-3
3.806554728E0	8.502116203E-1	3.882901669E-1	1.606979370E-1
3.814482690E0	2.377356052E0	1.185380816E0	-7.874031067E-1
3.822711651E0	2.197991848E0	9.952485561E-1	-8.065476418E-1
3.830793190E0	1.794064999E0	1.072567225E0	-1.615304470E0
3.839258190E0	-6.095137596E-1	1.946326971E0	-1.042352676E0
3.847417344E0	-2.371882677E0	2.050984144E0	-1.054339886E0
3.855177574E0	-1.787292480E0	1.002586126E0	-1.419712067E0
3.863521998E0	-1.396737099E0	1.540181637E-1	-1.427462101E0
3.871520498E0	-7.371745110E-1	-6.961920261E-1	-1.388761997E0
3.879599805E0	-2.852816582E-1	-1.219686270E0	-1.081445217E0
3.887711151E0	6.063938141E-1	-1.416373253E0	-5.367269516E-1
3.895847459E0	1.202663898E0	-1.729146004E0	3.484058380E-2
3.903998190E0	1.655571938E0	-2.080946922E0	2.640647888E-1
3.912151421E0	1.658315659E0	-2.162574530E0	4.809026718E-1
3.920284190E0	1.314640999E0	-2.084858418E0	6.341915131E-1
3.928413036E0	3.145809174E-1	-2.022697210E0	-8.294630051E-2
3.936509690E0	-1.485590935E-1	-1.737848520E0	-3.210449219E-2
3.944653844E0	-2.580995560E-1	-1.571047068E0	5.934143066E-2
3.952857690E0	-4.563803673E-1	-1.670910597E0	-2.568674088E-1
3.960952574E0	-7.012128830E-2	-1.353051662E0	2.678508759E-1
3.969080344E0	-4.629802704E-1	-1.386455059E0	-8.387851715E-2
3.977191959E0	-2.805008888E-1	-1.096280098E0	7.079863548E-1
3.985341151E0	-8.113617897E-1	-6.234652996E-1	7.447113991E-1
3.993541728E0	-3.808832169E-1	-9.624907970E-1	4.898691177E-1
4.001610805E0	7.837796211E-1	-8.259556293E-1	4.907159805E-1
4.009943036E0	4.373817444E-1	-8.669714928E-1	8.669805527E-2
4.017993113E0	2.149057388E-1	-8.327810764E-1	-1.798305511E-1
4.026072074E0	-2.350664139E-1	-6.564619541E-1	-4.960708618E-1
4.034215536E0	-2.962570190E-1	-7.496974468E-1	-7.039928436E-1
4.042350190E0	-6.173424721E-1	-6.194119453E-1	-8.594293594E-1
4.050411459E0	-6.529455185E-1	-1.336989164E0	-1.751586914E0
4.058535305E0	9.692716599E-2	-1.941118717E0	-2.448691845E0
4.066669420E0	2.484321594E-2	-2.178698063E0	-2.008271694E0
4.074852920E0	5.031614304E-1	-9.136698246E-1	-9.208998680E-1
4.082935151E0	6.052322388E-1	-5.173895359E-1	4.887800217E-1
4.091059382E0	5.253582001E-1	-2.731204033E-1	1.282541752E0
4.099215651E0	5.293488503E-1	7.763910294E-2	1.269049644E0
4.107347074E0	5.713911057E-1	3.518404961E-1	8.864474297E-1
4.115470036E0	5.392646790E-1	7.369287014E-1	5.473675728E-1
4.123581420E0	8.244271278E-1	1.090586901E0	5.097627640E-1
4.131694305E0	1.170735836E0	1.204965830E0	5.243797302E-1
4.139906613E0	1.453804493E0	1.200979471E0	3.473415375E-1
4.147980228E0	1.442996979E0	1.096453190E0	3.289952278E-1
4.156261420E0	1.202973366E0	1.010647297E0	5.023288727E-1
4.164283190E0	9.025073051E-1	8.743369579E-1	2.845149040E-1
4.172364228E0	6.874008179E-1	7.572171688E-1	-1.671833992E-1
4.180632420E0	3.426704407E-1	9.234664440E-1	-5.622501373E-1
4.188899343E0	2.533841133E-1	1.010196686E0	-8.401293755E-1
4.196821267E0	4.496779442E-1	9.762222767E-1	-8.223533630E-1
4.205221805E0	7.117123604E-1	9.193813801E-1	-6.299109459E-1
4.212986613E0	6.025576591E-1	9.287240505E-1	-3.599758148E-1
4.221083536E0	5.302138329E-1	8.767817020E-1	-4.495143890E-3
4.229240651E0	3.785009384E-1	8.544499874E-1	3.032717705E-1
4.237422074E0	2.217206955E-1	9.284620285E-1	5.800228119E-1
4.245512997E0	1.174950600E-1	1.031446934E0	6.889219284E-1
4.253635382E0	2.646303177E-2	1.151331186E0	6.866221428E-1
4.261844959E0	-4.672384262E-2	1.288128376E0	7.029976845E-1
4.269883959E0	-1.037707329E-1	1.510310888E0	6.729063988E-1
4.278121266E0	-5.646181107E-2	1.796351910E0	5.523018837E-1
4.286162343E0	-1.812839508E-2	2.172029495E0	3.477921486E-1
4.294311728E0	9.531974792E-2	2.467737198E0	1.349215508E-1
4.302531843E0	6.936168671E-2	2.735601425E0	-8.657550812E-2
4.310633536E0	1.170730591E-1	2.757807732E0	-3.256096840E-1
4.318720497E0	1.403470039E-1	2.302943230E0	-1.492394924E0
4.326851382E0	1.794333458E-1	1.750259876E0	-2.694234133E0
4.334998805E0	2.527995110E-1	1.429862261E0	-3.200049877E0
4.343138266E0	1.016659737E-1	1.433397055E0	-2.654314041E0
4.351371382E0	1.435456276E-1	1.555455923E0	-1.626513481E0
4.359429536E0	1.848025322E-1	1.746563673E0	-1.840767860E-1
4.367501574E0	4.430437088E-2	1.698088169E0	8.020887375E-1
4.375660305E0	2.502470016E-1	1.643880606E0	1.473900795E0
4.383782497E0	6.379804611E-1	1.616218805E0	1.788841724E0
4.391921228E0	9.613919258E-1	1.458289862E0	1.713090897E0
4.400080497E0	1.019370079E0	1.446600199E0	1.653338432E0
4.408249613E0	1.159899712E0	1.487798214E0	1.513267517E0
4.416326651E0	1.343883038E0	1.445031166E0	1.062120914E0
4.423257902E0	1.462517262E0	1.221776485E0	5.996351242E-1
4.424441728E0	1.493642330E0	1.159527302E0	4.248585701E-1
4.431337497E0	1.543560505E0	8.382022381E-1	-1.432657242E-2
4.432576036E0	1.555531025E0	6.921558380E-1	-1.460080147E-1
4.440838651E0	1.408410072E0	2.142581940E-1	-4.611310959E-1
4.448909151E0	1.198240280E0	-3.890414238E-1	-5.144720078E-1
4.457038036E0	9.545192719E-1	-1.098926306E0	-4.950413704E-1
4.465115689E0	7.393631935E-1	-1.837767363E0	-3.051276207E-1
4.473247305E0	3.709836006E-1	-2.370149374E0	3.881025314E-2
4.481427189E0	-1.417660713E-1	-2.742944479E0	5.238723755E-1
4.489559112E0	-4.669890404E-1	-3.021703005E0	7.736301422E-1
4.496477710E0	-6.638140678E-1	-3.067572832E0	9.558959007E-1
4.497657997E0	-6.662082672E-1	-3.125033617E0	9.894146919E-1
4.505939728E0	-7.427663803E-1	-3.102199316E0	8.583726883E-1
4.513996728E0	-6.925663948E-1	-2.829172373E0	4.100494385E-1
4.522062112E0	-6.396937370E-1	-2.650929689E0	-1.986770630E-1
4.530235074E0	-2.828149796E-1	-1.688380480E0	-7.467694283E-1
4.538334651E0	5.674982071E-2	-6.081423759E-1	-9.847574234E-1
4.546555805E0	3.154897690E-2	2.370078564E-1	-8.774666786E-1
4.554591728E0	-2.428402901E-1	8.746411800E-1	-6.084246635E-1
4.562747036E0	-4.076867104E-1	1.194543600E0	-1.666650772E-1
4.570917805E0	-1.919913292E-1	1.286900401E0	3.550853729E-1
4.578990189E0	1.380834579E-1	1.147240639E0	8.255400658E-1
4.587180651E0	4.289121628E-1	9.930655956E-1	9.889774323E-1
4.595300959E0	4.464015961E-1	9.608950615E-1	6.956667900E-1
4.603437535E0	1.052951813E-2	1.098539352E0	-1.486096382E-1
4.611544228E0	-5.570030212E-1	1.300925851E0	-9.281685352E-1
4.619651882E0	-1.021051407E0	1.250265479E0	-1.507781982E0
4.627769151E0	-1.143885612E0	9.554474354E-1	-1.171817303E0
4.635934228E0	-1.152420521E0	1.850900650E-1	-7.449536324E-1
4.644080882E0	-7.749075890E-1	-7.274026871E-1	-3.345210552E-1
4.652243420E0	-3.239235878E-1	-1.757475615E0	-4.118266106E-1
4.660334689E0	2.397356033E-1	-2.442888975E0	-5.984375477E-1
4.668470382E0	7.480459213E-1	-2.696921110E0	-9.150087833E-1
4.676567228E0	1.151158333E0	-2.729741573E0	-1.259091377E0
4.684730035E0	1.332015038E0	-2.617486000E0	-1.597030878E0
4.692898151E0	1.341879845E0	-2.474882841E0	-1.745426655E0
4.701065920E0	1.032725334E0	-2.289993763E0	-1.600188255E0
4.709060074E0	6.811780930E-1	-2.016994715E0	-1.357956409E0
4.717259458E0	3.565931320E-1	-1.801228046E0	-1.266686201E0
4.725284958E0	-4.784679413E-2	-1.641074181E0	-1.242516279E0
4.733392112E0	-3.268961906E-1	-1.298625946E0	-1.182126284E0
4.741540189E0	-6.019887924E-1	-1.424041748E0	-1.097674847E0
4.749649305E0	-9.676814079E-1	-1.886556149E0	-1.033368587E0
4.757814343E0	-9.898009300E-1	-1.896515846E0	-6.638538837E-1
4.765963458E0	-1.008236408E0	-1.731381416E0	-3.893783092E-1
4.774151535E0	-1.030950069E0	-1.534957409E0	-3.269934654E-1
4.782256881E0	-1.041826248E0	-1.229578495E0	-3.942401409E-1
4.790318420E0	-9.504809380E-1	-8.749976158E-1	-4.991226196E-1
4.798439535E0	-7.367796898E-1	-6.509680748E-1	-4.306786060E-1
4.806503189E0	-4.439606667E-1	-5.843706131E-1	-3.345966339E-1
4.814660651E0	-2.516956329E-1	-6.616353989E-1	-3.008201122E-1
4.822770881E0	-1.048460007E-1	-8.045392036E-1	-3.457565308E-1
4.830845497E0	-3.302335739E-2	-9.020528793E-1	-3.143384457E-1
4.838995574E0	-3.916501999E-2	-8.353085518E-1	-1.612763405E-1
4.847164228E0	-7.153367996E-2	-6.985573769E-1	4.610538483E-2
4.855321843E0	-1.068434715E-1	-5.772123337E-1	2.032475471E-1
4.863417805E0	-1.984720230E-1	-4.744305611E-1	2.114806175E-1
4.871493612E0	-3.158388138E-1	-4.841337204E-1	8.434081078E-2
4.879584651E0	-3.216085434E-1	-5.977978706E-1	-1.762189865E-1
4.887657728E0	-1.442270279E-1	-7.801790237E-1	-4.835456610E-1
4.895791420E0	1.392016411E-1	-8.948755264E-1	-6.203930378E-1
4.903886189E0	4.994344711E-1	-5.955209732E-1	-5.892351866E-1
4.912002458E0	3.506608009E-1	-8.372340202E-1	-7.962719202E-1
4.920230304E0	2.213058472E-1	-7.499604225E-1	-6.662058830E-1
4.928330651E0	-1.030464172E-1	-9.844813347E-1	-6.393648386E-1
4.936450074E0	-1.718149185E-1	-8.146200180E-1	-3.441288471E-1
4.944550574E0	-1.677536964E-1	-6.521873474E-1	-1.947971582E-1
4.951471728E0	-1.383290291E-1	-5.178079605E-1	-1.805304289E-1
4.952684304E0	-1.407232285E-1	-5.154137611E-1	-2.236260176E-1
4.960830151E0	-2.187252045E-2	-5.705289841E-1	-3.843541145E-1
4.968893266E0	1.670975685E-1	-6.932640076E-1	-4.763488770E-1
4.977075766E0	7.333693504E-1	-4.848394394E-1	-2.973761559E-1
4.985164997E0	4.799389839E-1	-9.575810432E-1	-6.409075260E-1
4.993246804E0	5.658917427E-1	-1.304293633E0	-7.345415354E-1
5.001508227E0	6.532177925E-1	-1.096404076E0	-7.305055857E-1
5.009554574E0	5.731329918E-1	-7.801170349E-1	-6.545251608E-1
5.017663074E0	4.266657829E-1	-4.411449432E-1	-4.683023691E-1
5.025891074E0	2.690815926E-1	-2.417659760E-1	-2.625238895E-1
5.033891074E0	1.215362549E-1	-1.445217133E-1	-1.266607046E-1
5.042152997E0	-4.650878906E-2	-1.513628960E-1	-1.231967211E-1
5.050174112E0	-1.665573120E-1	-1.749601364E-1	-1.190475225E-1
5.058250420E0	-1.922016144E-1	-1.668024063E-1	-1.271511316E-1
5.066621766E0	6.137943268E-2	-6.132268906E-2	-1.533750296E-1
5.074475074E0	2.016363144E-1	4.175019264E-1	-3.191294074E-1
5.082675112E0	5.183219910E-3	2.210564613E-1	-6.537111402E-1
5.090799420E0	7.139205933E-3	1.375675201E-1	-7.100406885E-1
5.099148227E0	7.625102997E-2	4.855060577E-2	-6.716116071E-1
5.107076112E0	5.088949203E-2	9.337806702E-2	-6.573922038E-1
5.115184727E0	-6.512403488E-2	1.473026276E-1	-7.373076677E-1
5.123277150E0	-1.282916069E-1	2.873272896E-1	-7.019394636E-1
5.131367843E0	-8.717727661E-2	3.127336502E-1	-5.838719010E-1
5.139471420E0	-9.377479553E-2	3.207521439E-1	-4.077376127E-1
5.147614420E0	-1.432571411E-1	3.137397766E-1	-2.832912207E-1
5.155726150E0	-1.836395264E-2	3.606824875E-1	-1.337417364E-1
5.163864612E0	1.049208641E-1	3.545026779E-1	2.156913280E-2
5.172023920E0	4.386520386E-2	4.327659607E-1	1.191542149E-1
5.180210612E0	3.580999374E-2	5.079746246E-1	2.019721270E-1
5.188295843E0	6.740808487E-2	4.681386948E-1	2.463102341E-1
5.196490612E0	9.278917313E-2	3.988904953E-1	2.045619488E-1
5.204520766E0	6.120777130E-2	3.926801682E-1	2.229158878E-1
5.212602035E0	-6.456041336E-2	4.443397522E-1	2.343475819E-1
5.220713535E0	-3.319189548E-1	7.589893341E-1	4.480479956E-1
5.228806304E0	-9.323532581E-1	1.216547966E0	2.325431108E-1
5.236924612E0	-1.610187054E0	1.987229347E0	4.411470890E-2
5.245039650E0	-1.940429330E0	2.997339725E0	-3.145407438E-1
5.253232497E0	-2.405987501E0	3.975697041E0	-8.154780865E-1
5.261457381E0	-2.878823042E0	4.405809879E0	-1.046826601E0
5.269435804E0	-3.180786371E0	4.559592724E0	-1.169430256E0
5.277620843E0	-3.331360817E0	4.608364582E0	-1.162240505E0
5.285709073E0	-3.015066147E0	4.379584312E0	-1.186924815E0
5.293896150E0	-2.632464647E0	3.892349720E0	-9.694032669E-1
5.301910189E0	-2.039723873E0	2.969431877E0	-4.399859905E-1
5.310023997E0	-8.848896027E-1	1.342692375E0	6.579408646E-1
5.318254612E0	7.868802547E-2	-5.462083817E-1	1.092298985E0
5.326267150E0	1.449130774E-1	-1.537395477E0	9.970831871E-1
5.334435304E0	-3.117926121E-1	-2.109032631E0	8.035368919E-1
5.342564112E0	-6.463547945E-1	-2.426128387E0	3.803663254E-1
5.350606304E0	-1.048865795E0	-2.850742340E0	-2.358121872E-1
5.358785458E0	-1.784373760E0	-3.284199715E0	-9.323549271E-1
5.366836035E0	-2.165564537E0	-3.543334007E0	-1.834151983E0
5.374950420E0	-2.691738367E0	-3.969505310E0	-2.438670158E0
5.383113150E0	-3.369675398E0	-3.856101990E0	-2.947691917E0
5.391119420E0	-4.631798744E0	-4.118204117E0	-2.544339418E0
5.399207150E0	-4.807387352E0	-4.663760185E0	-3.027924299E0
5.407380650E0	-4.045685768E0	-5.707509995E0	-3.146780014E0
5.415507881E0	-3.471088171E0	-6.283448219E0	-2.913137436E0
5.423649766E0	-3.010491610E0	-6.329117775E0	-2.715170145E0
5.431750689E0	-2.552249432E0	-5.573693275E0	-2.624177217E0
5.439860458E0	-2.800675154E0	-3.916583061E0	-2.413471222E0
5.447970766E0	-1.802214146E0	-3.079066277E0	-2.319141626E0
5.456042766E0	-1.368813753E0	-2.108355522E0	-2.471804857E0
5.464298496E0	-1.335025907E0	-9.373216629E-1	-2.575463295E0
5.472330689E0	-1.635391235E0	4.116535187E-2	-2.563472033E0
5.480342843E0	-1.887646198E0	8.790450096E-1	-2.451353312E0
5.488487881E0	-2.217844248E0	1.512028694E0	-2.220057964E0
5.496683343E0	-2.580660343E0	1.997189999E0	-1.978302479E0
5.504950189E0	-2.974202156E0	2.316479206E0	-1.852507591E0
5.512935496E0	-3.221079588E0	2.580357075E0	-1.689666986E0
5.521062189E0	-3.513130665E0	2.551127911E0	-1.715124130E0
5.529169458E0	-4.219220638E0	2.021961212E0	-1.864171028E0
5.537276766E0	-5.273015022E0	8.786940575E-1	-2.067510843E0
5.545467573E0	-5.447913170E0	4.223217964E-1	-2.339107990E0
5.553517612E0	-4.969757080E0	1.736211777E-1	-2.629237890E0
5.561629919E0	-4.313581467E0	-9.407711029E-2	-2.944823742E0
5.569879227E0	-3.830883503E0	-3.328685760E-1	-2.914550543E0
5.577925650E0	-3.703825474E0	-6.777439117E-1	-2.495848894E0
5.586020150E0	-3.255954504E0	-8.756952286E-1	-2.293484926E0
5.594283766E0	-2.704605341E0	-1.087862968E0	-1.882320881E0
5.602291727E0	-1.796903014E0	-1.082480431E0	-1.437870502E0
5.610386612E0	-3.675757647E-1	-8.556289673E-1	-1.159023285E0
5.618462766E0	1.540699601E0	-6.272163391E-1	-7.350578308E-1
5.626591612E0	3.302694559E0	-2.427711487E-1	-8.661677837E-1
5.634687881E0	5.027962685E0	-2.564754486E-1	-1.997146606E-1
5.642787996E0	6.166412354E0	-5.894947052E-2	1.595883369E-1
5.650925150E0	7.099160194E0	-7.014560699E-2	9.577341080E-1
5.659069381E0	7.048764229E0	-7.935428619E-2	1.915330887E0
5.667186035E0	6.213649750E0	-2.388286591E-2	2.732553005E0
5.675337419E0	4.427929401E0	-1.339750290E-1	2.914453030E0
5.683406342E0	2.588986397E0	-2.844800949E-1	2.753975391E0
5.691645265E0	9.470342398E-1	-4.720659256E-1	2.513145924E0
5.699644689E0	-5.097227097E-1	-6.776771545E-1	2.471950769E0
5.707818842E0	-1.682779074E0	-8.373336792E-1	2.584949732E0
5.715851304E0	-2.407668829E0	-8.607902527E-1	3.214105129E0
5.723940419E0	-2.643684626E0	-6.852006912E-1	3.856907845E0
5.732100650E0	-2.533133507E0	-3.197908401E-1	4.066936493E0
5.740309342E0	-1.981068492E0	2.153873444E-2	3.731689930E0
5.748394996E0	-1.430995226E0	2.552185059E-1	3.130418777E0
5.756579419E0	-9.713178873E-1	4.106159210E-1	2.398723841E0
5.764606765E0	-5.113558173E-1	3.833751678E-1	1.645253658E0
5.772744573E0	-9.153920412E-2	2.293815613E-1	8.757576942E-1
5.780825496E0	1.877775192E-1	4.287910461E-2	1.920776367E-1
5.788984381E0	3.623382449E-1	-1.576013565E-1	-3.817069530E-1
5.797125458E0	3.971021175E-1	-3.330268860E-1	-7.763118744E-1
5.805221650E0	3.218312860E-1	-4.924201965E-1	-1.044812441E0
5.813339573E0	1.998347044E-1	-5.995025635E-1	-1.083116770E0
5.821531650E0	3.643584251E-2	-6.461820602E-1	-9.584255219E-1
5.829938881E0	-1.180852652E-1	-6.369504929E-1	-7.539846897E-1
5.838020996E0	-2.807244062E-1	-5.103769302E-1	-5.360326767E-1
5.845882419E0	-3.968368769E-1	-2.437944412E-1	-3.381161690E-1
5.854012188E0	-3.950644732E-1	5.766773224E-2	-2.151107788E-1
5.862029804E0	-2.873204947E-1	3.816719055E-1	-9.821462631E-2
5.870232881E0	-1.242579222E-1	7.073268890E-1	3.608226776E-2
5.878358881E0	-2.033138275E-2	9.351224899E-1	1.931681633E-1
5.886548765E0	-2.516388893E-3	1.071258545E0	3.292016983E-1
5.893550765E0	6.178891659E-2	1.106558323E0	4.520921707E-1
5.901708243E0	9.846401215E-2	1.079701900E0	6.700968742E-1
5.909840051E0	2.453827858E-2	9.988842010E-1	8.438849449E-1
5.917958512E0	-3.502845764E-2	8.203039169E-1	9.484124184E-1
5.926076050E0	-1.071765423E-1	6.690454483E-1	8.706645966E-1
5.934169265E0	-1.177226305E-1	5.513677597E-1	6.592717171E-1
5.942043996E0	-1.248292923E-1	4.564046860E-1	3.568139076E-1
5.950370842E0	-1.705608368E-1	3.824043274E-1	-2.560091019E-2
5.958495919E0	-2.141457796E-1	2.962560654E-1	-3.928909302E-1
5.966703881E0	-3.081703186E-1	2.107238770E-1	-6.857476234E-1
5.974956958E0	-4.654796124E-1	1.539068222E-1	-9.166665077E-1
5.983207896E0	-6.082035303E-1	9.643077850E-2	-9.972860813E-1
5.991322012E0	-7.471727133E-1	4.238605499E-2	-9.775307178E-1
5.999439281E0	-8.950642347E-1	-1.747417450E-2	-9.617574215E-1
6.007568819E0	-9.552048445E-1	-8.857250214E-2	-9.490249157E-1
6.015565996E0	-9.905451536E-1	-1.645717621E-1	-9.194118977E-1
6.023495458E0	-1.039522529E0	-2.337837219E-1	-9.068791866E-1
6.031833381E0	-1.037235260E0	-3.241901398E-1	-8.635041714E-1
6.040101688E0	-9.984509945E-1	-3.411474228E-1	-8.495709896E-1
6.048092265E0	-9.271839857E-1	-4.214639664E-1	-8.637802601E-1
6.056399342E0	-8.066661358E-1	-4.700860977E-1	-8.204863071E-1
6.064662588E0	-6.653231382E-1	-4.567699432E-1	-7.444188595E-1
6.072778281E0	-5.444686413E-1	-3.951292038E-1	-6.615664959E-1
6.080909819E0	-4.664188623E-1	-2.731227875E-1	-5.722739697E-1
6.088991550E0	-4.096541405E-1	-6.846809387E-2	-4.766905308E-1
6.096989227E0	-3.479913473E-1	1.086273193E-1	-4.159657955E-1
6.104928381E0	-2.952052355E-1	2.593908310E-1	-3.613908291E-1
6.113261650E0	-2.431651354E-1	3.680353165E-1	-2.867653370E-1
6.121395188E0	-2.111726999E-1	3.998384476E-1	-2.021198273E-1
6.129663342E0	-2.053784132E-1	3.708353043E-1	-1.243371964E-1
6.137869957E0	-1.861867905E-1	2.676229477E-1	6.613731384E-4
6.146099742E0	-1.880427599E-1	1.190929413E-1	1.056416035E-1
6.154210203E0	-1.756737232E-1	-5.823612213E-2	2.147846222E-1
6.162302934E0	-1.188132763E-1	-2.465562820E-1	2.676994801E-1
6.170418357E0	-6.356775761E-2	-4.282388687E-1	2.755331993E-1
6.178469304E0	2.972602844E-2	-6.214427948E-1	2.782716751E-1
6.186435880E0	1.434425116E-1	-7.854804993E-1	2.574779987E-1
6.194705227E0	3.220136166E-1	-8.916997910E-1	2.519419193E-1
6.202852034E0	5.666022301E-1	-9.207429886E-1	2.591180801E-1
6.210984188E0	7.986640930E-1	-8.552255630E-1	2.758488655E-1
6.219280227E0	9.687283039E-1	-7.256145477E-1	3.256044388E-1
6.227539165E0	1.058762908E0	-5.445299149E-1	3.381524086E-1
6.235655549E0	1.068465233E0	-3.632173538E-1	3.244781494E-1
6.243780088E0	1.002273321E0	-1.744098663E-1	2.990901470E-1
6.251910203E0	8.718362451E-1	1.642227173E-2	2.352662086E-1
6.259923804E0	6.658390760E-1	1.869544983E-1	2.142007351E-1
6.267897765E0	4.878159761E-1	2.933778763E-1	2.212884426E-1
6.276257611E0	3.379968405E-1	3.973264694E-1	2.361021042E-1
6.284309957E0	2.496546507E-1	4.363288879E-1	2.265028954E-1
6.292462496E0	1.997873783E-1	4.445314407E-1	1.907696724E-1
6.300792188E0	1.662815809E-1	4.273185730E-1	1.524291039E-1
6.309026664E0	1.336158514E-1	3.597459793E-1	1.029176712E-1
6.317142087E0	7.241559029E-2	2.546577454E-1	1.074557304E-1
6.325273126E0	-1.568377018E-2	1.552133560E-1	1.155447960E-1
6.333388934E0	-8.941626549E-2	7.128429413E-2	1.510095596E-1
6.341401188E0	-1.069751978E-1	3.849220276E-2	2.294602394E-1
6.349391727E0	-1.157234907E-1	4.691886902E-2	2.919635773E-1
6.357813957E0	-9.505033493E-2	7.918643951E-2	3.416104317E-1
6.365870342E0	-7.394623756E-2	1.111850739E-1	3.587889671E-1
6.374071188E0	-1.563274860E-2	1.252756119E-1	3.467597961E-1
6.382280150E0	2.293753624E-2	1.098680496E-1	3.185148239E-1
6.390512818E0	9.958577156E-2	1.032199860E-1	3.004446030E-1
6.398641164E0	1.907113791E-1	7.453155518E-2	2.574772835E-1
6.406765010E0	2.741860151E-1	3.623580933E-2	2.214884758E-1
6.414880549E0	3.471364975E-1	1.030254364E-2	1.788291931E-1
6.422925765E0	3.849954605E-1	-1.730537415E-2	1.610713005E-1
6.430845150E0	3.709436655E-1	-7.737159729E-2	1.521492004E-1
6.439305496E0	3.115739822E-1	-1.340618134E-1	1.660346985E-1
6.447298842E0	2.096695900E-1	-2.374916077E-1	1.969232559E-1
6.455528842E0	9.185683727E-2	-3.163785934E-1	2.701082230E-1
6.463746650E0	2.029156685E-2	-3.088274002E-1	3.393135071E-1
6.472005779E0	-5.076134205E-2	-2.079019547E-1	3.776092529E-1
6.480123548E0	-9.166336060E-2	-7.160949707E-2	3.602290154E-1
6.488250048E0	-1.093497276E-1	7.337093353E-2	3.607683182E-1
6.496377587E0	-7.924318314E-2	1.570100784E-1	3.494763374E-1
6.504378919E0	3.464579582E-3	1.436462402E-1	2.909779549E-1
6.512314457E0	9.537661076E-2	7.692623138E-2	1.934947968E-1
6.520662496E0	1.747835875E-1	-3.320026398E-2	1.032352448E-1
6.528763765E0	2.085893154E-1	-1.266441345E-1	2.562141418E-2
6.536941342E0	2.190783024E-1	-1.747255325E-1	1.742982864E-2
6.545270457E0	2.132241726E-1	-2.041788101E-1	1.155853271E-3
6.553489933E0	2.541848421E-1	-2.293004990E-1	-5.708932877E-2
6.561586663E0	2.559876442E-1	-2.320709229E-1	-1.220040321E-1
6.569720125E0	2.447773218E-1	-2.050495148E-1	-2.266578674E-1
6.577837510E0	1.845469475E-1	-1.472043991E-1	-3.330979347E-1
6.585924957E0	1.122244596E-1	-8.946418762E-2	-4.214215279E-1
6.593813996E0	1.715052128E-2	-1.064300537E-3	-4.416079521E-1
6.602158034E0	-5.771911144E-2	4.609107971E-2	-4.465274811E-1
6.610232919E0	-1.993885040E-1	8.642578125E-2	-4.194798470E-1
6.618422303E0	-3.514143229E-1	9.795379639E-2	-3.225631714E-1
6.626700726E0	-5.136485100E-1	5.636501312E-2	-2.426776886E-1
6.634955355E0	-7.705923319E-1	-8.157920837E-2	-1.571855545E-1
6.643054971E0	-9.916211367E-1	-2.206430435E-1	-1.033701897E-1
6.651181278E0	-1.116135001E0	-2.846384048E-1	-1.217265129E-1
6.659297740E0	-1.088636637E0	-2.772607803E-1	-1.977820396E-1
6.667337265E0	-9.643468857E-1	-1.543397903E-1	-2.885088921E-1
6.675321188E0	-6.134082079E-1	4.862403870E-2	-3.025054932E-1
6.683555380E0	-1.740916967E-1	3.242921829E-1	-2.165946960E-1
6.691712265E0	1.882989407E-1	5.544481277E-1	-7.947635651E-2
6.699863688E0	3.343374729E-1	6.211204529E-1	4.425096512E-2
6.708204919E0	3.979095221E-1	5.556707382E-1	1.993794441E-1
6.716435663E0	4.069654942E-1	3.571338654E-1	3.102383614E-1
6.724550124E0	3.007405996E-1	1.086177826E-1	2.996792793E-1
6.732675240E0	8.162832260E-2	-1.484928131E-1	1.796650887E-1
6.740805470E0	-2.186840773E-1	-4.558649063E-1	-1.303052902E-2
6.748843957E0	-5.412105322E-1	-7.866697311E-1	-2.144813538E-1
6.756805457E0	-7.378817797E-1	-9.841575623E-1	-3.506481647E-1
6.765186419E0	-8.017934561E-1	-1.022619247E0	-3.929078579E-1
6.773294265E0	-7.625910044E-1	-8.635311127E-1	-3.589789867E-1
6.781381611E0	-7.135311365E-1	-5.035638809E-1	-2.949497700E-1
6.789684072E0	-5.609494448E-1	-1.470260620E-1	-1.664423943E-1
6.797965086E0	-2.936515808E-1	1.254758835E-1	3.472042084E-2
6.806082547E0	-8.711814880E-3	3.216533661E-1	2.200269699E-1
6.814215239E0	2.634795904E-1	4.495115280E-1	4.095697403E-1
6.822298932E0	4.566309452E-1	5.774326324E-1	5.546059608E-1
6.830340303E0	5.524210930E-1	6.585187912E-1	6.476411819E-1
6.838175495E0	5.644208193E-1	6.775989532E-1	6.794199944E-1
6.846402495E0	4.986635447E-1	6.235809326E-1	6.802210808E-1
6.854656072E0	3.820091486E-1	5.265531540E-1	6.089935303E-1
6.862811188E0	3.298870325E-1	4.474773407E-1	4.971842766E-1
6.871135034E0	2.241683006E-1	3.339643478E-1	3.714365959E-1
6.879496393E0	2.050244808E-2	1.481714249E-1	2.595939636E-1
6.887596778E0	-1.848806143E-1	1.714420319E-2	1.250195503E-1
6.895725162E0	-3.252025843E-1	-5.137920380E-2	-6.256628036E-2
6.903842816E0	-4.192850590E-1	-1.668643951E-1	-2.754521370E-1
6.911845303E0	-4.830424786E-1	-3.418416977E-1	-4.259843826E-1
6.919690918E0	-4.324622154E-1	-4.107332230E-1	-4.764602184E-1
6.927969918E0	-2.515472174E-1	-3.398427963E-1	-4.292039871E-1
6.936178265E0	7.955408096E-2	-2.139024734E-1	-3.284053802E-1
6.944338072E0	4.856418371E-1	-7.052040100E-2	-1.764912605E-1
6.952664534E0	8.324488997E-1	7.863330841E-2	-2.080678940E-2
6.961024854E0	1.079110384E0	1.453456879E-1	2.177519798E-1
6.969124546E0	1.217570066E0	1.396436691E-1	4.072327614E-1
6.977251354E0	1.228552103E0	1.010313034E-1	4.356722832E-1
6.985384393E0	1.116729021E0	2.233409882E-2	3.975782394E-1
6.993482034E0	9.426296353E-1	-5.994319916E-2	3.458871841E-1
7.001322418E0	7.011967897E-1	-1.261625290E-1	2.667331696E-1
7.009511265E0	3.884263039E-1	-1.401205063E-1	2.496118546E-1
7.017864803E0	1.090316772E-1	-8.765220642E-2	2.692437172E-1
7.025895188E0	-1.483436823E-1	1.654911041E-2	2.827782631E-1
7.034240034E0	-3.630380630E-1	1.850662231E-1	3.133773804E-1
7.042584892E0	-5.547076464E-1	3.505802155E-1	3.401737213E-1
7.050704008E0	-6.653202772E-1	4.749441147E-1	3.778176308E-1
7.058838508E0	-6.922214031E-1	5.400505066E-1	3.885021210E-1
7.066956738E0	-6.416932344E-1	5.458116531E-1	3.525934219E-1
7.074961111E0	-5.423249006E-1	5.217447281E-1	3.404321671E-1
7.082878918E0	-4.151345491E-1	4.440326691E-1	3.086061478E-1
7.091049611E0	-2.879208326E-1	3.439064026E-1	2.497053146E-1
7.099287457E0	-2.036523819E-1	2.125864029E-1	1.454243660E-1
7.107458457E0	-1.262675524E-1	6.547164917E-2	4.971694946E-2
7.115800303E0	-7.970535755E-2	-6.944274902E-2	-3.741264343E-2
7.124125931E0	1.649618149E-2	-1.543540955E-1	-2.882146835E-2
7.132259700E0	1.107066870E-1	-1.968202591E-1	-2.002716064E-5
7.140388469E0	1.710788012E-1	-1.876707077E-1	-9.555339813E-3
7.148474969E0	1.744225025E-1	-1.865491867E-1	-1.860132217E-1
7.156487611E0	1.128544807E-1	-2.267513275E-1	-4.899992943E-1
7.164340264E0	3.810298443E-2	-3.225278854E-1	-8.193912506E-1
7.172598034E0	-9.567689896E-2	-4.192314148E-1	-1.037842512E0
7.180836726E0	-2.214772701E-1	-4.750318527E-1	-1.041416883E0
7.188985957E0	-3.592696190E-1	-4.825887680E-1	-9.151477814E-1
7.197322726E0	-4.413414001E-1	-3.610467911E-1	-7.802147865E-1
7.205679007E0	-5.098593235E-1	-2.250766754E-1	-6.429433823E-1
7.213799738E0	-5.058805943E-1	-3.628921509E-2	-5.675134659E-1
7.221929776E0	-4.419907331E-1	1.452789307E-1	-5.163369179E-1
7.230063584E0	-2.426142693E-1	2.781496048E-1	-4.652729034E-1
7.238094649E0	8.869838715E-2	3.917732239E-1	-3.568015099E-1
7.245912918E0	4.437682629E-1	4.515018463E-1	-2.195768356E-1
7.254152726E0	7.802337408E-1	4.807510376E-1	-8.914661407E-2
7.262401457E0	1.033146977E0	4.207916260E-1	1.861000061E-2
7.270564034E0	1.262056351E0	3.031721115E-1	7.292842865E-2
7.278907072E0	1.374289393E0	2.168455124E-1	1.697211266E-1
7.287240468E0	1.436818838E0	1.282501221E-2	2.631685734E-1
7.295357276E0	1.524374723E0	-1.725978851E-1	2.659783363E-1
7.303488814E0	1.548807740E0	-3.573217392E-1	1.996140480E-1
7.311605084E0	1.454931617E0	-6.337766647E-1	8.480119705E-2
7.319601764E0	1.159728527E0	-9.197845459E-1	-8.530974388E-2
7.327482187E0	7.001910210E-1	-1.214007378E0	-2.741239071E-1
7.335695264E0	2.767158747E-1	-1.365210533E0	-3.510649204E-1
7.343938380E0	-5.517446995E-2	-1.509088516E0	-2.161936760E-1
7.352109918E0	-3.644011021E-1	-1.569033623E0	9.282946587E-2
7.357791649E0	-5.302063227E-1	-1.571679115E0	2.994003296E-1
7.360434380E0	-5.804845095E-1	-1.559707642E0	3.448901176E-1
7.368786276E0	-7.866376638E-1	-1.372778893E0	4.806778431E-1
7.376899468E0	-9.041414261E-1	-1.098193169E0	5.254669189E-1
7.384994237E0	-6.273430586E-1	-1.110151291E0	5.477366447E-1
7.393111929E0	-2.999433279E-1	-1.133711815E0	6.365327835E-1
7.401147341E0	-1.303160191E-2	-1.181920052E0	7.538385391E-1
7.408996033E0	1.542093754E-1	-1.112409592E0	8.211455345E-1
7.417185764E0	1.980949640E-1	-1.028097153E0	7.560000420E-1
7.425443649E0	1.551408768E-1	-8.994541168E-1	5.980377197E-1
7.433614187E0	3.113722801E-2	-6.995649338E-1	4.310114384E-1
7.442015341E0	-1.192077398E-1	-4.213390350E-1	1.127278805E-1
7.450296006E0	-2.493879795E-1	-1.472034454E-1	-1.737122536E-1
7.458410775E0	-4.452356100E-1	1.671514511E-1	-6.557717323E-1
7.466536506E0	-5.375833511E-1	5.072965622E-1	-9.331681728E-1
7.474634814E0	-7.737479210E-1	9.530630112E-1	-1.267669678E0
7.482646956E0	-9.857933521E-1	1.332135201E0	-1.772880077E0
7.490495380E0	-1.239565611E0	1.721261024E0	-2.179178953E0
7.498709995E0	-1.391099930E0	1.948056698E0	-2.462370396E0
7.506972956E0	-1.509325981E0	2.068825245E0	-2.648212671E0
7.515121380E0	-1.767502546E0	1.947672367E0	-2.519194603E0
7.523472380E0	-2.467256069E0	1.408022404E0	-2.091250420E0
7.531814429E0	-2.795869350E0	1.181760311E0	-1.661118746E0
7.539933621E0	-2.517062664E0	1.448264599E0	-9.771990776E-1
7.548058044E0	-2.197066784E0	1.608631611E0	-1.323347092E-1
7.556175621E0	-2.050746441E0	1.538399696E0	4.255151749E-1
7.564178918E0	-2.147325993E0	1.381206036E0	6.798367500E-1
7.572056187E0	-2.551848412E0	8.242707253E-1	5.299067497E-1
7.580286879E0	-2.727730036E0	-5.580711365E-2	8.031797409E-2
7.588528033E0	-2.619665623E0	-7.713117599E-1	-2.285909653E-1
7.596662072E0	-2.144682884E0	-1.180733681E0	-3.601782322E-1
7.604988649E0	-1.355498195E0	-1.327301979E0	-2.547349930E-1
7.613347082E0	-1.042139530E-2	-1.128911018E0	5.055761337E-2
7.621482006E0	1.510939121E0	-7.207498550E-1	4.589076042E-1
7.629601236E0	2.779739380E0	-3.144493103E-1	8.053264618E-1
7.637719275E0	3.492972374E0	-6.357002258E-2	1.042088509E0
7.645820918E0	3.435402870E0	7.826709747E-2	9.876158237E-1
7.653618226E0	2.744421721E0	2.152404785E-1	6.428413391E-1
7.661877187E0	1.932553411E0	2.457342148E-1	3.205478191E-1
7.670242149E0	1.307995796E0	2.484045029E-1	3.037142754E-1
7.678238649E0	8.580454588E-1	2.364740372E-1	4.274404049E-1
7.686601572E0	6.555919647E-1	2.239074707E-1	6.625003815E-1
7.694905044E0	7.089750767E-1	1.961059570E-1	7.997968197E-1
7.702991428E0	8.151366115E-1	1.036319733E-1	8.670682907E-1
7.711121697E0	7.763817906E-1	-1.243553162E-1	7.798857689E-1
7.719252736E0	6.311112046E-1	-3.844947815E-1	5.339550972E-1
7.727271418E0	4.752972126E-1	-5.610532761E-1	2.388062477E-1
7.735147379E0	2.176837921E-1	-7.974462509E-1	-8.591556549E-2
7.743359149E0	-1.955726147E-1	-1.155405998E0	-3.958697319E-1
7.751604379E0	-7.568670511E-1	-1.572851181E0	-6.682698727E-1
7.759756802E0	-1.161627650E0	-1.766660690E0	-5.732457638E-1
7.768102072E0	-1.486681938E0	-1.687544823E0	-2.838616371E-1
7.776421428E0	-1.752837658E0	-1.490714073E0	1.188011169E-1
7.784521736E0	-1.865077734E0	-1.339041710E0	4.141292572E-1
7.792656159E0	-1.859385848E0	-1.055634499E0	5.419912338E-1
7.800775274E0	-1.671612501E0	-6.117391586E-1	6.149740219E-1
7.808834764E0	-1.461781621E0	-1.855106354E-1	4.743762016E-1
7.816703725E0	-1.071827769E0	1.443767548E-2	1.771721840E-1
7.824889610E0	-5.752162933E-1	5.892753601E-3	-3.332901001E-2
7.833178725E0	-6.913220882E-2	-6.826496124E-2	-1.629810333E-1
7.841347725E0	3.789312840E-1	-1.518077850E-1	-2.787911892E-1
7.849632341E0	7.666401863E-1	-1.405487061E-1	-2.235631943E-1
7.857954697E0	9.881507158E-1	2.026653290E-2	-1.214056015E-1
7.866087158E0	1.034309387E0	3.584041595E-1	-8.792018890E-2
7.874181851E0	1.092672586E0	8.110365868E-1	-1.678056717E-1
7.882298428E0	1.034026265E0	1.248487949E0	-3.463654518E-1
7.890338149E0	9.050123692E-1	1.628315926E0	-6.967291832E-1
7.898230918E0	5.700702667E-1	1.922543049E0	-1.244612694E0
7.906447764E0	2.355122566E-2	1.991757393E0	-1.931700230E0
7.914707148E0	-5.582580566E-1	1.920119762E0	-2.592958450E0
7.922774264E0	-1.214509726E0	1.713062286E0	-3.150006294E0
7.931110072E0	-1.767104626E0	1.418180943E0	-3.568862915E0
7.939459658E0	-2.199861765E0	1.081593513E0	-3.747608662E0
7.947575197E0	-2.491102695E0	8.200950623E-1	-3.724833488E0
7.955691543E0	-2.603732586E0	5.016717911E-1	-3.456095457E0
7.963822773E0	-3.307080507E0	-3.171977997E-1	-2.802030563E0
7.971815033E0	-4.256147385E0	-1.144330025E0	-2.179264307E0
7.979918110E0	-4.572420120E0	-1.258383751E0	-1.884140968E0
7.987911418E0	-4.161862373E0	-1.139273643E0	-1.816202164E0
7.996193610E0	-3.704358578E0	-1.289539337E0	-1.298499823E0
8.004300572E0	-3.359625101E0	-1.449424744E0	-3.463077545E-2
8.012653225E0	-3.077221632E0	-1.599534988E0	1.374522686E0
8.020972196E0	-2.259251118E0	-1.650519371E0	2.406034946E0
8.029090581E0	-1.157890797E0	-1.493947983E0	2.891539574E0
8.037205965E0	2.728435993E-1	-1.053822517E0	3.038731575E0
8.045289504E0	2.022730350E0	-4.782972336E-1	2.912299871E0
8.053338648E0	3.463940620E0	7.505512238E-2	2.593653440E0
8.061193802E0	4.396300316E0	4.297704697E-1	2.775675774E0
8.069381610E0	4.612284184E0	5.267057419E-1	3.177389622E0
8.077635148E0	4.050566673E0	5.631856918E-1	3.447777987E0
8.085809379E0	3.080483913E0	6.221933365E-1	3.384082317E0
8.094175110E0	2.017277718E0	7.833271027E-1	3.196075678E0
8.102451888E0	9.116477966E-1	1.010841846E0	2.832228899E0
8.110585311E0	-2.041723728E-1	1.265806675E0	2.353820324E0
8.118701542E0	-1.227191925E0	1.483790874E0	1.684046030E0
8.126819504E0	-2.228333473E0	1.630303860E0	1.028282881E0
8.134926494E0	-2.929668188E0	1.687086105E0	4.892227650E-1
8.142708148E0	-3.235186577E0	1.641636372E0	2.064166069E-1
8.150902687E0	-3.138220549E0	1.440346241E0	-3.452301025E-3
8.159182841E0	-2.788289785E0	1.186781883E0	-1.391520500E-1
8.167325148E0	-2.298940659E0	8.806447983E-1	-3.550543785E-1
8.175684879E0	-1.607072353E0	4.673461914E-1	-3.420591354E-1
8.184000888E0	-9.126605988E-1	1.246051788E-1	-3.816256523E-1
8.192098465E0	-1.953003407E-1	-1.252450943E-1	-2.001185417E-1
8.200215234E0	4.925947189E-1	-2.524309158E-1	-1.729054451E-1
8.208347888E0	1.142236829E0	-2.370243073E-1	-1.119089127E-1
8.216402918E0	1.651808619E0	-8.566570282E-2	4.287815094E-2
8.224144841E0	1.968188524E0	5.692386627E-2	1.581320763E-1
8.232423764E0	1.932752609E0	7.280445099E-2	2.122926712E-1
8.240641033E0	1.396342158E0	-5.894947052E-2	1.844835281E-1
8.248809225E0	5.826686621E-1	-3.078384399E-1	1.073665619E-1
8.257138148E0	-1.202752590E-1	-5.590124130E-1	7.434940338E-2
8.265535542E0	-6.003422737E-1	-7.570638657E-1	4.244136810E-2
8.273618888E0	-8.561081886E-1	-8.697452545E-1	7.641792297E-3
8.281739080E0	-8.590650558E-1	-8.593664169E-1	-2.179193497E-2
8.289856003E0	-6.783137321E-1	-7.779932022E-1	1.788425446E-2
8.297893571E0	-3.533661366E-1	-6.535730362E-1	1.082901955E-1
8.305666879E0	3.518152237E-2	-5.201864243E-1	1.492376328E-1
8.313933533E0	4.096715450E-1	-4.179229736E-1	1.939568520E-1
8.322148956E0	6.598583460E-1	-3.629732132E-1	1.703228951E-1
8.330371879E0	7.759823799E-1	-4.043922424E-1	7.928466797E-2
8.338712917E0	7.342228889E-1	-4.982595444E-1	3.271675110E-2
8.347073657E0	5.707775354E-1	-6.259374619E-1	-2.092871666E-1
8.355204541E0	3.345742226E-1	-7.295160294E-1	-4.176316261E-1
8.363330464E0	5.541276932E-2	-7.447624207E-1	-6.535451412E-1
8.371447041E0	-2.266676426E-1	-6.657400131E-1	-8.134434223E-1
8.379578656E0	-4.278576374E-1	-5.568628311E-1	-9.830899239E-1
8.387237033E0	-6.299915314E-1	-2.710695267E-1	-1.094995975E0
8.395497187E0	-8.934707642E-1	1.603794098E-2	-1.185719252E0
8.403790571E0	-1.144260168E0	2.529678345E-1	-1.256042242E0
8.411965764E0	-1.338572264E0	3.909072876E-1	-1.294895649E0
8.420320264E0	-1.475563765E0	4.511728287E-1	-1.378120899E0
8.428680772E0	-1.548857927E0	5.086174011E-1	-1.445909262E0
8.444923233E0	-1.346559048E0	5.343174934E-1	-1.685351372E0
8.453056041E0	-1.102632999E0	4.210338593E-1	-1.807747602E0
8.461175925E0	-9.328932762E-1	2.921352386E-1	-1.886806726E0
8.468864379E0	-7.883012295E-1	2.179746628E-1	-1.941857338E0
8.477148379E0	-6.916675568E-1	1.740627289E-1	-1.931174517E0
8.485359956E0	-6.688289642E-1	2.061576843E-1	-1.904715538E0
8.493539687E0	-6.524558067E-1	2.666301727E-1	-1.883321404E0
8.502051956E0	-6.107280254E-1	4.062480927E-1	-1.733552217E0
8.510267579E0	-5.974783897E-1	7.077307701E-1	-1.578133821E0
8.518386848E0	-5.358507633E-1	9.648556709E-1	-1.320762873E0
8.526521771E0	-3.463194370E-1	1.034922123E0	-8.080582619E-1
8.534638810E0	-6.183886528E-2	9.881210327E-1	-2.902729511E-1
8.542671687E0	3.141219616E-1	8.707609177E-1	2.190885544E-1
8.550447956E0	5.750586987E-1	7.819023132E-1	5.812551975E-1
8.558710225E0	7.368075848E-1	6.377658844E-1	8.711035252E-1
8.566949456E0	8.258593082E-1	4.340610504E-1	1.052623510E0
8.575137840E0	8.545422554E-1	1.186447144E-1	1.195086718E0
8.583457417E0	8.740634918E-1	-3.466396332E-1	1.323603153E0
8.591852886E0	8.869693279E-1	-7.015514374E-1	1.431295872E0
8.599965271E0	9.525809288E-1	-9.597663879E-1	1.601066113E0
8.608092425E0	1.087294340E0	-1.016095161E0	1.714567184E0
8.616211348E0	1.231872439E0	-9.005231857E-1	1.952959061E0
8.624272879E0	1.374704957E0	-7.717218399E-1	2.087369680E0
8.632085610E0	1.492630601E0	-2.926540375E-1	2.176430941E0
8.640296840E0	1.490250468E0	1.561355591E-2	2.202573061E0
8.648517494E0	1.386028886E0	7.794952393E-2	2.121025324E0
8.656704033E0	1.208312511E0	2.290134430E-1	2.238454819E0
8.665038686E0	8.763735294E-1	2.938766479E-1	2.188747644E0
8.673441463E0	5.478830338E-1	3.005199432E-1	2.145693541E0
8.681526194E0	2.482419014E-1	2.605304718E-1	2.028971195E0
8.689652809E0	4.816436768E-2	2.219028473E-1	1.825902462E0
8.697785732E0	-7.504320145E-2	1.872644424E-1	1.538039684E0
8.705902194E0	-8.758068085E-2	6.250095367E-2	1.190145493E0
8.713567186E0	-1.962161064E-2	-5.413627625E-2	8.334805965E-1
8.721837571E0	2.990078926E-2	-1.737871170E-1	5.215699673E-1
8.730119071E0	3.419446945E-2	-3.153467178E-1	2.252514362E-1
8.738245686E0	4.236817360E-2	-3.268146515E-1	3.275442123E-2
8.746619725E0	9.232211113E-2	-2.736692429E-1	-1.758153439E-1
8.754978578E0	2.730643749E-1	-2.880821228E-1	-3.300879002E-1
8.763093924E0	4.846262932E-1	-2.801103592E-1	-4.305324554E-1
8.771225924E0	6.932449341E-1	-2.704277039E-1	-4.817478657E-1
8.779342847E0	8.958243132E-1	-2.365312576E-1	-4.452760220E-1
8.787440763E0	1.065410256E0	-2.007894516E-1	-3.475496769E-1
8.795257686E0	1.152246714E0	-1.538715363E-1	-1.831312180E-1
8.803457417E0	1.061761022E0	-9.218978882E-2	-5.749464035E-3
8.811714840E0	8.902304173E-1	-3.911781311E-2	1.390450001E-1
8.819893148E0	5.977003574E-1	-7.810592651E-3	2.791604996E-1
8.828148186E0	2.008906603E-1	1.440811157E-2	3.535284996E-1
8.836560116E0	-2.401139736E-1	-4.816055298E-3	3.955473900E-1
8.844691809E0	-6.918087006E-1	-6.806564331E-2	3.570964336E-1
8.852817462E0	-9.884479046E-1	-1.138916016E-1	2.370574474E-1
8.860933539E0	-1.123435020E0	-1.522903442E-1	8.367013931E-2
8.868996455E0	-1.080494404E0	-1.646842957E-1	-1.356401443E-1
8.876736148E0	-9.409644604E-1	-1.903877258E-1	-2.476594448E-1
8.885026879E0	-7.879242897E-1	-2.003974915E-1	-3.542420864E-1
8.893272802E0	-6.825652122E-1	-1.885662079E-1	-4.530885220E-1
8.901540186E0	-6.411573887E-1	-1.352262497E-1	-6.086142063E-1
8.909844648E0	-6.131808758E-1	-6.939888000E-2	-6.847352982E-1
8.918169116E0	-5.829291344E-1	1.084423065E-2	-6.997282505E-1
8.926288193E0	-5.399057865E-1	8.563041687E-2	-6.919062138E-1
8.934418154E0	-5.002934933E-1	1.593160629E-1	-6.762142181E-1
8.942551193E0	-4.436335564E-1	1.712207794E-1	-5.930044651E-1
8.950666847E0	-4.252243042E-1	1.564998627E-1	-3.787894249E-1
8.958351571E0	-4.546096325E-1	1.444301605E-1	-1.364285946E-1
8.966875494E0	-4.992978573E-1	1.447792053E-1	5.776429176E-2
8.974846225E0	-5.620439053E-1	1.711454391E-1	1.424438953E-1
8.983065263E0	-6.134638786E-1	2.499780655E-1	1.437332630E-1
8.991475494E0	-6.261358261E-1	3.346996307E-1	7.005906105E-2
8.999745270E0	-6.092500687E-1	4.206056595E-1	-1.955866814E-2
9.007843885E0	-5.576531887E-1	4.762239456E-1	-4.748487473E-2
9.015977116E0	-4.931976795E-1	4.728078842E-1	-1.153278351E-2
9.024095077E0	-4.007277489E-1	4.011936188E-1	1.641225815E-2
9.032213462E0	-3.193776608E-1	2.761049271E-1	1.272392273E-2
9.039918802E0	-2.527389526E-1	1.412830353E-1	1.407289505E-2
9.048221917E0	-1.960086823E-1	-2.783584595E-2	-3.514480591E-2
9.056491571E0	-8.163428307E-2	-2.227640152E-1	3.044962883E-2
9.064587071E0	1.016609669E-1	-3.607339859E-1	-2.271318436E-2
9.073065532E0	3.031592369E-1	-4.691743851E-1	-1.001677513E-1
9.081338692E0	5.313568115E-1	-5.315790176E-1	-2.238667011E-1
9.089473615E0	7.630752325E-1	-5.477123260E-1	-2.858042717E-1
9.097601577E0	9.871121645E-1	-5.226860046E-1	-3.167512417E-1
9.105717808E0	1.194524407E0	-4.394521713E-1	-3.858728409E-1
9.113850731E0	1.354482174E0	-3.527069092E-1	-3.787381649E-1
9.121607686E0	1.476119995E0	-3.120450974E-1	-3.098900318E-1
9.129899840E0	1.520745277E0	-3.542995453E-1	-2.102577686E-1
9.138126225E0	1.463583708E0	-4.490175247E-1	-1.112625599E-1
9.146306378E0	1.294739842E0	-5.934648514E-1	-5.840420723E-2
9.154654301E0	9.680885077E-1	-7.967634201E-1	-8.073401451E-2
9.162949384E0	6.695533991E-1	-9.094085693E-1	-1.632120609E-1
9.171065923E0	4.452987909E-1	-9.494876862E-1	-3.007516861E-1
9.179192846E0	3.113358021E-1	-8.711185455E-1	-4.452140331E-1
9.187292692E0	2.648656368E-1	-7.187900543E-1	-5.146439075E-1
9.195357878E0	2.132833004E-1	-5.070095062E-1	-4.840853214E-1
9.203123571E0	1.486074924E-1	-2.522516251E-1	-3.859558105E-1
9.211413148E0	-4.274058342E-2	3.362941742E-2	-2.924256325E-1
9.219536994E0	-2.744829655E-1	2.606563568E-1	-2.221469879E-1
9.227740724E0	-5.874190331E-1	4.048948288E-1	-1.952705383E-1
9.236010917E0	-8.872628212E-1	4.131870270E-1	-2.153537273E-1
9.244389269E0	-1.136830091E0	3.027763367E-1	-2.807219028E-1
9.252504345E0	-1.297141314E0	1.325168610E-1	-3.681869507E-1
9.260633922E0	-1.375971794E0	-3.996562958E-2	-4.765372276E-1
9.268746768E0	-1.331606388E0	-9.907722473E-2	-5.248982906E-1
9.276803455E0	-1.193079710E0	-3.278255463E-2	-4.883828163E-1
9.284562840E0	-9.871003628E-1	1.729106903E-1	-4.272284508E-1
9.292845378E0	-7.695095539E-1	4.046840668E-1	-3.142881393E-1
9.301221609E0	-4.824848175E-1	5.712394714E-1	-1.624679565E-1
9.309389071E0	-2.150356770E-1	6.685581207E-1	-4.427194595E-3
9.317552378E0	-9.504675865E-2	6.822137833E-1	1.387689114E-1
9.325956768E0	-1.102089882E-1	6.307477951E-1	2.841477394E-1
9.334087961E0	-2.236278057E-1	5.256958008E-1	3.349106312E-1
9.342179499E0	-3.722350597E-1	3.692226410E-1	3.144392967E-1
9.350262576E0	-5.081579685E-1	2.015237808E-1	2.633521557E-1
9.358393230E0	-6.210355759E-1	6.842231750E-2	2.262198925E-1
9.366037647E0	-6.656076908E-1	-4.620552063E-2	2.428302765E-1
9.374345109E0	-6.769316196E-1	-7.923507690E-2	2.591273785E-1
9.382582494E0	-6.554155350E-1	-3.037548065E-2	2.858498096E-1
9.390805917E0	-5.713624954E-1	4.689693451E-2	3.504309654E-1
9.399066186E0	-4.718985558E-1	1.069898605E-1	4.370031357E-1
9.407493114E0	-3.141436577E-1	1.182622910E-1	5.441207886E-1
9.415589537E0	-2.282710075E-1	1.002645493E-1	5.955123901E-1
9.423718306E0	-1.788494587E-1	6.904888153E-2	5.861260891E-1
9.431849499E0	-1.096000671E-1	-1.142597198E-2	6.028242111E-1
9.439880109E0	-2.766942978E-2	-1.026010513E-1	5.840680599E-1
9.447646647E0	6.417298317E-2	-1.600675583E-1	5.184273720E-1
9.455931570E0	1.451454163E-1	-1.724472046E-1	4.385583401E-1
9.464146917E0	2.248463631E-1	-1.745786667E-1	3.542144299E-1
9.472437570E0	3.521790504E-1	-1.710348129E-1	3.055288792E-1
9.480726917E0	4.210364819E-1	-1.393127441E-1	2.611782551E-1
9.489032383E0	4.668853283E-1	-9.658718109E-2	2.293663025E-1
9.497148268E0	4.634284973E-1	-8.458423615E-2	2.042658329E-1
9.505277614E0	4.820861816E-1	-9.647369385E-2	2.373888493E-1
9.513361344E0	4.329082966E-1	-1.040201187E-1	2.733089924E-1
9.521477883E0	3.591506481E-1	-4.116725922E-2	2.255036831E-1
9.529183109E0	2.976632118E-1	4.582023621E-2	1.305768490E-1
9.537459532E0	2.458977699E-1	1.060857773E-1	5.891704559E-2
9.546009340E0	2.009043694E-1	1.510906219E-1	-3.668308258E-3
9.554258190E0	1.237902641E-1	1.855525970E-1	-9.675765038E-2
9.562229878E0	4.590868950E-2	2.022371292E-1	-2.011947632E-1
9.570569267E0	-1.919651031E-2	2.203559875E-1	-3.198282719E-1
9.578700421E0	-4.680490494E-2	1.621980667E-1	-3.527526855E-1
9.586794575E0	-5.714559555E-2	9.041309357E-2	-3.405566216E-1
9.594878575E0	-5.614089966E-2	-1.813125610E-2	-2.559340000E-1
9.602975955E0	-6.569194794E-2	-1.180372238E-1	-1.735579967E-1
9.610710878E0	-6.447887421E-2	-1.852302551E-1	-6.937909126E-2
9.618977186E0	-4.768776894E-2	-2.322463989E-1	6.256484985E-2
9.627211109E0	-1.238298416E-2	-1.902208328E-1	1.567587852E-1
9.635372301E0	3.477764130E-2	-1.001033783E-1	2.633116245E-1
9.643728224E0	7.505893707E-2	1.880741119E-2	3.079638481E-1
9.652107921E0	1.296739578E-1	1.474132538E-1	3.097653389E-1
9.660225190E0	1.556146145E-1	2.514734268E-1	3.102726936E-1
9.668348959E0	2.099199295E-1	3.214311600E-1	2.829065323E-1
9.676479421E0	2.802519798E-1	3.379058838E-1	2.604365349E-1
9.684527724E0	3.585176468E-1	3.157272339E-1	2.624137402E-1
9.692336301E0	4.320068359E-1	2.768526077E-1	2.413675785E-1
9.700640878E0	4.728720188E-1	2.476940155E-1	2.251791954E-1
9.708750263E0	4.677052498E-1	2.121562958E-1	1.992423534E-1
9.716868147E0	4.388973713E-1	1.914577484E-1	1.801931858E-1
9.725192186E0	3.797080517E-1	1.617441177E-1	1.541874409E-1
9.733568767E0	3.200731277E-1	1.231355667E-1	1.151137352E-1
9.741685113E0	2.386400700E-1	7.985877991E-2	7.061767578E-2
9.749816036E0	1.568419933E-1	4.166126251E-2	1.856970787E-2
9.757933344E0	1.252942085E-1	-1.568603516E-2	-3.154754639E-3
9.766048536E0	1.174654961E-1	-6.609344482E-2	7.155179977E-3
9.771630993E0	1.278960705E-1	-9.508991241E-2	-9.977817535E-4
9.773935763E0	1.255018711E-1	-1.166372299E-1	1.396417618E-3
9.782051186E0	1.652536392E-1	-1.601953506E-1	3.870224953E-2
9.790289070E0	1.859991550E-1	-2.109203339E-1	5.699729919E-2
9.798588070E0	2.092490196E-1	-2.161188126E-1	7.306337357E-2
9.806781801E0	2.044789791E-1	-2.309999466E-1	1.085226536E-1
9.815168459E0	2.237334251E-1	-2.192993164E-1	1.302165985E-1
9.823277689E0	2.434902191E-1	-1.958589554E-1	1.876482964E-1
9.831403728E0	2.343702316E-1	-1.558818817E-1	2.445149422E-1
9.839520112E0	2.155618668E-1	-1.019115448E-1	2.741847038E-1
9.847635032E0	1.802203655E-1	-3.175354004E-2	2.860131264E-1
9.855370609E0	1.291711330E-1	1.857089996E-2	2.587177753E-1
9.863677878E0	5.070114136E-2	6.333541870E-2	2.281870842E-1
9.871859647E0	3.172659874E-2	8.345603943E-2	1.806402206E-1
9.880082762E0	-2.835559845E-2	1.005086899E-1	1.352674961E-1
9.888405801E0	-9.362649918E-2	8.117389679E-2	7.573819160E-2
9.896742881E0	-1.284985542E-1	6.386470795E-2	2.363348007E-2
9.904857535E0	-1.745285988E-1	4.409027100E-2	-1.853370667E-2
9.912981651E0	-1.963772774E-1	4.350185394E-2	-6.286382675E-2
9.929229304E0	-2.437012196E-1	8.098030090E-2	-9.885072708E-2
9.933284535E0	-2.498097420E-1	1.000833511E-1	-9.235715866E-2
9.934521186E0	-2.617807388E-1	1.048717499E-1	-9.953975677E-2
9.937044339E0	-2.689633369E-1	1.144485474E-1	-9.953975677E-2
9.945233455E0	-2.721133232E-1	1.504487991E-1	-9.958171844E-2
9.953504455E0	-2.911291122E-1	1.652135849E-1	-9.360551834E-2
9.961610762E0	-2.855505943E-1	1.611185074E-1	-7.941150665E-2
9.969948493E0	-2.908034325E-1	1.452960968E-1	-1.118597984E-1
9.978304073E0	-2.735626698E-1	8.697795868E-2	-1.567916870E-1
9.986420843E0	-2.463209629E-1	1.989364624E-2	-2.021083832E-1
9.994554304E0	-2.095470428E-1	-4.142856598E-2	-1.782994270E-1
1.000267227E1	-1.761584282E-1	-1.185150146E-1	-1.577472687E-1
1.001078954E1	-1.233084202E-1	-1.753234863E-1	-8.819079399E-2
1.001848322E1	-7.588791847E-2	-2.358884811E-1	-7.098364830E-2
1.002677776E1	-7.550477982E-3	-2.733316422E-1	-2.593946457E-2
1.003504657E1	1.234483719E-2	-2.974166870E-1	2.745437622E-2
1.004326353E1	2.952194214E-2	-3.130149841E-1	1.322824955E-1
1.005989357E1	8.467984200E-2	-3.902416229E-1	4.480535984E-1
1.006802573E1	9.686875343E-2	-4.458217621E-1	5.587081909E-1
1.007615111E1	8.521652222E-2	-5.016536713E-1	6.482813358E-1
1.008426623E1	7.578229904E-2	-5.545463562E-1	7.241411209E-1
1.009233888E1	9.238553047E-2	-5.874691010E-1	8.011512756E-1
1.010007892E1	1.257865429E-1	-6.078624725E-1	9.052796364E-1
1.010835984E1	1.583466530E-1	-5.468664169E-1	9.772264957E-1
1.011661565E1	2.077279091E-1	-4.084138870E-1	8.686692715E-1
1.012478296E1	2.493805885E-1	-2.288446426E-1	6.683585644E-1
1.013307253E1	3.333947659E-1	-3.458213806E-2	4.789636135E-1
1.014148730E1	4.000236988E-1	1.147689819E-1	2.293024063E-1
1.014960323E1	4.821563959E-1	2.423896790E-1	6.395816803E-3
1.015772942E1	5.305994749E-1	3.348655701E-1	-1.525719166E-1
1.016585953E1	5.559588671E-1	3.796873093E-1	-2.683737278E-1
1.017388819E1	5.395535231E-1	3.758354187E-1	-5.125708580E-1
1.018169615E1	4.996680021E-1	2.831468582E-1	-7.931611538E-1
1.018995972E1	4.518505335E-1	7.854461670E-2	-9.546849728E-1
1.020625984E1	2.773749828E-1	-5.122308731E-1	-6.909663677E-1
1.021459757E1	1.408371925E-1	-6.819772720E-1	-4.462537766E-1
1.022293634E1	6.173801422E-2	-6.568088531E-1	-2.544562817E-1
1.023103146E1	2.797150612E-2	-4.606494904E-1	-1.095097065E-1
1.023916203E1	-1.947474480E-2	-1.460151672E-1	-2.286362648E-2
1.024727676E1	-1.234319210E-1	1.575345993E-1	1.508650780E-1
1.025536846E1	-2.988057137E-1	3.478431702E-1	2.790703773E-1
1.026316896E1	-4.700956345E-1	3.625926971E-1	4.392976761E-1
1.027142026E1	-6.202564240E-1	2.520589828E-1	3.995647430E-1
1.027994749E1	-7.208440304E-1	7.129096985E-2	3.718817234E-1
1.028781503E1	-8.525319099E-1	-5.922794342E-2	2.484350204E-1
1.029609161E1	-9.986755848E-1	-1.049537659E-1	-3.263020515E-2
1.030447503E1	-9.872283936E-1	-8.637237549E-2	-3.205716610E-1
1.031260542E1	-9.652512074E-1	-5.343723297E-2	-6.926848888E-1
1.032884742E1	-8.104348183E-1	3.152942657E-2	-1.035378695E0
1.033697819E1	-7.423117161E-1	8.151435852E-2	-1.116560936E0
1.034469057E1	-6.711740494E-1	1.203069687E-1	-1.171086788E0
1.035295684E1	-5.258502960E-1	1.475992203E-1	-1.109930038E0
1.036122634E1	-3.598141670E-1	1.850671768E-1	-1.180869818E0
1.036937776E1	-1.788315773E-1	1.467237473E-1	-1.214320898E0
1.037770826E1	-7.172536850E-2	5.177116394E-2	-1.156062365E0
1.038607503E1	-3.553414345E-2	-5.259704590E-2	-1.021661758E0
1.039419030E1	-5.876636505E-2	-1.417255402E-1	-7.992980480E-1
1.040231573E1	-1.130144596E-1	-1.853446960E-1	-5.541512966E-1
1.041044626E1	-1.108851433E-1	-1.604461670E-1	-3.474807739E-1
1.041850276E1	1.114130020E-2	-3.386402130E-2	-1.524040699E-1
1.042621880E1	1.319611073E-1	1.513957977E-1	-2.260994911E-2
1.043454815E1	1.957082748E-1	3.317470551E-1	1.505374908E-2
1.044276230E1	1.387834549E-1	4.703626633E-1	2.129292488E-2
1.045092980E1	-1.259922981E-2	5.391969681E-1	1.528158188E-1
1.045924107E1	-2.552514076E-1	5.272159576E-1	3.629224300E-1
1.046763292E1	-5.691719055E-1	5.061187744E-1	5.878376961E-1
1.047574765E1	-7.906682491E-1	4.852123260E-1	5.336246490E-1
1.048388246E1	-9.063427448E-1	5.064029694E-1	1.901071072E-1
1.049199938E1	-9.016153812E-1	5.363731384E-1	-2.491004467E-1
1.050002965E1	-7.982869148E-1	5.468835831E-1	-5.943920612E-1
1.050776961E1	-7.222511768E-1	5.052795410E-1	-7.752292156E-1
1.051612711E1	-5.909554958E-1	4.596004486E-1	-8.188753128E-1
1.052430369E1	-5.699169636E-1	4.003620148E-1	-8.420798779E-1
1.053259168E1	-4.927916527E-1	3.292131424E-1	-8.503456116E-1
1.054078653E1	-3.397965431E-1	3.063840866E-1	-8.295798302E-1
1.054917453E1	-1.327691078E-1	3.292713165E-1	-7.420008183E-1
1.055730530E1	9.878730774E-2	3.326053619E-1	-6.254403591E-1
1.056543138E1	4.178526402E-1	3.145837784E-1	-4.629957676E-1
1.057354696E1	7.043213844E-1	2.653408051E-1	-2.053494453E-1
1.058167846E1	9.376595020E-1	1.226768494E-1	1.053454876E-1
1.058944330E1	1.069971085E0	-2.744865417E-2	3.584218025E-1
1.059765680E1	1.185828447E0	-2.034091949E-1	5.376234055E-1
1.060602995E1	9.614675045E-1	-2.134447098E-1	2.600853443E-1
1.061412299E1	1.395898819E0	-4.753017426E-1	9.666233063E-1
1.062241103E1	1.615238190E0	-5.884990692E-1	9.476053715E-1
1.063077672E1	1.704638243E0	-5.839424133E-1	1.110901833E0
1.063887476E1	1.673613548E0	-4.835281372E-1	1.232893944E0
1.064700111E1	1.604559660E0	-3.690109253E-1	1.363921881E0
1.065513207E1	1.439172149E0	-3.085050583E-1	1.430057526E0
1.066323011E1	1.212268829E0	-2.474737167E-1	1.502148151E0
1.067104895E1	7.863868475E-1	2.403697968E-1	9.540975094E-1
1.067939715E1	1.028147697E0	-1.640243530E-1	1.469104052E0
1.068739892E1	8.932391405E-1	-3.341951370E-1	1.540486813E0
1.069574242E1	6.341463327E-1	-4.267654419E-1	1.525295734E0
1.070386342E1	3.513752222E-1	-4.755783081E-1	1.562550545E0
1.071223061E1	1.506631374E-1	-3.976182938E-1	1.518878698E0
1.072031611E1	4.091215134E-2	-3.142442703E-1	1.479544878E0
1.072844888E1	-5.719041824E-2	-2.018785477E-1	1.427261829E0
1.073656599E1	-9.444284439E-2	-9.428977966E-2	1.274489164E0
1.074462038E1	-9.942030907E-2	-7.225894928E-2	1.043132544E0
1.075243268E1	-5.482554436E-2	-1.187753677E-1	7.917790413E-1
1.076068672E1	-6.361484528E-3	-2.071428299E-1	5.174117088E-1
1.076894938E1	4.711413383E-2	-2.767248154E-1	1.965408325E-1
1.077710003E1	8.759474754E-2	-3.345155716E-1	-1.186590195E-1
1.078546130E1	1.462061405E-1	-3.752727509E-1	-4.104862213E-1
1.079379365E1	1.871035099E-1	-3.860244751E-1	-6.071498394E-1
1.080192761E1	2.452776432E-1	-3.268375397E-1	-7.164421082E-1
1.081004699E1	2.809481621E-1	-2.170820236E-1	-7.567307949E-1
1.081816619E1	2.723374367E-1	-9.434604645E-2	-7.326614857E-1
1.082622842E1	2.131812572E-1	3.734016418E-2	-6.629037857E-1
1.083400330E1	9.871721268E-2	1.616220474E-1	-5.651760101E-1
1.084226749E1	-7.152318954E-3	2.319154739E-1	-4.052200317E-1
1.085054688E1	-1.140990257E-1	2.553024292E-1	-2.262802124E-1
1.085870903E1	-2.375068665E-1	2.416076660E-1	-7.872152328E-2
1.086700284E1	-3.612687588E-1	1.841840744E-1	7.910633087E-2
1.087540930E1	-4.994301796E-1	1.392021179E-1	1.736679077E-1
1.088352661E1	-6.034553051E-1	7.817554474E-2	2.577877045E-1
1.089165438E1	-6.370501518E-1	3.826522827E-2	3.109340668E-1
1.089978518E1	-6.346249580E-1	1.222515106E-2	3.538706303E-1
1.090784630E1	-6.343886852E-1	5.987548828E-2	4.185450077E-1
1.091559045E1	-5.732934475E-1	1.130075455E-1	5.032904148E-1
1.092387588E1	-4.621551037E-1	2.183914185E-1	5.508038998E-1
1.093208845E1	-2.941963673E-1	3.331851959E-1	5.575895309E-1
1.094040026E1	-7.083940506E-2	4.712820053E-1	5.646224022E-1
1.094859153E1	7.880067825E-2	5.353517532E-1	5.823864937E-1
1.095698207E1	1.344764233E-1	5.546817780E-1	6.381499767E-1
1.096509845E1	1.138238907E-1	4.958763123E-1	6.779685020E-1
1.097322892E1	3.156661987E-3	3.481550217E-1	6.363337040E-1
1.098134445E1	-1.505424976E-1	1.472177505E-1	6.471495628E-1
1.098941161E1	-2.770967484E-1	-1.343994141E-1	8.122777939E-1
1.099738734E1	-3.247175217E-1	-3.973197937E-1	7.261099815E-1
1.100545849E1	-2.354297638E-1	-5.532960892E-1	1.577191353E-1
1.101389192E1	-2.940416336E-2	-6.872634888E-1	-4.560532570E-1
1.102204495E1	3.078927994E-1	-8.452510834E-1	-9.654870033E-1
1.103027415E1	6.076275110E-1	-9.451751709E-1	-1.269659758E0
1.103854895E1	7.692470551E-1	-9.982805252E-1	-1.400444269E0
1.104665999E1	8.081399202E-1	-1.089174271E0	-1.343821764E0
1.105477399E1	7.679288387E-1	-1.175021172E0	-1.241945982E0
1.106289030E1	6.615725756E-1	-1.279056549E0	-1.110008955E0
1.107102115E1	4.594707489E-1	-1.334763527E0	-9.818260670E-1
1.107872942E1	2.873723507E-1	-1.323632240E0	-8.526170254E-1
1.108705634E1	5.237793922E-2	-1.180989265E0	-7.357962132E-1
1.109532284E1	-1.116325855E-1	-9.672603607E-1	-5.547821522E-1
1.110346815E1	-1.850109100E-1	-7.580633163E-1	-3.514373302E-1
1.111181195E1	-2.709300518E-1	-4.989089966E-1	-2.595503330E-1
1.112013972E1	-3.672463894E-1	-1.862564087E-1	-1.824591160E-1
1.112825495E1	-4.804639816E-1	1.468162537E-1	-1.655342579E-1
1.113638080E1	-5.807495117E-1	4.945926666E-1	-1.407072544E-1
1.114451268E1	-7.120752335E-1	9.301886559E-1	-2.004742622E-1
1.115257034E1	-7.450890541E-1	1.250416279E0	-2.618405819E-1
1.116033738E1	-7.716770172E-1	1.501740932E0	-2.973730564E-1
1.116865507E1	-7.636168003E-1	1.633233070E0	-3.441073895E-1
1.118490257E1	-8.216996193E-1	1.509698868E0	-6.171576977E-1
1.119326238E1	-8.187713623E-1	1.245094299E0	-7.880477905E-1
1.120159253E1	-7.904803753E-1	9.739546776E-1	-8.686077595E-1
1.120970699E1	-7.262318134E-1	7.125988007E-1	-9.269967079E-1
1.121783703E1	-6.528046131E-1	4.659748077E-1	-8.896236420E-1
1.122595188E1	-5.288443565E-1	1.878480911E-1	-7.082545757E-1
1.123401722E1	-3.802022934E-1	-1.254816055E-1	-4.462566376E-1
1.124186868E1	-2.644605637E-1	-4.043569565E-1	-1.837432384E-1
1.125006115E1	-1.859908104E-1	-6.295642853E-1	-8.790731430E-3
1.125835053E1	-1.101765633E-1	-8.767414093E-1	1.908178329E-1
1.126651357E1	-6.439971924E-2	-1.014869690E0	4.014074802E-1
1.127475661E1	2.911114693E-2	-1.101905823E0	5.407042503E-1
1.128315726E1	1.540186405E-1	-1.055846214E0	5.475058556E-1
1.129128703E1	4.018735886E-1	-9.257230759E-1	4.937689304E-1
1.129941084E1	7.444941998E-1	-6.926250458E-1	4.383656979E-1
1.130752342E1	1.055932164E0	-3.963308334E-1	4.222989082E-1
1.131561769E1	1.110772491E0	-1.769914627E-1	4.502561092E-1
1.132337130E1	1.017014623E0	-4.504776001E-2	4.812462330E-1
1.133171822E1	7.616597414E-1	2.574634552E-2	3.875503540E-1
1.133995457E1	3.984711170E-1	8.949947357E-2	2.356073856E-1
1.134802930E1	3.108406067E-2	1.472225189E-1	8.998966217E-2
1.135634599E1	-3.634216785E-1	2.257204056E-1	-5.108785629E-2
1.136473338E1	-6.718230247E-1	3.357973099E-1	-1.617851257E-1
1.137285038E1	-9.302966595E-1	4.458274841E-1	-3.644635677E-1
1.138097572E1	-1.072361708E0	5.240573883E-1	-5.940577984E-1
1.138910672E1	-1.094887018E0	4.905948639E-1	-7.521820068E-1
1.139722241E1	-1.005075216E0	3.773584366E-1	-7.904467583E-1
1.140491892E1	-8.655185699E-1	1.947546005E-1	-7.317721844E-1
1.141325684E1	-6.697227955E-1	-1.444625854E-2	-5.781419277E-1
1.142147568E1	-4.963088036E-1	-1.305723190E-1	-4.691536427E-1
1.142959592E1	-3.053441048E-1	-2.640190125E-1	-3.868844509E-1
1.143813361E1	-6.750321388E-2	-4.120388031E-1	-2.989461422E-1
1.144627264E1	1.253104210E-1	-4.890956879E-1	-2.184102535E-1
1.145436757E1	2.798416615E-1	-5.339803696E-1	-1.356153488E-1
1.146249626E1	3.804419041E-1	-4.997682571E-1	-4.744863510E-2
1.147060938E1	4.088902473E-1	-3.725957870E-1	2.571487427E-2
1.148646657E1	5.587515831E-1	-2.919034958E-1	7.357192039E-2
1.149466399E1	5.686819553E-1	-2.297906876E-1	1.715700626E-1
1.150296538E1	5.035445690E-1	-1.317043304E-1	3.128764629E-1
1.151115611E1	3.769929409E-1	1.109600067E-2	3.409731388E-1
1.151942149E1	2.244844437E-1	1.381473541E-1	3.993635178E-1
1.152780876E1	7.340764999E-2	2.660932541E-1	3.879640102E-1
1.153593791E1	-9.851717949E-2	3.991498947E-1	4.716787338E-1
1.154406099E1	-2.695095539E-1	5.174312592E-1	4.955406189E-1
1.155217576E1	-3.804700375E-1	5.891275406E-1	4.805302620E-1
1.156026365E1	-5.038428307E-1	6.494874954E-1	4.909405708E-1
1.156802884E1	-5.926146507E-1	6.359586716E-1	4.957001209E-1
1.157630715E1	-6.267049313E-1	5.761766434E-1	4.640560150E-1
1.158450853E1	-6.244685650E-1	4.595069885E-1	4.295141697E-1
1.159271345E1	-5.461025238E-1	3.460798264E-1	3.994195461E-1
1.160100957E1	-4.288320541E-1	2.147159576E-1	3.570878506E-1
1.160938249E1	-2.648329735E-1	1.019325256E-1	3.075876236E-1
1.161749488E1	-4.248881340E-2	2.200126648E-2	2.335879803E-1
1.162561918E1	1.637535095E-1	-3.046989441E-2	1.827812195E-1
1.163374957E1	3.708922863E-1	-4.392051697E-2	1.326138973E-1
1.164186261E1	5.019397736E-1	-6.643581390E-2	1.181159019E-1
1.164961676E1	5.660772324E-1	-1.330051422E-1	5.102109909E-2
1.165785984E1	5.429470539E-1	-1.791648865E-1	2.098727226E-2
1.166604630E1	4.881653786E-1	-2.807617188E-1	-7.271146774E-2
1.167415376E1	4.107308388E-1	-3.920001984E-1	-1.035730839E-1
1.168246342E1	3.805038929E-1	-4.747838974E-1	-1.555545330E-1
1.169081241E1	3.722496033E-1	-5.217475891E-1	-1.723835468E-1
1.169892676E1	3.987772465E-1	-5.067310333E-1	-1.179647446E-1
1.170705453E1	4.615056515E-1	-4.278936386E-1	-4.928040504E-2
1.171516672E1	5.202813148E-1	-3.214979172E-1	-2.419948578E-4
1.172325676E1	5.292162895E-1	-1.663599014E-1	5.919814110E-2
1.173099365E1	4.803764820E-1	1.015377045E-2	1.756763458E-1
1.173933011E1	4.225440025E-1	1.794195175E-1	2.095825672E-1
1.174747992E1	3.361661434E-1	3.064508438E-1	2.920978069E-1
1.175605045E1	2.163388729E-1	4.122161865E-1	3.858263493E-1
1.176397995E1	1.232097149E-1	4.847593307E-1	4.134736061E-1
1.177235672E1	2.079343796E-2	5.383605957E-1	4.545934200E-1
1.178048572E1	-6.780409813E-2	5.507793427E-1	4.846172333E-1
1.178861049E1	-1.331501007E-1	5.411195755E-1	5.105221272E-1
1.179672499E1	-1.680095196E-1	5.100059509E-1	5.027053356E-1
1.180485568E1	-1.853713989E-1	4.555320740E-1	4.760406017E-1
1.181262784E1	-1.837117672E-1	3.619041443E-1	4.154713154E-1
1.182095557E1	-1.868524551E-1	2.644405365E-1	3.221414089E-1
1.182909088E1	-1.907463074E-1	1.575746536E-1	2.232081890E-1
1.183723768E1	-1.724016666E-1	7.342815399E-2	1.490097046E-1
1.184556065E1	-1.448111534E-1	3.198623657E-3	5.989122391E-2
1.185394214E1	-1.324279308E-1	-2.914142609E-2	-1.572537422E-2
1.186203818E1	-9.546375275E-2	-7.611274719E-2	-9.966444969E-2
1.187016260E1	-6.953048706E-2	-1.238431931E-1	-1.737053394E-1
1.187829187E1	-4.726243019E-2	-1.750383377E-1	-2.288439274E-1
1.188636822E1	-2.086305618E-2	-2.493114471E-1	-2.753045559E-1
1.189409407E1	5.096197128E-3	-3.204040527E-1	-2.580511570E-1
1.190236961E1	3.358507156E-2	-3.808908463E-1	-2.360382080E-1
1.191061357E1	6.868147850E-2	-4.402093887E-1	-1.998140812E-1
1.191876088E1	9.836554527E-2	-4.673881531E-1	-1.545255184E-1
1.192708942E1	1.197783947E-1	-4.626178741E-1	-6.496834755E-2
1.193546199E1	1.713156700E-1	-4.214124680E-1	1.558566093E-2
1.194357626E1	2.144298553E-1	-3.468437195E-1	8.067274094E-2
1.195170557E1	2.511992455E-1	-2.676124573E-1	1.229658127E-1
1.195981868E1	2.507255077E-1	-1.793479919E-1	1.368803978E-1
1.196790068E1	2.281045914E-1	-7.016849518E-2	1.083049774E-1
1.197562272E1	2.008996010E-1	-3.594684601E-2	6.383681297E-2
1.198389418E1	1.714918613E-1	2.340316772E-3	3.702187538E-2
1.199212034E1	1.333460808E-1	1.584911346E-2	-2.228069305E-2
1.200032607E1	1.010940075E-1	2.622699738E-2	-6.578636169E-2
1.200864868E1	7.674098015E-2	2.439403534E-2	-1.357159615E-1
1.201702414E1	6.252002716E-2	4.648876190E-2	-2.005417347E-1
1.202515376E1	6.057381630E-2	7.611942291E-2	-2.500000000E-1
1.203327714E1	3.242087364E-2	1.063203812E-1	-2.909030914E-1
1.204139260E1	6.723642349E-3	1.516227722E-1	-3.420617580E-1
1.204942457E1	-1.423668861E-2	1.809158325E-1	-3.460452557E-1
1.205718257E1	-5.669760704E-2	1.964044571E-1	-3.439233303E-1
1.206550084E1	-8.724808693E-2	1.767539978E-1	-3.424403667E-1
1.207395195E1	-1.534850597E-1	1.696205139E-1	-3.203835487E-1
1.208190634E1	-1.906056404E-1	1.243190765E-1	-3.025188446E-1
1.209018234E1	-2.294764519E-1	6.271171570E-2	-2.616012096E-1
1.209860399E1	-2.312922478E-1	2.972030640E-2	-2.273626328E-1
1.210671699E1	-2.229926586E-1	-2.507686615E-2	-1.765623093E-1
1.211484168E1	-1.932015419E-1	-6.315612793E-2	-1.090927124E-1
1.212296926E1	-1.489360332E-1	-8.280181885E-2	-6.713700294E-2
1.213102076E1	-1.198973656E-1	-1.121206284E-1	-2.832245827E-2
1.213877468E1	-7.259321213E-2	-1.368951797E-1	6.979227066E-3
1.214716142E1	-1.932692528E-2	-1.687135696E-1	2.746605873E-2
1.215524434E1	-3.270149231E-3	-2.028379440E-1	7.129335403E-2
1.216339330E1	2.139878273E-2	-2.273206711E-1	1.002986431E-1
1.217166057E1	4.073834419E-2	-2.469100952E-1	1.196496487E-1
1.218004003E1	5.469441414E-2	-2.636814117E-1	1.324753761E-1
1.218815368E1	7.357931137E-2	-2.611999512E-1	1.432662010E-1
1.219628206E1	7.784485817E-2	-2.629804611E-1	1.456148624E-1
1.220439503E1	9.893250465E-2	-2.504997253E-1	1.765267849E-1
1.221250757E1	9.036135674E-2	-2.329959869E-1	2.457447052E-1
1.222020872E1	7.371282578E-2	-2.110080719E-1	2.993230820E-1
1.222848134E1	1.034789085E-1	-1.581850052E-1	2.914175987E-1
1.223678065E1	1.036407948E-1	-1.319217682E-1	2.465217113E-1
1.224497880E1	1.202280521E-1	-1.154890060E-1	2.439334393E-1
1.225320618E1	9.824204445E-2	-1.236886978E-1	3.544301987E-1
1.226158814E1	7.020401955E-2	-1.039390564E-1	4.430861473E-1
1.226969830E1	2.818584442E-2	-1.121616364E-1	4.777376652E-1
1.227782214E1	-6.854033470E-2	-1.121301651E-1	4.711151123E-1
1.228593814E1	-1.558785439E-1	-1.542034149E-1	4.337694645E-1
1.229404757E1	-2.118585110E-1	-1.806812286E-1	3.904914856E-1
1.230184842E1	-2.141883373E-1	-2.151250839E-1	3.235158920E-1
1.231003438E1	-1.994533539E-1	-2.411384583E-1	3.249151707E-1
1.231826445E1	-1.661374569E-1	-2.632312775E-1	3.756716251E-1
1.232657476E1	-1.203875542E-1	-2.572517395E-1	3.940598965E-1
1.233485242E1	-9.617304802E-2	-2.588405609E-1	3.565208912E-1
1.234315903E1	-5.323410034E-2	-2.753934860E-1	3.389110565E-1
1.235127483E1	-6.433963776E-3	-2.727346420E-1	2.084124088E-1
1.235939980E1	3.982949257E-2	-2.409658432E-1	2.109885216E-2
1.236752837E1	5.723690987E-2	-2.304525375E-1	-1.607475281E-1
1.237556114E1	4.299116135E-2	-2.128076553E-1	-2.065050602E-1
1.238351484E1	3.817558289E-3	-1.945476532E-1	-2.992432117E-1
1.239165038E1	-1.044917107E-2	-1.496391296E-1	-2.747499943E-1
1.240001876E1	-3.777289391E-2	-8.450222015E-2	-4.183638096E-1
1.240799376E1	-6.993150711E-2	-7.757949829E-2	-5.318646431E-1
1.241636711E1	-8.465790749E-2	-1.162605286E-1	-5.798585415E-1
1.242470964E1	-1.165039539E-1	-1.230382919E-1	-6.624433994E-1
1.243282630E1	-9.157752991E-2	-1.382122040E-1	-7.436749935E-1
1.244095618E1	-6.691074371E-2	-1.613225937E-1	-8.174006939E-1
1.244907206E1	1.399183273E-2	-1.849203110E-1	-7.757792473E-1
1.245710199E1	8.529114723E-2	-1.929073334E-1	-7.718248367E-1
1.246486361E1	1.584811211E-1	-1.664199829E-1	-8.639092445E-1
1.247315691E1	2.499370575E-1	-1.874895096E-1	-9.163370132E-1
1.248150041E1	3.110959530E-1	-2.311429977E-1	-8.655946255E-1
1.248965164E1	3.362414837E-1	-2.574176788E-1	-8.121600151E-1
1.249789241E1	3.351745605E-1	-2.450637817E-1	-7.637825012E-1
1.250627791E1	2.535910606E-1	-1.733074188E-1	-7.314801216E-1
1.251440676E1	1.390318871E-1	-8.915805817E-2	-6.555528641E-1
1.252252933E1	2.869677544E-2	-2.630424500E-2	-5.931839943E-1
1.253064202E1	-9.597063065E-2	3.213500977E-2	-5.006723404E-1
1.253866891E1	-2.429461479E-1	9.972000122E-2	-3.767185211E-1
1.254642053E1	-3.594014645E-1	2.100925446E-1	-2.401158810E-1
1.255472664E1	-4.109234810E-1	3.228950500E-1	-8.221459389E-2
1.256311999E1	-4.897580147E-1	4.756746292E-1	8.941125870E-2
1.257117957E1	-5.908439159E-1	5.978546143E-1	2.741992474E-1
1.257944853E1	-7.587549686E-1	6.968107224E-1	4.964952469E-1
1.258784995E1	-9.239780903E-1	7.612142563E-1	6.092436314E-1
1.259596468E1	-1.008305788E0	8.146924973E-1	5.471246243E-1
1.260409199E1	-1.043201923E0	8.120832443E-1	4.514741898E-1
1.261222241E1	-9.897978306E-1	7.612762451E-1	3.613255024E-1
1.262026753E1	-8.357942104E-1	6.924438477E-1	3.005979061E-1
1.262799561E1	-7.821359634E-1	6.728525162E-1	2.472994328E-1
1.263632222E1	-7.378373146E-1	6.752729416E-1	2.123901844E-1
1.264444357E1	-7.355923653E-1	6.547794342E-1	1.325325966E-1
1.265259384E1	-6.859538555E-1	6.062669754E-1	1.461315155E-2
1.266092318E1	-6.381502151E-1	5.558595657E-1	-6.931900978E-2
1.266930668E1	-5.211369991E-1	4.365949631E-1	-1.341676712E-1
1.267740302E1	-4.107742310E-1	3.056459427E-1	-2.037770748E-1
1.268553291E1	-2.578186989E-1	1.555662155E-1	-1.916196346E-1
1.269364768E1	-9.683012962E-2	-3.041934967E-2	-1.706118584E-1
1.270167807E1	4.237818718E-2	-1.960000992E-1	-1.912205219E-1
1.270945284E1	1.961846352E-1	-4.059543610E-1	-2.131924629E-1
1.271773122E1	3.233428001E-1	-5.873975754E-1	-1.381664276E-1
1.272630757E1	4.913470745E-1	-7.774286270E-1	-3.377723694E-2
1.273417645E1	5.974316597E-1	-9.270324707E-1	7.224535942E-2
1.274244726E1	6.681427956E-1	-1.044058800E0	2.330086231E-1
1.275085795E1	6.740889549E-1	-1.087804794E0	3.905413151E-1
1.276711445E1	7.391479015E-1	-9.031372070E-1	3.928093910E-1
1.277523133E1	8.017199039E-1	-7.450771332E-1	4.229044914E-1
1.278326230E1	9.352583885E-1	-5.431413651E-1	4.932401180E-1
1.279102076E1	1.062770724E0	-3.680067062E-1	5.545418262E-1
1.279930741E1	1.138433456E0	-1.872310638E-1	6.131365299E-1
1.280766641E1	1.203168273E0	5.275726318E-3	6.831688881E-1
1.281574061E1	1.223417044E0	1.698799133E-1	7.250013351E-1
1.282404657E1	1.191557884E0	3.090620041E-1	7.272784710E-1
1.283246299E1	1.103155136E0	4.314899445E-1	6.377246380E-1
1.284058126E1	9.935381413E-1	4.863595963E-1	4.894728661E-1
1.284870610E1	8.151730299E-1	5.836296082E-1	3.645055294E-1
1.285683626E1	6.794691086E-1	6.204118729E-1	2.509012222E-1
1.286487634E1	5.570341349E-1	6.425619125E-1	1.677489281E-1
1.287261680E1	4.070880413E-1	7.080554962E-1	1.087484360E-1
1.288091218E1	2.431325912E-1	7.352094650E-1	8.347511292E-3
1.288917018E1	3.006815910E-2	7.658262253E-1	-8.704686165E-2
1.289731503E1	-1.567285061E-1	6.883211136E-1	-1.352643967E-1
1.290562765E1	-3.248512745E-1	5.535917282E-1	-1.279108524E-1
1.291401595E1	-4.778571129E-1	3.841886520E-1	-1.295218468E-1
1.292213279E1	-5.938794613E-1	2.236270905E-1	-1.069610119E-1
1.293026441E1	-7.056109905E-1	3.548908234E-2	-4.662609100E-2
1.293837772E1	-8.461799622E-1	-1.283664703E-1	4.887175560E-2
1.294640561E1	-9.139692783E-1	-2.597274780E-1	1.617097855E-1
1.295425041E1	-8.997344971E-1	-3.640203476E-1	2.805984020E-1
1.296263911E1	-7.648997307E-1	-4.564971924E-1	4.263012409E-1
1.297069899E1	-5.421094894E-1	-5.547790527E-1	5.336492062E-1
1.297889772E1	-3.281555176E-1	-5.965328217E-1	6.067950726E-1
1.298726934E1	-1.151149273E-1	-5.840339661E-1	6.704032421E-1
1.299559022E1	6.282830238E-2	-5.322179794E-1	7.337908745E-1
1.300372091E1	1.831576824E-1	-4.231157303E-1	8.140568733E-1
1.301184652E1	2.898807526E-1	-3.249063492E-1	8.347172737E-1
1.301996295E1	3.711781502E-1	-1.893854141E-1	7.919132710E-1
1.302801903E1	4.175963402E-1	-5.254173279E-2	6.951494217E-1
1.303573626E1	4.645142555E-1	8.357906342E-2	5.210118294E-1
1.304401007E1	4.458818436E-1	2.281637192E-1	2.891080379E-1
1.305228303E1	3.885266781E-1	3.175373077E-1	6.934261322E-2
1.306046226E1	2.950782776E-1	4.099273682E-1	-1.385550499E-1
1.306876961E1	2.193982601E-1	4.345521927E-1	-3.103542328E-1
1.307716829E1	1.747853756E-1	3.943614960E-1	-4.342823029E-1
1.308526664E1	1.262631416E-1	3.318843842E-1	-5.199832916E-1
1.309339502E1	5.597615242E-2	2.584228516E-1	-5.507156849E-1
1.310152829E1	-3.403997421E-2	2.169208527E-1	-5.797808170E-1
1.310954949E1	-1.096947193E-1	1.737747192E-1	-5.638988018E-1
1.311736549E1	-1.698243618E-1	1.527023315E-1	-5.100023746E-1
1.312564411E1	-1.731443405E-1	1.631555557E-1	-4.658918381E-1
1.313395538E1	-1.478006840E-1	1.710138321E-1	-3.919358253E-1
1.314190365E1	-8.003449440E-2	1.565866470E-1	-2.898931503E-1
1.315020668E1	-6.445884705E-3	1.606626511E-1	-1.959304810E-1
1.315863787E1	4.878354073E-2	1.636466980E-1	-7.778811455E-2
1.316675587E1	9.035801888E-2	1.677665710E-1	6.405091286E-2
1.317488748E1	1.753590107E-1	1.729068756E-1	3.128466606E-1
1.318300341E1	2.476217747E-1	1.701059341E-1	6.166925430E-1
1.319100791E1	2.687466145E-1	1.988706589E-1	8.895452023E-1
1.319880118E1	2.576615810E-1	2.238006592E-1	1.141844988E0
1.320708195E1	2.107200623E-1	2.046165466E-1	1.286923170E0
1.321547961E1	8.130860329E-2	1.191778183E-1	1.272396564E0
1.322356245E1	-1.445794106E-1	3.018760681E-2	1.111178398E0
1.323181484E1	-3.726918697E-1	-1.173524857E-1	9.084506035E-1
1.324021556E1	-5.926225185E-1	-3.035984039E-1	6.748638153E-1
1.324834895E1	-7.535543442E-1	-5.334701538E-1	3.677053452E-1
1.325647683E1	-8.291645050E-1	-6.913566589E-1	1.232135296E-1
1.326459364E1	-8.247177601E-1	-7.453966141E-1	-9.965443611E-2
1.327272475E1	-7.400467396E-1	-7.555322647E-1	-2.752208710E-1
1.328038761E1	-6.229593754E-1	-6.992120743E-1	-4.793629646E-1
1.328867976E1	-4.372372627E-1	-6.190357208E-1	-6.270487309E-1
1.329696015E1	-2.683887482E-1	-4.978332520E-1	-7.879004478E-1
1.330510761E1	-1.407406330E-1	-4.229927063E-1	-9.132027626E-1
1.331339138E1	-1.809930801E-2	-3.701334000E-1	-9.850614071E-1
1.332182894E1	8.326768875E-2	-3.444843292E-1	-9.848930836E-1
1.332994598E1	1.214246750E-1	-3.226146698E-1	-9.719867706E-1
1.333807491E1	1.507160664E-1	-2.829780579E-1	-1.028888941E0
1.334620606E1	1.470162868E-1	-2.545032501E-1	-9.859769344E-1
1.335430434E1	1.781771183E-1	-2.284946442E-1	-9.330635071E-1
1.336198311E1	3.092422485E-1	-1.725931168E-1	-8.764250278E-1
1.337028361E1	4.805772305E-1	-1.151781082E-1	-7.559199333E-1
1.337856414E1	6.286387444E-1	-6.027412415E-2	-5.579664707E-1
1.338668188E1	7.314125299E-1	-3.541183472E-2	-3.601987362E-1
1.339502876E1	7.811346054E-1	3.415679932E-2	-2.002453804E-1
1.340339602E1	7.701301575E-1	9.005165100E-2	-1.126646996E-1
1.341151344E1	6.832987070E-1	1.523351669E-1	-1.461958885E-2
1.341964368E1	5.981863737E-1	1.831731796E-1	4.530978203E-2
1.342776125E1	4.717404842E-1	2.037706375E-1	5.829906464E-2
1.343577949E1	3.070678711E-1	1.993179321E-1	6.115913391E-2
1.344365761E1	1.396472454E-1	1.938562393E-1	4.581308365E-2
1.345185214E1	2.755999565E-2	1.883039474E-1	-1.306414604E-2
1.346009314E1	-9.464073181E-2	1.738615036E-1	-1.260211468E-1
1.346832845E1	-1.736302376E-1	1.445865631E-1	-1.761953831E-1
1.347658276E1	-2.331390381E-1	1.059541702E-1	-2.303495407E-1
1.348496937E1	-2.885789871E-1	4.206466675E-2	-2.582833767E-1
1.349308168E1	-3.329231739E-1	-2.028846741E-2	-2.517361641E-1
1.350117537E1	-3.849163055E-1	-8.800029755E-2	-2.839105129E-1
1.350925983E1	-3.998072147E-1	-1.782054901E-1	-2.660169601E-1
1.351729599E1	-3.740971088E-1	-2.454719543E-1	-2.277770042E-1
1.352505176E1	-3.530983925E-1	-2.859458923E-1	-2.025759220E-1
1.353336488E1	-3.469338417E-1	-2.590799332E-1	-1.552624702E-1
1.354197125E1	-3.801054955E-1	-1.325035095E-1	-1.426572800E-1
1.354988080E1	-4.376401901E-1	3.066635132E-2	-1.618704796E-1
1.355816114E1	-4.767944813E-1	1.913595200E-1	-1.520545483E-1
1.356648610E1	-5.043365955E-1	3.328542709E-1	-1.647727489E-1
1.357460152E1	-5.164213181E-1	4.123296738E-1	-1.496458054E-1
1.358272933E1	-4.977610111E-1	4.328107834E-1	-1.443290710E-1
1.359085818E1	-4.670102596E-1	3.803300858E-1	-1.258237362E-1
1.359886738E1	-4.118883610E-1	2.769613266E-1	-6.544971466E-2
1.360668107E1	-3.706543446E-1	1.229534149E-1	4.707694054E-2
1.361493264E1	-3.546698093E-1	-6.305217743E-2	1.438117027E-1
1.362309864E1	-2.971711159E-1	-2.347517014E-1	2.225902081E-1
1.363123895E1	-2.438731194E-1	-3.523683548E-1	2.812328339E-1
1.363962607E1	-1.773014069E-1	-4.281625748E-1	3.266091347E-1
1.364793825E1	-9.666466713E-2	-4.525241852E-1	3.641524315E-1
1.365605306E1	-5.255174637E-2	-4.017877579E-1	4.018359184E-1
1.366418383E1	-4.630994797E-2	-3.218126297E-1	3.819937706E-1
1.367226652E1	-7.528305054E-2	-1.843891144E-1	3.339266777E-1
1.368026314E1	-9.576010704E-2	-1.025247574E-1	3.214495182E-1
1.368807907E1	-7.303595543E-2	-6.454372406E-2	3.087396622E-1
1.369636353E1	-6.957554817E-2	-3.738975525E-2	2.776846886E-1
1.370469868E1	-3.780126572E-2	-2.331447601E-2	2.308480740E-1
1.371279780E1	-4.297876358E-2	-1.977920532E-2	1.681833267E-1
1.372125684E1	-9.038066864E-2	-3.637599945E-2	3.426933289E-2
1.372946975E1	-1.828532219E-1	-4.897499084E-2	-1.108438969E-1
1.373760075E1	-2.844326496E-1	-5.455207825E-2	-2.727065086E-1
1.375380744E1	-5.334162712E-1	-4.874038696E-2	-5.244553089E-1
1.376193629E1	-6.259329319E-1	-3.560924530E-2	-6.067306995E-1
1.376962595E1	-6.792333126E-1	-3.318977356E-2	-6.570365429E-1
1.377792488E1	-6.846415997E-1	-2.919197083E-3	-6.376426220E-1
1.378611995E1	-6.573517323E-1	1.622104645E-2	-5.548415184E-1
1.379431088E1	-6.034455299E-1	6.029605865E-2	-4.282927513E-1
1.380261072E1	-5.211296082E-1	1.118459702E-1	-2.936947346E-1
1.381101994E1	-4.161565304E-1	1.586112976E-1	-1.525440216E-1
1.381913510E1	-3.095681667E-1	2.242841721E-1	-9.397268295E-3
1.382726271E1	-1.733088493E-1	2.704553604E-1	1.084866524E-1
1.383539275E1	-3.468513489E-2	3.264646530E-1	2.094411850E-1
1.384339584E1	1.005895138E-1	3.449840546E-1	3.007564545E-1
1.385114861E1	2.510225773E-1	3.332233429E-1	4.030108452E-1
1.385940953E1	3.654057980E-1	3.338670731E-1	4.971652031E-1
1.386763576E1	4.718489647E-1	2.960615158E-1	5.548756123E-1
1.387581645E1	4.851131439E-1	2.530555725E-1	5.670950413E-1
1.388415484E1	4.813194275E-1	2.067546844E-1	5.968511105E-1
1.389253087E1	4.356963634E-1	1.484880447E-1	6.286735535E-1
1.390062406E1	3.955726624E-1	6.806755066E-2	6.361899376E-1
1.390875310E1	3.394980431E-1	1.085853577E-2	5.880925655E-1
1.391683433E1	3.019919395E-1	-6.878280640E-2	5.662407875E-1
1.392490561E1	2.670600414E-1	-1.202163696E-1	5.195066929E-1
1.393262726E1	2.838606834E-1	-1.546049118E-1	4.820008278E-1
1.394089957E1	3.023865223E-1	-1.939411163E-1	4.390203953E-1
1.394912491E1	3.285701275E-1	-2.186698914E-1	4.187519550E-1
1.395737418E1	3.526034355E-1	-2.599916458E-1	3.896844387E-1
1.396565626E1	3.604156971E-1	-3.011131287E-1	3.281512260E-1
1.397402898E1	3.996562958E-1	-3.587036133E-1	2.772848606E-1
1.398215744E1	4.067847729E-1	-4.352436066E-1	2.543821335E-1
1.399028121E1	4.385399818E-1	-4.852733612E-1	2.109482288E-1
1.399839560E1	4.417788982E-1	-5.132856369E-1	1.712901592E-1
1.400640976E1	4.549858570E-1	-4.932479858E-1	1.730921268E-1
1.401417226E1	4.658648968E-1	-4.369096756E-1	1.424322128E-1
1.402245384E1	4.725425243E-1	-3.629999161E-1	8.383798599E-2
1.403079368E1	4.663295746E-1	-2.761821747E-1	4.848957062E-2
1.403894011E1	4.288718700E-1	-1.667900085E-1	1.318502426E-2
1.404717014E1	3.861963749E-1	-5.899143219E-2	4.419803619E-2
1.405562010E1	2.885677814E-1	2.267456055E-2	9.979486465E-2
1.406370233E1	2.131640911E-1	1.010475159E-1	1.577191353E-1
1.407182798E1	1.289837360E-1	1.902379990E-1	2.126193047E-1
1.407995817E1	5.088257790E-2	2.396955490E-1	2.450063229E-1
1.408797364E1	1.651883125E-2	2.926921844E-1	2.548596859E-1
1.409580795E1	-3.686928749E-2	3.255710602E-1	2.449228764E-1
1.410412395E1	-7.107663155E-2	3.500804901E-1	2.337632179E-1
1.411215838E1	-9.345746040E-2	3.404512405E-1	2.082400322E-1
1.412028780E1	-1.598711014E-1	2.992696762E-1	1.778862476E-1
1.412859468E1	-1.980385780E-1	2.360553741E-1	1.332919598E-1
1.413700552E1	-2.467956543E-1	1.584005356E-1	6.549406052E-2
1.414508898E1	-2.690300941E-1	5.714416504E-2	2.258658409E-2
1.415321990E1	-2.724127769E-1	-2.455711365E-2	-3.870534897E-2
1.416133583E1	-2.673957348E-1	-9.594154358E-2	-1.014175415E-1
1.416937599E1	-2.397072315E-1	-1.475067139E-1	-1.538016796E-1
1.417714553E1	-2.208609581E-1	-1.932640076E-1	-2.120914459E-1
1.418541580E1	-2.003250122E-1	-2.214422226E-1	-2.593791485E-1
1.419402172E1	-1.895585060E-1	-2.292051315E-1	-2.895371914E-1
1.420204168E1	-1.578218937E-1	-2.213001251E-1	-3.218846321E-1
1.421019888E1	-1.331250668E-1	-2.264823914E-1	-3.224749565E-1
1.421853575E1	-1.322646141E-1	-2.233457565E-1	-2.892594337E-1
1.422663333E1	-1.243886948E-1	-2.075996399E-1	-2.570505142E-1
1.423472502E1	-1.473281384E-1	-2.035570145E-1	-2.024350166E-1
1.424283883E1	-1.481907368E-1	-1.828012466E-1	-1.666975021E-1
1.425094738E1	-1.695961952E-1	-1.669225693E-1	-1.448233128E-1
1.425863699E1	-1.804945469E-1	-1.537971497E-1	-1.087601185E-1
1.426698161E1	-1.801347733E-1	-1.406946182E-1	-5.481576920E-2
1.427515457E1	-1.623048782E-1	-1.230659485E-1	-1.292610168E-2
1.428335045E1	-1.370975971E-1	-6.510543823E-2	4.505252838E-2
1.429170976E1	-1.213123798E-1	-7.364273071E-3	7.874250412E-2
1.430006160E1	-1.051847935E-1	5.975341797E-2	8.830666542E-2
1.430816010E1	-1.008763313E-1	1.144027710E-1	1.088216305E-1
1.431628752E1	-7.653260231E-2	1.542463303E-1	1.313426495E-1
1.432438563E1	-6.100630760E-2	1.837654114E-1	1.622388363E-1
1.433237584E1	1.594662666E-2	1.812639236E-1	2.239758968E-1
1.434013441E1	7.217359543E-2	2.064838409E-1	2.941880226E-1
1.434842253E1	9.293198586E-2	2.136220932E-1	3.311328888E-1
1.435662284E1	6.056213379E-2	2.267122269E-1	3.296105862E-1
1.436481772E1	-1.249599457E-2	1.936178207E-1	2.553360462E-1
1.437319914E1	-1.031904221E-1	1.173543930E-1	1.300220490E-1
1.438153256E1	-1.750025749E-1	-1.343154907E-2	3.936457634E-2
1.438964579E1	-1.896340847E-1	-1.407241821E-1	-4.167175293E-2
1.439777317E1	-1.696920395E-1	-2.334918976E-1	-6.139111519E-2
1.440588571E1	-1.771166325E-1	-3.037462234E-1	-2.686572075E-2
1.441393672E1	-1.739513874E-1	-3.804788589E-1	6.104516983E-2
1.442164195E1	-1.473922729E-1	-4.375391006E-1	1.929016113E-1
1.442989453E1	-6.678700447E-2	-4.607686996E-1	4.133825302E-1
1.443814553E1	-4.390716553E-3	-4.218788147E-1	5.966584682E-1
1.444638330E1	4.747033119E-2	-3.478412628E-1	6.936964989E-1
1.445468545E1	1.215503216E-1	-2.628364563E-1	7.585012913E-1
1.446303675E1	1.624665260E-1	-1.840953827E-1	8.376793861E-1
1.447113252E1	1.490712166E-1	-1.263732910E-1	9.139106274E-1
1.447925575E1	3.172993660E-2	-1.231746674E-1	8.895945549E-1
1.448736894E1	-1.552298069E-1	-1.523675919E-1	7.586934566E-1
1.449540522E1	-3.931064606E-1	-2.068490982E-1	6.324205399E-1
1.450316864E1	-5.483107567E-1	-2.215118408E-1	4.483816624E-1
1.451142188E1	-6.065964699E-1	-1.639289856E-1	3.093659878E-1
1.451972738E1	-6.733412743E-1	-2.446079254E-2	9.103345871E-2
1.452787784E1	-7.546114922E-1	2.136268616E-1	-2.274322510E-1
1.453613284E1	-7.850594521E-1	4.084892273E-1	-4.752485752E-1
1.454457490E1	-7.976717949E-1	5.437507629E-1	-6.318557262E-1
1.455265644E1	-7.801110744E-1	6.193523407E-1	-7.834160328E-1
1.456078256E1	-7.403485775E-1	5.803108215E-1	-8.670632839E-1
1.456891336E1	-6.952579021E-1	4.353179932E-1	-9.235205650E-1
1.457693141E1	-6.093869209E-1	2.129106522E-1	-1.020658970E0
1.458468795E1	-4.720876217E-1	-1.138286591E-1	-1.067057133E0
1.459299984E1	-3.497421741E-1	-3.811798096E-1	-1.128209114E0
1.460113468E1	-1.984727383E-1	-6.024026871E-1	-1.048985243E0
1.460930591E1	-3.576111794E-2	-7.109737396E-1	-9.743330479E-1
1.461758595E1	1.866426468E-1	-7.372426987E-1	-7.247416973E-1
1.462598256E1	3.905384541E-1	-6.642150879E-1	-4.520814419E-1
1.463409771E1	6.036291122E-1	-4.859418869E-1	-1.455121040E-1
1.464222636E1	7.756624222E-1	-2.535829544E-1	1.546440125E-1
1.465030848E1	8.025386333E-1	-3.106975555E-2	3.138232231E-1
1.465841980E1	7.465257645E-1	1.920118332E-1	3.973197937E-1
1.466608095E1	6.045277119E-1	4.191131592E-1	3.554015160E-1
1.467437607E1	4.975080490E-1	6.366229057E-1	2.289116383E-1
1.468260807E1	4.245543480E-1	8.566040993E-1	8.936166763E-3
1.469082491E1	4.113736153E-1	1.041476727E0	-2.800276279E-1
1.469914607E1	4.278678894E-1	1.137683868E0	-5.301995277E-1
1.470751036E1	3.726999760E-1	1.113901138E0	-7.814521790E-1
1.471561829E1	2.829875946E-1	9.765982628E-1	-9.607155323E-1
1.472374179E1	1.549687386E-1	7.686567307E-1	-1.153763771E0
1.473182209E1	4.074096680E-3	5.222988129E-1	-1.277559280E0
1.473985464E1	-5.749773979E-2	2.639789581E-1	-1.264872074E0
1.474762984E1	-1.305191517E-1	8.868408203E-2	-1.118258715E0
1.475586834E1	-2.081995010E-1	-2.591009140E-1	-8.847959042E-1
1.476411737E1	-3.296647072E-1	-5.380830765E-1	-5.527319908E-1
1.477230245E1	-4.158952236E-1	-9.650745392E-1	-3.370983601E-1
1.478061314E1	-5.300424099E-1	-1.455918312E0	-2.944195271E-1
1.478901809E1	-6.798236370E-1	-1.800634384E0	-1.914460659E-1
1.479709682E1	-8.418443203E-1	-2.061823845E0	-5.422091484E-2
1.480520236E1	-9.730978012E-1	-1.985177994E0	2.138221264E-1
1.481333252E1	-9.736096859E-1	-1.763802528E0	4.129402637E-1
1.482144698E1	-8.260362148E-1	-1.152030945E0	5.735843182E-1
1.482914964E1	-4.862620831E-1	-5.032777786E-1	5.732030869E-1
1.483770091E1	-2.310347557E-2	-6.389713287E-2	5.160152912E-1
1.484599544E1	4.690797329E-1	1.924514771E-1	4.858224392E-1
1.485388041E1	9.374082088E-1	3.414316177E-1	4.176080227E-1
1.486211626E1	1.245777488E0	3.994255066E-1	4.234733582E-1
1.487050421E1	1.419431090E0	4.861707687E-1	4.049832821E-1
1.487861882E1	1.504113436E0	4.773330688E-1	3.272182941E-1
1.488673948E1	1.546881795E0	7.109260559E-1	2.913894653E-1
1.489485152E1	1.567872643E0	9.020490646E-1	1.965904236E-1
1.490286026E1	1.595386982E0	1.137556076E0	2.420778275E-1
1.491064472E1	1.588558912E0	1.365418434E0	3.086686134E-1
1.491893960E1	1.534117222E0	1.481517315E0	4.750530720E-1
1.492718318E1	1.388818860E0	1.505681515E0	6.898171902E-1
1.493534122E1	1.148249865E0	1.466716766E0	8.843951225E-1
1.494366599E1	8.428629637E-1	1.275345325E0	1.088289261E0
1.495205636E1	3.594038486E-1	9.356064796E-1	1.182508945E0
1.496015405E1	-7.083892822E-2	8.492183685E-1	1.380797863E0
1.496827905E1	-3.473243713E-1	6.063022614E-1	1.500749111E0
1.497639325E1	-5.381445885E-1	4.433870316E-1	1.653223276E0
1.498443384E1	-6.591835022E-1	2.060012817E-1	1.759814024E0
1.499221741E1	-6.739013195E-1	5.102062225E-2	1.740859747E0
1.500047741E1	-7.346374989E-1	-2.038927078E-1	1.609470367E0
1.500876884E1	-7.654817104E-1	-3.332319260E-1	1.492824554E0
1.501687660E1	-7.361924648E-1	-4.782629013E-1	1.267539978E0
1.502519203E1	-6.243939400E-1	-5.090169907E-1	1.031509876E0
1.503360659E1	-4.073026180E-1	-4.049673080E-1	8.223867416E-1
1.504168932E1	-1.357562542E-1	-2.248582840E-1	6.605081558E-1
1.504981355E1	1.334564686E-1	-6.793212891E-2	4.753894806E-1
1.505794332E1	2.838280201E-1	4.544448853E-2	3.218021393E-1
1.506605709E1	3.915898800E-1	1.010122299E-1	1.301379204E-1
1.507371680E1	3.950710297E-1	9.412574768E-2	-1.485576630E-1
1.508205149E1	3.537271023E-1	8.878326416E-2	-4.067015648E-1
1.509017980E1	2.861356735E-1	6.764411926E-2	-5.208647251E-1
1.509830984E1	2.175381184E-1	8.923721313E-2	-4.537525177E-1
1.510662526E1	1.260643005E-1	9.965991974E-2	-2.917871475E-1
1.511501625E1	1.356768608E-2	1.203145981E-1	-1.098003387E-1
1.512311240E1	-1.605801582E-1	1.870994568E-1	2.522802353E-2
1.513124067E1	-3.142862320E-1	2.279987335E-1	8.469724655E-2
1.513935440E1	-5.031418800E-1	2.433481216E-1	1.750340462E-1
1.514736730E1	-6.858367920E-1	2.118158340E-1	2.378463745E-1
1.515514030E1	-8.027651310E-1	1.671476364E-1	2.979459763E-1
1.516339137E1	-8.828272820E-1	1.372137070E-1	3.256206512E-1
1.517163103E1	-9.160044193E-1	1.501188278E-1	2.417917252E-1
1.517982810E1	-8.216941357E-1	2.310075760E-1	1.313652992E-1
1.518812822E1	-6.060566902E-1	3.269729614E-1	9.368562698E-2
1.519655475E1	-3.366446495E-1	4.118785858E-1	1.513152122E-1
1.520468278E1	-2.714800835E-2	4.694552422E-1	1.956472397E-1
1.521280705E1	2.265634537E-1	4.515237808E-1	2.586793900E-1
1.522092094E1	3.421065807E-1	3.520851135E-1	2.509765625E-1
1.522894668E1	4.413468838E-1	2.446699142E-1	1.398305893E-1
1.523670818E1	4.759888649E-1	7.744693756E-2	-7.890939713E-2
1.524500918E1	4.634699821E-1	-6.737327576E-2	-3.009452820E-1
1.525324434E1	4.143974781E-1	-2.153091431E-1	-4.505336285E-1
1.526140410E1	4.014594555E-1	-3.038673401E-1	-4.955470562E-1
1.526973010E1	3.766343594E-1	-3.278665543E-1	-5.086987019E-1
1.527814340E1	3.640871048E-1	-2.145509720E-1	-5.924634933E-1
1.528626021E1	3.847379684E-1	-5.239200592E-2	-7.262215614E-1
1.529438932E1	4.148561954E-1	1.422061920E-1	-8.444230556E-1
1.530251982E1	4.404087067E-1	2.870407104E-1	-9.421031475E-1
1.531056745E1	4.889121056E-1	3.777647018E-1	-1.000993013E0
1.531831172E1	5.114173889E-1	4.306716919E-1	-1.049982548E0
1.532660114E1	5.328252316E-1	4.273824692E-1	-1.076457500E0
1.533492734E1	4.938204288E-1	3.291654587E-1	-1.138438702E0
1.535134695E1	1.495189667E-1	3.607463837E-2	-1.173708439E0
1.535970432E1	-9.993481636E-2	-1.449909210E-1	-1.102002621E0
1.536782159E1	-2.305982113E-1	-4.283237457E-1	-9.639027119E-1
1.537595540E1	-2.937042713E-1	-6.551599503E-1	-8.325474262E-1
1.538407390E1	-2.944316864E-1	-9.364576340E-1	-6.279735565E-1
1.539213645E1	-2.371666431E-1	-1.202662468E0	-3.962287903E-1
1.539988118E1	-1.883993149E-1	-1.477868080E0	-1.230354309E-1
1.540816999E1	-1.171762943E-1	-1.649062157E0	1.469030380E-1
1.541640853E1	-6.557822227E-2	-1.710539818E0	3.868331909E-1
1.542469164E1	-6.339526176E-2	-1.597084999E0	5.652251244E-1
1.543286349E1	-2.144718170E-2	-1.327431679E0	6.881160736E-1
1.544127855E1	1.024191380E-1	-1.018954277E0	7.258884907E-1
1.544940813E1	2.157053947E-1	-6.362609863E-1	5.923681259E-1
1.545753217E1	2.792255878E-1	-2.407550812E-1	3.630259037E-1
1.546564513E1	3.044865131E-1	7.631874084E-2	1.924674511E-1
1.547370649E1	2.723591328E-1	2.937202454E-1	2.369165421E-3
1.548142361E1	1.512789726E-1	4.377307892E-1	-1.749346256E-1
1.548970911E1	-6.658267975E-2	4.820575714E-1	-3.812234402E-1
1.549797584E1	-3.058085442E-1	4.531583786E-1	-5.363852978E-1
1.550619472E1	-5.400183201E-1	4.096670151E-1	-6.998410225E-1
1.551443203E1	-7.343645096E-1	3.191156387E-1	-8.600351810E-1
1.552287144E1	-8.460910320E-1	2.081985474E-1	-9.625689983E-1
1.553097044E1	-8.183009624E-1	7.168388367E-2	-9.801478386E-1
1.553909798E1	-6.820065975E-1	-3.001403809E-2	-8.888895512E-1
1.554722790E1	-5.054819584E-1	-1.064233780E-1	-7.582039833E-1
1.555522880E1	-3.680393696E-1	-1.555118561E-1	-6.005418301E-1
1.556298457E1	-2.449610233E-1	-2.256631851E-1	-4.256641865E-1
1.557129399E1	-1.215548515E-1	-3.239955902E-1	-2.404763699E-1
1.557949145E1	-1.258134842E-3	-4.515581131E-1	-6.250762939E-2
1.558764341E1	1.019320488E-1	-5.730991364E-1	3.477025032E-2
1.559593126E1	1.470823288E-1	-6.528558731E-1	1.004500389E-1
1.560431082E1	1.177046299E-1	-6.690168381E-1	9.661507607E-2
1.561242478E1	4.053854942E-2	-6.023035049E-1	4.020333290E-2
1.562055386E1	-2.364850044E-2	-4.980525970E-1	-1.737427711E-2
1.562866748E1	-4.277324677E-2	-3.537521362E-1	-2.717661858E-2
1.563670072E1	-4.594302177E-2	-2.174406052E-1	-3.778290749E-2
1.564446568E1	-1.669192314E-2	-1.128311157E-1	-3.926873207E-2
1.565273137E1	-1.056957245E-2	7.908821106E-3	-2.496480942E-2
1.566099545E1	1.500225067E-2	7.323551178E-2	-2.089428902E-2
1.566919691E1	3.103160858E-2	1.286897659E-1	-3.670501709E-2
1.567747353E1	6.536483765E-3	1.840600967E-1	-6.455922127E-2
1.568586344E1	-4.127955437E-2	2.489261627E-1	-8.972096443E-2
1.569399409E1	-9.055113792E-2	3.330583572E-1	-9.467959404E-2
1.570208748E1	-1.222236156E-1	4.149179459E-1	-5.555748940E-2
1.571020205E1	-1.584043503E-1	4.564599991E-1	-1.042151451E-2
1.571826322E1	-2.014741898E-1	4.696216583E-1	5.500864983E-2
1.572598787E1	-2.420308590E-1	4.853210449E-1	1.065406799E-1
1.573434241E1	-2.788960934E-1	4.527158737E-1	1.269352436E-1
1.574254184E1	-2.697353363E-1	3.383703232E-1	1.756336689E-1
1.575079472E1	-1.961169243E-1	1.326618195E-1	2.471544743E-1
1.575901934E1	-8.104896545E-2	-4.199409485E-2	3.195569515E-1
1.576741128E1	4.555392265E-2	-2.185153961E-1	3.287730217E-1
1.577552694E1	1.597599983E-1	-3.610315323E-1	3.776390553E-1
1.578365155E1	2.284350395E-1	-4.242506027E-1	3.869628906E-1
1.579177944E1	2.808923721E-1	-4.613437653E-1	4.062335491E-1
1.579979841E1	3.172328472E-1	-4.389381409E-1	3.896937370E-1
1.580755795E1	3.712275028E-1	-3.856573105E-1	3.330557346E-1
1.581588676E1	3.777980804E-1	-2.940225601E-1	2.223825455E-1
1.582412518E1	3.503592014E-1	-2.311401367E-1	1.951436996E-1
1.583222376E1	3.158328533E-1	-1.729650497E-1	1.706516743E-1
1.584055495E1	2.577390671E-1	-1.172466278E-1	1.439788342E-1
1.584894855E1	1.868045330E-1	-9.047126770E-2	1.371808052E-1
1.585706463E1	9.202671051E-2	-5.426502228E-2	1.056606770E-1
1.586519297E1	4.973626137E-2	-3.255748749E-2	9.229135513E-2
1.587330674E1	1.926898956E-3	-2.257251740E-2	1.071598530E-1
1.588132376E1	-4.444980621E-2	-2.790451050E-3	1.404471397E-1
1.588910080E1	-5.202412605E-2	2.458095551E-2	1.918687820E-1
1.589740903E1	-3.837370872E-2	3.315162659E-2	2.439138889E-1
1.590566057E1	-2.514958382E-2	4.197120667E-2	3.034381866E-1
1.591383414E1	4.232120514E-2	8.415699005E-2	3.452110291E-1
1.592209853E1	1.279811859E-1	8.744525909E-2	3.752391338E-1
1.593050105E1	2.028489113E-1	9.459114075E-2	3.997001648E-1
1.593861097E1	2.786490917E-1	6.015014648E-2	4.017767906E-1
1.594673536E1	3.122365475E-1	4.365444183E-2	4.022679329E-1
1.595485240E1	3.181471825E-1	2.132225037E-2	3.873631954E-1
1.596288130E1	3.022119999E-1	-2.097702026E-2	3.297352791E-1
1.597086380E1	2.700402737E-1	-3.001880646E-2	2.193465233E-1
1.597894784E1	2.577552795E-1	-2.259826660E-2	1.520407200E-1
1.598717826E1	2.344861031E-1	-3.280639648E-3	5.908632278E-2
1.599533984E1	2.099092007E-1	2.368927002E-3	-4.570913315E-2
1.600369022E1	1.792135239E-1	-8.256912231E-3	-1.413397789E-1
1.601207328E1	1.400043964E-1	-3.720092773E-2	-2.342138290E-1
1.602018890E1	9.673905373E-2	-5.299663544E-2	-2.950837612E-1
1.602831578E1	7.740831375E-2	-6.750869751E-2	-3.218612671E-1
1.603644555E1	3.382730484E-2	-5.399703979E-2	-3.329923153E-1
1.604447184E1	1.384758949E-2	-4.870700836E-2	-3.340635300E-1
1.605223034E1	-1.569271088E-2	-3.026485443E-2	-3.012907505E-1
1.606053530E1	-3.830265999E-2	-3.697490692E-2	-2.563982010E-1
1.606867395E1	-5.136322975E-2	-5.028820038E-2	-1.718733311E-1
1.607687034E1	-5.951905251E-2	-5.374240875E-2	-1.081488132E-1
1.608511930E1	-6.272602081E-2	-5.479049683E-2	3.615140915E-3
1.609351855E1	-5.391383171E-2	-2.255535126E-2	1.292507648E-1
1.610163309E1	-9.311914444E-3	2.154159546E-2	2.162520885E-1
1.610976316E1	1.838088036E-2	5.644035339E-2	2.992587090E-1
1.611787928E1	4.120850563E-2	1.391801834E-1	3.845200539E-1
1.612599463E1	6.877350807E-2	1.780929565E-1	4.249677658E-1
1.613371037E1	6.564164162E-2	2.203903198E-1	4.241340160E-1
1.614196395E1	3.701353073E-2	2.221326828E-1	4.473669529E-1
1.615018441E1	-1.443934441E-2	2.092504501E-1	4.723868370E-1
1.615838614E1	-5.501294136E-2	1.606464386E-1	4.213802814E-1
1.616685095E1	-1.132745743E-1	1.223440170E-1	3.244867325E-1
1.617509005E1	-1.628420353E-1	8.886051178E-2	1.665179729E-1
1.618322093E1	-2.088332176E-1	6.323909760E-2	6.124734879E-2
1.619134586E1	-2.396819592E-1	4.084587097E-2	-2.956509590E-2
1.619946297E1	-2.608764172E-1	3.161334991E-2	-8.646368980E-2
1.620750410E1	-2.749843597E-1	3.286552429E-2	-1.174011230E-1
1.621525049E1	-2.772529125E-1	4.699325562E-2	-1.008739471E-1
1.622355084E1	-2.552073002E-1	6.405735016E-2	-9.003686905E-2
1.623180287E1	-2.614338398E-1	7.429409027E-2	-3.737211227E-2
1.623995722E1	-2.504484653E-1	5.822944641E-2	1.090669632E-2
1.624826207E1	-2.409768105E-1	3.223800659E-2	6.858372688E-2
1.625668632E1	-2.095439434E-1	-1.089668274E-2	8.738088608E-2
