"Time (s)"	"Acceleration x (m/s^2)"	"Acceleration y (m/s^2)"	"Acceleration z (m/s^2)"
7.940731000E-3	4.070142806E-1	2.161964178E0	9.109937668E0
1.077256800E-2	3.471592367E-1	2.181117773E0	8.916007042E0
1.203253800E-2	3.471592367E-1	2.229001760E0	8.822632790E0
1.486622100E-2	4.070142806E-1	2.243366957E0	8.923190117E0
1.618573100E-2	4.836287498E-1	2.236184359E0	9.112331390E0
1.895999100E-2	5.698199868E-1	2.231395960E0	9.224859238E0
2.092769200E-2	6.488286853E-1	2.252943754E0	9.232041359E0
2.301506800E-2	7.134721279E-1	2.296039343E0	9.260771751E0
2.447753800E-2	7.422025204E-1	2.339135170E0	9.385271072E0
2.703410600E-2	7.661445141E-1	2.367865562E0	9.550470352E0
2.889992300E-2	8.020575643E-1	2.410961151E0	9.662998199E0
3.104556800E-2	8.355764151E-1	2.458845139E0	9.691728592E0
3.249896100E-2	8.523358107E-1	2.482787132E0	9.660603523E0
3.510352900E-2	8.379706144E-1	2.475604534E0	9.619902611E0
3.713322100E-2	8.044517636E-1	2.454056740E0	9.603142738E0
3.913537500E-2	7.852981687E-1	2.439691544E0	9.586383820E0
4.046903800E-2	7.757213712E-1	2.432508945E0	9.555258751E0
4.303153800E-2	7.709329724E-1	2.430114746E0	9.514557838E0
4.516957700E-2	7.613561153E-1	2.410961151E0	9.466673851E0
4.722526000E-2	7.661445141E-1	2.375048161E0	9.411606789E0
4.859388400E-2	7.924807668E-1	2.322375536E0	9.366117477E0
5.128283700E-2	8.236053586E-1	2.262520552E0	9.339780807E0
5.317915400E-2	8.571242094E-1	2.209848166E0	9.325415611E0
5.532868300E-2	8.930372596E-1	2.171540976E0	9.330204010E0
5.654188400E-2	9.145850539E-1	2.145204782E0	9.344569206E0
5.938602900E-2	9.145850539E-1	2.130839586E0	9.363722801E0
6.127292300E-2	9.145850539E-1	2.126051188E0	9.392453194E0
6.341764400E-2	9.026140571E-1	2.123656988E0	9.425971985E0
6.479219200E-2	8.714894056E-1	2.123656988E0	9.461885452E0
6.742649000E-2	8.331822157E-1	2.126051188E0	9.483432770E0
6.927573000E-2	7.876923680E-1	2.126051188E0	9.485827446E0
7.142352900E-2	7.493851185E-1	2.121262789E0	9.457097054E0
7.265953800E-2	7.206547260E-1	2.109291792E0	9.394847870E0
7.548202900E-2	7.134721279E-1	2.111685991E0	9.270348549E0
7.739023000E-2	7.254431248E-1	2.116474390E0	9.179368973E0
7.952818300E-2	7.398083210E-1	2.126051188E0	9.085995674E0
8.080426900E-2	7.637503147E-1	2.138022184E0	8.987833023E0
8.344973000E-2	7.924807668E-1	2.140416384E0	8.889671326E0
8.556142300E-2	8.188169599E-1	2.133233786E0	8.798690796E0
8.737692300E-2	8.499416113E-1	2.126051188E0	8.707711220E0
8.887480700E-2	8.834604025E-1	2.130839586E0	8.635885239E0
9.167545200E-2	9.121908545E-1	2.145204782E0	8.571242332E0
9.361357700E-2	9.313444495E-1	2.154781580E0	8.511386871E0
9.570779800E-2	9.600749016E-1	2.181117773E0	8.463502884E0
9.693042300E-2	9.792284966E-1	2.207453966E0	8.422801971E0
9.976599000E-2	9.744400978E-1	2.236184359E0	8.384494781E0
1.016725770E-1	9.576807022E-1	2.255337954E0	8.348581314E0
1.038124520E-1	9.457096457E-1	2.267308950E0	8.331821442E0
1.052660000E-1	9.313444495E-1	2.279279947E0	8.329427719E0
1.078201440E-1	9.289502501E-1	2.293645144E0	8.346187592E0
1.096742690E-1	9.193734527E-1	2.308010340E0	8.377311707E0
1.118183360E-1	9.097966552E-1	2.322375536E0	8.415618896E0
1.130505380E-1	9.050082564E-1	2.339135170E0	8.456320763E0
1.158764900E-1	8.978256583E-1	2.360682964E0	8.506598473E0
1.177664610E-1	8.858546019E-1	2.372653961E0	8.556877136E0
1.199084520E-1	8.738836050E-1	2.384624958E0	8.604761124E0
1.211454610E-1	8.643068075E-1	2.394201756E0	8.645462036E0
1.238043460E-1	8.547300100E-1	2.396595955E0	8.695740700E0
1.259560380E-1	8.403648138E-1	2.398990154E0	8.748413086E0
1.280127210E-1	8.355764151E-1	2.382230759E0	8.801085472E0
1.292281540E-1	8.355764151E-1	2.358288765E0	8.863334656E0
1.320711440E-1	8.403648138E-1	2.334346771E0	8.925583839E0
1.339662300E-1	8.571242094E-1	2.300827742E0	9.002198219E0
1.361025670E-1	8.690952063E-1	2.267308950E0	9.057265282E0
1.373364610E-1	8.786720037E-1	2.229001760E0	9.102754593E0
1.401608360E-1	9.026140571E-1	2.188300371E0	9.138668060E0
1.420481920E-1	9.193734527E-1	2.152387381E0	9.172186852E0
1.441921440E-1	9.361328483E-1	2.121262789E0	9.217676163E0
1.455451540E-1	9.648633003E-1	2.092532396E0	9.267954826E0
1.481926820E-1	1.003170490E0	2.082955360E0	9.318233490E0
1.500645770E-1	1.039083481E0	2.082955360E0	9.354146004E0
1.522056060E-1	1.058237195E0	2.080561161E0	9.375694275E0
1.534313840E-1	1.067813993E0	2.068590164E0	9.368511200E0
1.562633750E-1	1.072602391E0	2.054224968E0	9.354146004E0
1.581473070E-1	1.072602391E0	2.049436569E0	9.342175484E0
1.602953750E-1	1.077390790E0	2.049436569E0	9.339780807E0
1.615223840E-1	1.079784989E0	2.051830769E0	9.344569206E0
1.643534520E-1	1.077390790E0	2.068590164E0	9.344569206E0
1.663430380E-1	1.067813993E0	2.099714994E0	9.330204010E0
1.681797690E-1	1.065419793E0	2.130839586E0	9.311050415E0
1.696179230E-1	1.058237195E0	2.152387381E0	9.291896820E0
1.724444900E-1	1.036689281E0	2.173935175E0	9.263166428E0
1.743495380E-1	1.005564690E0	2.205059767E0	9.222464561E0
1.764903750E-1	1.003170490E0	2.226607561E0	9.191340446E0
1.777208840E-1	1.015141487E0	2.262520552E0	9.165003777E0
1.805480280E-1	1.029506683E0	2.298433542E0	9.141061783E0
1.824307300E-1	1.034295082E0	2.324769735E0	9.119514465E0
1.845807980E-1	1.048660398E0	2.348711967E0	9.112331390E0
1.859467690E-1	1.067813993E0	2.375048161E0	9.114726067E0
1.885806440E-1	1.084573388E0	2.401384354E0	9.121908188E0
1.905070770E-1	1.096544385E0	2.415749550E0	9.138668060E0
1.925774130E-1	1.094150186E0	2.427720547E0	9.165003777E0
1.938700770E-1	1.096544385E0	2.434903145E0	9.196128845E0
1.966351050E-1	1.106121182E0	2.432508945E0	9.220070839E0
1.985947690E-1	1.110909581E0	2.420537949E0	9.239224434E0
2.006813360E-1	1.113303781E0	2.396595955E0	9.234436035E0
2.019160000E-1	1.113303781E0	2.375048161E0	9.220070839E0
2.045821530E-1	1.110909581E0	2.355894566E0	9.200917244E0
2.067690670E-1	1.113303781E0	2.339135170E0	9.176975250E0
2.087710280E-1	1.122880578E0	2.319981337E0	9.157821655E0
2.099943840E-1	1.132457376E0	2.308010340E0	9.150638580E0
2.128284900E-1	1.144428372E0	2.308010340E0	9.141061783E0
2.147804230E-1	1.151610970E0	2.300827742E0	9.141061783E0
2.168605670E-1	1.146822572E0	2.286462545E0	9.145850182E0
2.180825000E-1	1.137245774E0	2.291250944E0	9.136273384E0
2.209181440E-1	1.122880578E0	2.305616140E0	9.119514465E0
2.228250770E-1	1.113303781E0	2.322375536E0	9.117119789E0
2.249651440E-1	1.108515382E0	2.336740971E0	9.114726067E0
2.263420770E-1	1.106121182E0	2.341529369E0	9.109937668E0
2.289742980E-1	1.098938584E0	2.331952572E0	9.124302864E0
2.309062690E-1	1.098938584E0	2.312798738E0	9.153033257E0
2.329702590E-1	1.103726983E0	2.298433542E0	9.179368973E0
2.341870000E-1	1.113303781E0	2.286462545E0	9.203310966E0
2.370276440E-1	1.125274777E0	2.279279947E0	9.205705643E0
2.389021150E-1	1.146822572E0	2.269703150E0	9.205705643E0
2.410583740E-1	1.165976286E0	2.264914751E0	9.217676163E0
2.423348460E-1	1.185129881E0	2.264914751E0	9.236829758E0
2.450522300E-1	1.206677675E0	2.269703150E0	9.255983353E0
2.471441820E-1	1.218648672E0	2.274491549E0	9.258378029E0
2.489339230E-1	1.228225470E0	2.279279947E0	9.251194954E0
2.503924230E-1	1.228225470E0	2.293645144E0	9.241618156E0
2.532182970E-1	1.221042871E0	2.310404539E0	9.239224434E0
2.551591530E-1	1.218648672E0	2.327163935E0	9.227252960E0
2.572499130E-1	1.218648672E0	2.343923569E0	9.205705643E0
2.584658460E-1	1.213860273E0	2.355894566E0	9.188945770E0
2.613068740E-1	1.211466074E0	2.372653961E0	9.172186852E0
2.631880380E-1	1.225831270E0	2.403778553E0	9.176975250E0
2.653376050E-1	1.237802267E0	2.432508945E0	9.210494041E0
2.668116530E-1	1.247379065E0	2.458845139E0	9.258378029E0
2.693346440E-1	1.254561663E0	2.477998734E0	9.311050415E0
2.711950380E-1	1.261744261E0	2.485181332E0	9.346963882E0
2.733450670E-1	1.259350061E0	2.497152328E0	9.368511200E0
2.745711920E-1	1.233013868E0	2.497152328E0	9.373299599E0
2.774017590E-1	1.216254473E0	2.492363930E0	9.361329079E0
2.792669230E-1	1.209071875E0	2.499546528E0	9.339780807E0
2.814330670E-1	1.211466074E0	2.497152328E0	9.320627213E0
2.827345000E-1	1.216254473E0	2.494758129E0	9.315838814E0
2.853298460E-1	1.247379065E0	2.485181332E0	9.323021889E0
2.874728460E-1	1.273715258E0	2.473210335E0	9.311050415E0
2.895170380E-1	1.297657371E0	2.461239338E0	9.294290543E0
2.907826530E-1	1.321599364E0	2.454056740E0	9.267954826E0
2.935766430E-1	1.345541358E0	2.454056740E0	9.239224434E0
2.954702300E-1	1.362300754E0	2.454056740E0	9.217676163E0
2.976220280E-1	1.371877551E0	2.458845139E0	9.191340446E0
2.988381920E-1	1.376665950E0	2.477998734E0	9.172186852E0
3.016796050E-1	1.371877551E0	2.492363930E0	9.167398453E0
3.035595760E-1	1.374271750E0	2.506729126E0	9.169792175E0
3.057105660E-1	1.393425345E0	2.521094322E0	9.167398453E0
3.071345000E-1	1.412579060E0	2.533065319E0	9.157821655E0
3.097192970E-1	1.453280449E0	2.542642117E0	9.153033257E0
3.116819230E-1	1.498770237E0	2.559401512E0	9.143456459E0
3.137166820E-1	1.546654344E0	2.578555346E0	9.124302864E0
3.149364610E-1	1.596932530E0	2.597708941E0	9.093177795E0
3.177746050E-1	1.649604917E0	2.609679937E0	9.074024200E0
3.196723070E-1	1.714248419E0	2.638410330E0	9.071630478E0
3.218215280E-1	1.786074519E0	2.686294317E0	9.076418877E0
3.230441530E-1	1.857900500E0	2.746149302E0	9.085995674E0
3.258201150E-1	1.908178806E0	2.808398485E0	9.093177795E0
3.278895380E-1	1.936909199E0	2.868253708E0	9.107542992E0
3.297390000E-1	1.929726601E0	2.920926094E0	9.102754593E0
3.312288460E-1	1.900996208E0	2.964021683E0	9.085995674E0
3.339678740E-1	1.869871497E0	2.990357876E0	9.062053680E0
3.358520380E-1	1.850717902E0	3.011905670E0	9.042900085E0
3.379988360E-1	1.838746905E0	3.028665066E0	9.052476883E0
3.392160000E-1	1.833958507E0	3.035847664E0	9.066842079E0
3.420562200E-1	1.824381709E0	3.028665066E0	9.066842079E0
3.439535380E-1	1.833958507E0	3.019088268E0	9.057265282E0
3.461019890E-1	1.855506301E0	2.999934673E0	9.038111687E0
3.475076150E-1	1.886630893E0	2.971204281E0	9.021351814E0
3.501096050E-1	1.922544003E0	2.942473888E0	8.999804497E0
3.519574610E-1	1.963245392E0	2.913743496E0	8.966285706E0
3.541058360E-1	2.001552582E0	2.880224705E0	8.935160637E0
3.553294230E-1	2.037465572E0	2.851494312E0	8.913613319E0
3.581634120E-1	2.073378563E0	2.822763920E0	8.896853447E0
3.601108460E-1	2.090138197E0	2.808398485E0	8.896853447E0
3.621938740E-1	2.099714994E0	2.791639090E0	8.889671326E0
3.634448840E-1	2.094926596E0	2.760514498E0	8.889671326E0
3.660993070E-1	2.080561161E0	2.724601507E0	8.904036522E0
3.682428460E-1	2.063801765E0	2.691082716E0	8.908824921E0
3.702973350E-1	2.059013367E0	2.643198729E0	8.916007042E0
3.715245380E-1	2.070984364E0	2.597708941E0	8.942343712E0
3.743544120E-1	2.097320795E0	2.552218914E0	8.973467827E0
3.763603070E-1	2.145204782E0	2.501940727E0	8.997409821E0
3.783852970E-1	2.207453966E0	2.451662540E0	9.016563416E0
3.797402690E-1	2.272097349E0	2.406172752E0	9.038111687E0
3.824424510E-1	2.375048161E0	2.336740971E0	9.074024200E0
3.844712970E-1	2.442085743E0	2.291250944E0	9.102754593E0
3.864731050E-1	2.511517525E0	2.262520552E0	9.136273384E0
3.879204990E-1	2.561795712E0	2.238578558E0	9.153033257E0
3.904709890E-1	2.583343744E0	2.209848166E0	9.155426979E0
3.924649120E-1	2.578555346E0	2.169146776E0	9.167398453E0
3.944829120E-1	2.568978310E0	2.130839586E0	9.176975250E0
3.957188840E-1	2.552218914E0	2.102109194E0	9.169792175E0
3.985393350E-1	2.535459518E0	2.085349798E0	9.150638580E0
4.005396530E-1	2.530671120E0	2.073378563E0	9.129091263E0
4.025700280E-1	2.537853718E0	2.061407566E0	9.105149269E0
4.038864990E-1	2.552218914E0	2.042253971E0	9.078812599E0
4.065097690E-1	2.561795712E0	2.020706177E0	9.042900085E0
4.086563350E-1	2.566584110E0	2.011129379E0	9.002198219E0
4.104270380E-1	2.561795712E0	2.011129379E0	8.954314232E0
4.118801530E-1	2.552218914E0	2.003946781E0	8.906430244E0
4.147170660E-1	2.552218914E0	2.011129379E0	8.863334656E0
4.166184230E-1	2.557007313E0	2.030282974E0	8.834604263E0
4.187636040E-1	2.559401512E0	2.049436569E0	8.820239067E0
4.207577970E-1	2.568978310E0	2.066195965E0	8.822632790E0
4.228216430E-1	2.583343744E0	2.070984364E0	8.846575737E0
4.248213460E-1	2.590526342E0	2.070984364E0	8.894459724E0
4.268532200E-1	2.607285738E0	2.078166962E0	8.954314232E0
4.284356150E-1	2.621650934E0	2.080561161E0	9.011775017E0
4.308503740E-1	2.650381327E0	2.075772762E0	9.045293808E0
4.327124990E-1	2.681505919E0	2.073378563E0	9.050082207E0
4.348461810E-1	2.698265314E0	2.063801765E0	9.028534889E0
4.361469610E-1	2.715024710E0	2.044648170E0	8.990227699E0
4.389032970E-1	2.746149302E0	2.015917778E0	8.961497307E0
4.408961530E-1	2.786850691E0	1.999158382E0	8.973467827E0
4.429489890E-1	2.851494312E0	1.989581585E0	9.018958092E0
4.441673840E-1	2.923320293E0	1.987187386E0	9.069235802E0
4.468473840E-1	2.968810081E0	1.984793186E0	9.095572472E0
4.489482300E-1	2.964021683E0	1.970427990E0	9.100360870E0
4.509926150E-1	2.908955097E0	1.939303398E0	9.083600998E0
4.522592690E-1	2.837129116E0	1.905784607E0	9.052476883E0
4.550950270E-1	2.762908697E0	1.877054095E0	9.023746490E0
4.569984230E-1	2.693476915E0	1.850717902E0	8.999804497E0
4.591262970E-1	2.636016130E0	1.824381709E0	8.983044624E0
4.604125380E-1	2.590526342E0	1.793257117E0	8.968679428E0
4.631833740E-1	2.557007313E0	1.762132406E0	8.951920509E0
4.650966920E-1	2.545036316E0	1.731007814E0	8.939949036E0
4.672293350E-1	2.540247917E0	1.683123827E0	8.949525833E0
4.687681150E-1	2.545036316E0	1.613691926E0	8.961497307E0
4.712389500E-1	2.561795712E0	1.527500629E0	8.963891029E0
4.732335660E-1	2.588132143E0	1.441309452E0	8.944737434E0
4.752361040E-1	2.616862535E0	1.345541358E0	8.913613319E0
4.765081150E-1	2.650381327E0	1.252167463E0	8.887276649E0
4.792935660E-1	2.679111719E0	1.161187768E0	8.868123055E0
4.812441920E-1	2.712630510E0	1.089361787E0	8.858546257E0
4.833246430E-1	2.738966703E0	1.034295082E0	8.836998940E0
4.846161150E-1	2.748543501E0	9.792284966E-1	8.793902397E0
4.871707300E-1	2.731784105E0	9.097966552E-1	8.757989883E0
4.893221150E-1	2.707842112E0	8.619126081E-1	8.731653214E0
4.911638840E-1	2.679111719E0	8.307880163E-1	8.714894295E0
4.926209610E-1	2.657563925E0	8.068459630E-1	8.714894295E0
4.954843350E-1	2.624045134E0	7.924807668E-1	8.757989883E0
4.973628460E-1	2.595314741E0	7.876923680E-1	8.810662270E0
4.995152580E-1	2.561795712E0	7.805097699E-1	8.870517731E0
5.007251150E-1	2.523488522E0	7.709329724E-1	8.923190117E0
5.035720660E-1	2.494758129E0	7.565677166E-1	8.973467827E0
5.055766530E-1	2.489969730E0	7.302315235E-1	9.023746490E0
5.076023730E-1	2.497152328E0	6.991068721E-1	9.059659004E0
5.089989990E-1	2.523488522E0	6.655880809E-1	9.069235802E0
5.116006040E-1	2.573766708E0	6.105214357E-1	9.078812599E0
5.134648460E-1	2.657563925E0	5.410895944E-1	9.095572472E0
5.156104500E-1	2.765302896E0	4.668693244E-1	9.129091263E0
5.168323460E-1	2.880224705E0	3.902548850E-1	9.181763649E0
5.196672190E-1	2.978386879E0	3.136404157E-1	9.232041359E0
5.216643460E-1	3.038241863E0	2.418143749E-1	9.263166428E0
5.236976040E-1	3.064578056E0	1.867477298E-1	9.263166428E0
5.249191150E-1	3.055001259E0	1.388636976E-1	9.241618156E0
5.276402690E-1	3.019088268E0	8.858546615E-2	9.220070839E0
5.297360760E-1	2.966415882E0	3.591302410E-2	9.208099365E0
5.317403840E-1	2.918531895E0	-4.788403399E-3	9.205705643E0
5.330821920E-1	2.889801502E0	-3.112462163E-2	9.208099365E0
5.358415270E-1	2.868253708E0	-3.830722719E-2	9.203310966E0
5.377997690E-1	2.849100113E0	-3.591302410E-2	9.208099365E0
5.398864890E-1	2.834734917E0	-4.309562966E-2	9.258378029E0
5.411147300E-1	2.832340717E0	-4.309562966E-2	9.356540680E0
5.439430270E-1	2.849100113E0	-3.351882473E-2	9.493009567E0
5.458544220E-1	2.896984100E0	0.000000000E0	9.651026726E0
5.479739890E-1	2.964021683E0	3.591302410E-2	9.780313492E0
5.493540380E-1	3.014299870E0	5.746084079E-2	9.864110947E0
5.519813350E-1	3.016694069E0	5.506663769E-2	9.909601212E0
5.539359610E-1	2.999934673E0	3.351882473E-2	9.926360130E0
5.559766040E-1	2.995146275E0	-1.915361360E-2	9.938331604E0
5.571929610E-1	3.002328873E0	-7.422025502E-2	9.940725327E0
5.600339120E-1	2.995146275E0	-1.364694983E-1	9.931148529E0
5.619464610E-1	2.978386879E0	-2.082955539E-1	9.900024414E0
5.640792190E-1	2.949656487E0	-2.825157940E-1	9.842563629E0
5.653729220E-1	2.911349297E0	-3.734954596E-1	9.773131371E0
5.679749610E-1	2.846705914E0	-4.668693244E-1	9.684545517E0
5.701180380E-1	2.782062292E0	-5.506663918E-1	9.574412346E0
5.719272690E-1	2.717418909E0	-6.296750307E-1	9.466673851E0
5.733880380E-1	2.671929121E0	-7.134721279E-1	9.366117477E0
5.762250650E-1	2.652775526E0	-8.044517636E-1	9.277531624E0
5.781886530E-1	2.657563925E0	-8.978256583E-1	9.203310966E0
5.802576420E-1	2.669534922E0	-9.816226959E-1	9.165003777E0
5.815293840E-1	2.683900118E0	-1.053448796E0	9.193734169E0
5.843147580E-1	2.688688517E0	-1.115697980E0	9.270348549E0
5.863187300E-1	2.686294317E0	-1.146822572E0	9.349357605E0
5.883604880E-1	2.679111719E0	-1.142034173E0	9.399636269E0
5.898689220E-1	2.681505919E0	-1.108515382E0	9.387664795E0
5.923678730E-1	2.676717520E0	-1.058237195E0	9.339780807E0
5.942122690E-1	2.657563925E0	-1.003170490E0	9.313444138E0
5.963639500E-1	2.626439333E0	-9.552865028E-1	9.315838814E0
5.975971530E-1	2.590526342E0	-9.074024558E-1	9.344569206E0
6.004211040E-1	2.604891539E0	-8.355764151E-1	9.390059471E0
6.024501420E-1	2.679111719E0	-7.876923680E-1	9.402029991E0
6.044527580E-1	2.765302896E0	-7.541735172E-1	9.397241592E0
6.061135380E-1	2.856282711E0	-7.278373241E-1	9.380482674E0
6.084396150E-1	2.937685490E0	-7.015010715E-1	9.366117477E0
6.105244610E-1	3.004723072E0	-6.751648784E-1	9.361329079E0
6.125338450E-1	3.057395458E0	-6.464344859E-1	9.378087997E0
6.140776920E-1	3.098097086E0	-6.320692301E-1	9.402029991E0
6.166116040E-1	3.122039080E0	-6.153098345E-1	9.416395187E0
6.185003840E-1	3.126827478E0	-6.033388376E-1	9.414001465E0
6.206420650E-1	3.122039080E0	-6.033388376E-1	9.394847870E0
6.219510380E-1	3.107673883E0	-6.057330370E-1	9.378087997E0
6.246992190E-1	3.105279684E0	-6.033388376E-1	9.358934402E0
6.267281810E-1	3.119644880E0	-5.913678408E-1	9.325415611E0
6.287306810E-1	3.169923067E0	-5.722141862E-1	9.296685219E0
6.301658070E-1	3.246537447E0	-5.458779931E-1	9.287108421E0
6.327282960E-1	3.320757866E0	-5.243301988E-1	9.296685219E0
6.347225270E-1	3.404554844E0	-5.123591423E-1	9.330204010E0
6.367394500E-1	3.507505417E0	-4.932055473E-1	9.380482674E0
6.381880760E-1	3.610456228E0	-4.620809257E-1	9.454702377E0
6.407964880E-1	3.699041605E0	-4.141969085E-1	9.536105156E0
6.428253730E-1	3.756502390E0	-3.447650373E-1	9.588777542E0
6.448274500E-1	3.775655985E0	-2.513911724E-1	9.583989143E0
6.461208450E-1	3.761290789E0	-1.532289088E-1	9.519346237E0
6.487708070E-1	3.725377798E0	-5.506663769E-2	9.430760384E0
6.508616920E-1	3.732560396E0	9.097966552E-2	9.308655739E0
6.527098070E-1	3.825934410E0	3.495534360E-1	9.162610054E0
6.541818450E-1	3.837905407E0	5.506663918E-1	9.045293808E0
6.569735270E-1	3.739742994E0	6.248866320E-1	8.975862503E0
6.589768450E-1	3.622427225E0	6.320692301E-1	8.930372238E0
6.610189500E-1	3.533841610E0	6.129156351E-1	8.887276649E0
6.622985380E-1	3.466804028E0	5.698199868E-1	8.877699852E0
6.650756420E-1	3.394978046E0	5.003881454E-1	8.904036522E0
6.670031150E-1	3.308786631E0	4.141969085E-1	8.968679428E0
6.691069110E-1	3.196259260E0	3.280056417E-1	9.042900085E0
6.704723070E-1	3.055001259E0	2.537853718E-1	9.095572472E0
6.731057960E-1	2.896984100E0	1.747767180E-1	9.112331390E0
6.751001040E-1	2.729389906E0	8.379705995E-2	9.119514465E0
6.771026040E-1	2.583343744E0	-1.197100803E-2	9.138668060E0
6.783313070E-1	2.482787132E0	-1.173158810E-1	9.203310966E0
6.811597960E-1	2.454056740E0	-2.466027737E-1	9.318233490E0
6.831890270E-1	2.497152328E0	-3.950432837E-1	9.461885452E0
6.852517960E-1	2.595314741E0	-4.860229492E-1	9.619902611E0
6.865126920E-1	2.693476915E0	-4.548983276E-1	9.801861763E0
6.891500760E-1	2.791639090E0	-3.711012602E-1	9.986215591E0
6.912595760E-1	2.908955097E0	-3.399766386E-1	1.014423275E1
6.932761530E-1	3.057395458E0	-3.687070608E-1	1.022084713E1
6.946143070E-1	3.248931646E0	-4.046200812E-1	1.018732834E1
6.973534880E-1	3.445256233E0	-4.453215301E-1	1.008437729E1
6.992539220E-1	3.627215624E0	-4.908113480E-1	9.967061996E0
7.013854500E-1	3.785232782E0	-5.195417404E-1	9.876082420E0
7.028994220E-1	3.921702385E0	-5.386953950E-1	9.799467087E0
7.054435650E-1	4.094084740E0	-5.626373887E-1	9.665391922E0
7.074731420E-1	4.182670593E0	-5.650315881E-1	9.562441826E0
7.094906800E-1	4.283226967E0	-6.464344859E-1	9.433155060E0
7.108921920E-1	4.374206543E0	-7.637503147E-1	9.330204010E0
7.135006420E-1	4.414907932E0	-8.643068075E-1	9.275136948E0
7.153506920E-1	4.424484730E0	-9.504981041E-1	9.272743225E0
7.174970650E-1	4.407725334E0	-1.007958889E0	9.277531624E0
7.188788450E-1	4.395754337E0	-1.051054597E0	9.275136948E0
7.215546800E-1	4.407725334E0	-1.125274777E0	9.253589630E0
7.235188070E-1	4.443638325E0	-1.268926859E0	9.193734169E0
7.255859880E-1	4.501099110E0	-1.450886250E0	9.102754593E0
7.268396530E-1	4.582501888E0	-1.616086125E0	9.014169693E0
7.295608840E-1	4.671087742E0	-1.762132406E0	8.951920509E0
7.316737190E-1	4.769249916E0	-1.893813491E0	8.899248123E0
7.334163070E-1	4.881777287E0	-1.987187386E0	8.863334656E0
7.349180760E-1	5.015852451E0	-2.039859772E0	8.846575737E0
7.377501030E-1	5.154716492E0	-2.073378563E0	8.820239067E0
7.396578450E-1	5.272032261E0	-2.068590164E0	8.746018410E0
7.417821030E-1	5.384559631E0	-2.061407566E0	8.611943245E0
7.430367300E-1	5.571307182E0	-2.169146776E0	8.437167168E0
7.458404490E-1	5.695806026E0	-2.276885748E0	8.279149055E0
7.478696800E-1	5.734113216E0	-2.274491549E0	8.236053467E0
7.498718720E-1	5.722142220E0	-2.149993181E0	8.350975990E0
7.513057680E-1	5.662287235E0	-2.023100376E0	8.501810074E0
7.538694880E-1	5.576095581E0	-1.939303398E0	8.623914719E0
7.557781150E-1	5.477933407E0	-1.889025092E0	8.702922821E0
7.578811030E-1	5.465962410E0	-1.922544003E0	8.815450668E0
7.591529610E-1	5.600037575E0	-2.126051188E0	9.066842079E0
7.619389490E-1	5.753266811E0	-2.262520552E0	9.267954826E0
7.639373840E-1	5.923254967E0	-2.286462545E0	9.306262016E0
7.659705260E-1	5.973533154E0	-2.300827742E0	9.222464561E0
7.672093070E-1	5.856217384E0	-2.391807556E0	9.109937668E0
7.698832300E-1	5.681440830E0	-2.394201756E0	8.863334656E0
7.720571420E-1	5.707777023E0	-2.207453966E0	8.602366447E0
7.740594110E-1	5.870582581E0	-1.745373011E0	8.743624687E0
7.753146530E-1	6.002263546E0	-1.091755986E0	9.040505409E0
7.781171030E-1	6.232107162E0	-5.602431893E-1	8.772355080E0
7.800276530E-1	6.519411087E0	-3.160346150E-1	8.066065788E0
7.821631030E-1	6.701370716E0	-3.495534360E-1	7.345410824E0
7.834295380E-1	6.797138691E0	-6.177040339E-1	6.837840080E0
7.862205260E-1	6.883329868E0	-1.043871999E0	6.586448669E0
7.882496420E-1	6.988674641E0	-1.498770237E0	6.584054470E0
7.902522570E-1	7.113173485E0	-1.845929503E0	6.739677906E0
7.919213070E-1	7.244854450E0	-2.032677174E0	7.022193432E0
7.942616030E-1	7.297526836E0	-2.099714994E0	7.426813602E0
7.962559110E-1	7.196970463E0	-2.106897593E0	7.867346764E0
7.982581420E-1	6.947973251E0	-2.099714994E0	8.236053467E0
7.995863070E-1	6.607996464E0	-2.114080191E0	8.494627953E0
8.023160650E-1	6.186617374E0	-2.200271368E0	8.621520042E0
8.043454110E-1	5.829881191E0	-2.300827742E0	8.580819130E0
8.063622950E-1	5.760449409E0	-2.288856745E0	8.429984093E0
8.075943450E-1	5.956773758E0	-2.176329374E0	8.286332130E0
8.102839610E-1	6.370970726E0	-2.049436569E0	8.226476669E0
8.124138450E-1	6.564900875E0	-2.080561161E0	8.269572258E0
8.142581150E-1	6.665457726E0	-2.164358377E0	8.324639320E0
8.157179990E-1	6.710947514E0	-2.264914751E0	8.343792915E0
8.185074110E-1	6.694188118E0	-2.336740971E0	8.319850922E0
8.205362950E-1	6.596025467E0	-2.375048161E0	8.257601738E0
8.225389110E-1	6.457161903E0	-2.401384354E0	8.180987358E0
8.240939220E-1	6.323086739E0	-2.430114746E0	8.087613106E0
8.265959880E-1	6.210559368E0	-2.461239338E0	7.991845131E0
8.285270760E-1	6.121973515E0	-2.509123325E0	7.912836552E0
8.306422570E-1	6.076483727E0	-2.571372509E0	7.869740963E0
8.321833840E-1	6.076483727E0	-2.655169725E0	7.891288757E0
8.346502570E-1	6.098031521E0	-2.767697096E0	7.979874134E0
8.366442180E-1	6.102819920E0	-2.908955097E0	8.090007782E0
8.386462180E-1	6.074089527E0	-3.059789658E0	8.192957878E0
8.399610380E-1	6.007051945E0	-3.198653460E0	8.267178535E0
8.427031030E-1	5.937620163E0	-3.287238836E0	8.269572258E0
8.445919610E-1	5.908889771E0	-3.296815634E0	8.157045364E0
8.467341030E-1	5.935225964E0	-3.248931646E0	7.963114738E0
8.480023840E-1	6.016628742E0	-3.193865061E0	7.759607792E0
8.506461530E-1	6.119579315E0	-3.184288263E0	7.615955830E0
8.527849610E-1	6.212953568E0	-3.236960649E0	7.529764175E0
8.548265380E-1	6.251260757E0	-3.349488258E0	7.433996201E0
8.561720380E-1	6.227318764E0	-3.488351822E0	7.278373241E0
8.588960640E-1	6.165069580E0	-3.620033026E0	7.086836815E0
8.608138450E-1	6.062118530E0	-3.713406801E0	6.928819656E0
8.629287180E-1	5.940014362E0	-3.809175014E0	6.799532890E0
8.642726150E-1	5.911283970E0	-3.916913986E0	6.579266071E0
8.669869870E-1	5.925649166E0	-4.015076160E0	6.327875137E0
8.689031530E-1	5.884947777E0	-4.132391930E0	6.153098583E0
8.710184870E-1	5.774814606E0	-4.280832767E0	6.071695328E0
8.728896910E-1	5.655104637E0	-4.374206543E0	5.999869347E0
8.750161410E-1	5.652710438E0	-4.338293552E0	5.877765179E0
8.769790760E-1	5.808333397E0	-4.206612587E0	5.734113216E0
8.790275640E-1	6.093243122E0	-4.096478939E0	5.628767967E0
8.806236150E-1	6.421248913E0	-4.086902142E0	5.561730385E0
8.830860260E-1	6.722918510E0	-4.201824188E0	5.535394192E0
8.849902300E-1	6.943184853E0	-4.362235546E0	5.506663799E0
8.871172180E-1	7.089231014E0	-4.498704910E0	5.439626217E0
8.885320760E-1	7.175422668E0	-4.618414879E0	5.334281445E0
8.911752570E-1	7.213729858E0	-4.723760128E0	5.236119270E0
8.932043330E-1	7.199364662E0	-4.829104900E0	5.200206280E0
8.950192680E-1	7.139509678E0	-4.891354084E0	5.224148273E0
8.966402300E-1	7.065289021E0	-4.917690277E0	5.286397457E0
8.992636800E-1	6.993463039E0	-4.939238071E0	5.379771233E0
9.011773070E-1	6.919242859E0	-4.951209068E0	5.521028996E0
9.033102560E-1	6.859387875E0	-4.963180065E0	5.702988625E0
9.048976530E-1	6.825869083E0	-5.011064053E0	5.959167957E0
9.073674870E-1	6.811503887E0	-5.063736439E0	6.260837555E0
9.093966410E-1	6.809109688E0	-5.159504890E0	6.665457726E0
9.113988330E-1	6.835445881E0	-5.195417881E0	6.895300865E0
9.128132300E-1	6.900089264E0	-5.216965675E0	7.077260017E0
9.153958330E-1	7.012616634E0	-5.214571476E0	7.230489254E0
9.173703840E-1	7.139509678E0	-5.176264286E0	7.350199223E0
9.193927560E-1	7.235277653E0	-5.097255230E0	7.419631004E0
9.206435380E-1	7.278373241E0	-4.991910458E0	7.443572998E0
9.234501410E-1	7.278373241E0	-4.879383087E0	7.467514992E0
9.253613450E-1	7.252037048E0	-4.771644115E0	7.541735172E0
9.274969100E-1	7.232883453E0	-4.678270340E0	7.663839817E0
9.287356530E-1	7.240066051E0	-4.570530891E0	7.773972988E0
9.315546790E-1	7.261613846E0	-4.434061527E0	7.788338184E0
9.335711140E-1	7.278373241E0	-4.273650169E0	7.668628216E0
9.355872180E-1	7.256825447E0	-4.103661537E0	7.441178799E0
9.368777680E-1	7.165845871E0	-3.940855980E0	7.184999466E0
9.396449100E-1	7.041347027E0	-3.797203779E0	6.988674641E0
9.415506530E-1	6.924031258E0	-3.670311213E0	6.868964672E0
9.436766790E-1	6.825869083E0	-3.555389643E0	6.789956093E0
9.449478840E-1	6.749254704E0	-3.462015629E0	6.691793919E0
9.477346790E-1	6.698976517E0	-3.397372246E0	6.555324078E0
9.496743450E-1	6.665457726E0	-3.375824451E0	6.406883717E0
9.517811410E-1	6.610390663E0	-3.404554844E0	6.299144745E0
9.531796140E-1	6.538564682E0	-3.481169224E0	6.246472359E0
9.557901410E-1	6.483498096E0	-3.603273630E0	6.229712963E0
9.576583840E-1	6.507440090E0	-3.756502390E0	6.227318764E0
9.597869490E-1	6.624756336E0	-3.904942989E0	6.239289761E0
9.610311910E-1	6.782773495E0	-4.041412354E0	6.227318764E0
9.638446020E-1	6.904877663E0	-4.182670593E0	6.184223175E0
9.657590760E-1	7.017405033E0	-4.405331135E0	6.124367714E0
9.678759100E-1	7.295132637E0	-4.819528103E0	6.126761913E0
9.691429610E-1	7.278373241E0	-4.982333660E0	6.366182327E0
9.718124610E-1	6.890512466E0	-4.807557106E0	6.385335922E0
9.739553070E-1	6.512228489E0	-4.580107689E0	5.997475147E0
9.757725380E-1	6.263231754E0	-4.450820923E0	5.600037575E0
9.773029610E-1	6.107608318E0	-4.484339714E0	5.346252441E0
9.800360640E-1	6.047753334E0	-4.666299343E0	5.178658485E0
9.819820380E-1	6.057330132E0	-4.910507679E0	5.142745018E0
9.840666410E-1	6.124367714E0	-5.164293289E0	5.226542473E0
9.853814220E-1	6.232107162E0	-5.408501625E0	5.363011837E0
9.881242950E-1	6.361393929E0	-5.612008572E0	5.552153587E0
9.901537950E-1	6.466738701E0	-5.750872612E0	5.777208805E0
9.921567180E-1	6.555324078E0	-5.844246387E0	5.978321552E0
9.936287300E-1	6.612784863E0	-5.930437565E0	6.136339188E0
9.961552950E-1	6.643909931E0	-5.961562157E0	6.248866558E0
9.981495250E-1	6.679822922E0	-5.947196960E0	6.311115742E0
1.000166410E0	6.761225700E0	-5.925649166E0	6.315904140E0
1.001485884E0	6.873753071E0	-5.899312973E0	6.323086739E0
1.004224333E0	6.983886242E0	-5.875370979E0	6.344634533E0
1.006094230E0	7.094019413E0	-5.834669590E0	6.418854713E0
1.008256602E0	7.211335659E0	-5.762843609E0	6.538564682E0
1.009565307E0	7.309497833E0	-5.669469833E0	6.677428722E0
1.012177691E0	7.352593422E0	-5.561730385E0	6.852205276E0
1.014327114E0	7.350199223E0	-5.442020416E0	7.103596210E0
1.016346256E0	7.345410824E0	-5.327098846E0	7.486668587E0
1.017600884E0	7.364564419E0	-5.257667065E0	7.927201748E0
1.020403410E0	7.596801758E0	-5.331887245E0	9.459490776E0
1.022335653E0	7.687781811E0	-5.506663799E0	1.070926380E1
1.024450487E0	7.436390400E0	-5.470750809E0	1.073081207E1
1.025683614E0	7.603984833E0	-5.284003258E0	1.063264942E1
1.028508756E0	7.563282967E0	-5.169081688E0	1.029746151E1
1.030530922E0	7.182605267E0	-5.284003258E0	9.509769440E0
1.032539641E0	7.122750282E0	-5.178658485E0	8.793902397E0
1.033948922E0	7.058106422E0	-4.721365929E0	7.905653954E0
1.036548525E0	7.094019413E0	-4.244919777E0	6.732495308E0
1.038405499E0	7.441178799E0	-3.780444384E0	5.963956356E0
1.040544064E0	7.388506413E0	-3.359065056E0	5.568912983E0
1.041791691E0	6.940790653E0	-2.987963676E0	5.276820660E0
1.044601948E0	6.507440090E0	-2.628833532E0	4.944026470E0
1.046519422E0	6.390124321E0	-2.346317768E0	4.675876141E0
1.048648333E0	6.464344501E0	-2.161964178E0	4.429273129E0
1.049895076E0	6.945579052E0	-2.039859772E0	4.134786129E0
1.052560537E0	7.326257229E0	-2.044648170E0	3.598485231E0
1.054661384E0	7.122750282E0	-2.159569979E0	3.179499865E0
1.056434845E0	6.569689274E0	-2.252943754E0	3.167528868E0
1.057930076E0	5.968744755E0	-2.308010340E0	3.576937437E0
1.060795756E0	5.401319027E0	-2.367865562E0	4.182670593E0
1.062649691E0	4.908113480E0	-2.485181332E0	4.649539471E0
1.064826833E0	4.541800499E0	-2.664746523E0	4.838681698E0
1.066035037E0	4.369418144E0	-2.873042107E0	4.793191910E0
1.068884102E0	4.448426723E0	-3.107673883E0	4.599261284E0
1.070913294E0	4.714183331E0	-3.351882458E0	4.364629745E0
1.072976179E0	5.058948040E0	-3.603273630E0	4.070142746E0
1.074326999E0	5.401319027E0	-3.878606796E0	3.670311213E0
1.076941294E0	5.702988625E0	-4.185064793E0	3.145981073E0
1.078823268E0	5.884947777E0	-4.556165695E0	2.497152328E0
1.080937371E0	5.971138954E0	-5.030217648E0	1.836352706E0
1.082137614E0	6.066906929E0	-5.564124584E0	1.300051570E0
1.084994140E0	6.186617374E0	-6.081272125E0	1.029506683E0
1.087022794E0	6.301538944E0	-6.552929878E0	1.058237195E0
1.089024294E0	6.428431511E0	-6.938396454E0	1.355118155E0
1.090246345E0	6.610390663E0	-7.225700855E0	1.836352706E0
1.092922499E0	6.852205276E0	-7.441178799E0	2.434903145E0
1.095082114E0	7.098807812E0	-7.558494568E0	3.165134668E0
1.097127179E0	7.261613846E0	-7.532158375E0	3.974374771E0
1.098377730E0	7.285555840E0	-7.343016624E0	4.678270340E0
1.101184679E0	7.194576263E0	-7.055712223E0	5.137956619E0
1.103129422E0	7.041347027E0	-6.734889507E0	5.327098846E0
1.105215986E0	6.866570473E0	-6.423643112E0	5.288791656E0
1.106497537E0	6.708553314E0	-6.174646378E0	5.099649429E0
1.109273410E0	6.591237068E0	-6.002263546E0	4.826710701E0
1.111170230E0	6.521805286E0	-5.916072369E0	4.534617901E0
1.113303986E0	6.485892296E0	-5.899312973E0	4.276044369E0
1.114641153E0	6.435614109E0	-5.928043365E0	4.060565948E0
1.117302640E0	6.406883717E0	-5.980715752E0	3.873818398E0
1.119173691E0	6.473921299E0	-6.054935932E0	3.711012602E0
1.121313525E0	6.629544735E0	-6.136339188E0	3.593696833E0
1.122510153E0	6.828263283E0	-6.196194172E0	3.536235809E0
1.125370948E0	7.117961884E0	-6.212953568E0	3.562572241E0
1.127274230E0	7.673416615E0	-6.263231754E0	3.754108191E0
1.129402486E0	8.602366447E0	-6.349422932E0	4.290409565E0
1.130597922E0	8.145073891E0	-6.119579315E0	4.920084476E0
1.133381961E0	7.414842606E0	-5.820304394E0	4.843470097E0
1.135431037E0	6.993463039E0	-5.439626217E0	4.769249916E0
1.137201730E0	6.536170483E0	-5.061342239E0	4.982333660E0
1.138761576E0	6.349422932E0	-4.865017891E0	4.924872875E0
1.141550332E0	6.318298340E0	-4.781220913E0	4.960785866E0
1.143566499E0	6.325480938E0	-4.721365929E0	5.114014626E0
1.145596486E0	6.445190907E0	-4.678270340E0	5.219359875E0
1.146914422E0	6.605602264E0	-4.627991676E0	5.245696068E0
1.149654371E0	6.737283707E0	-4.563348293E0	5.209783077E0
1.151534960E0	6.845022678E0	-4.498704910E0	5.202600479E0
1.153684602E0	6.974309444E0	-4.458003521E0	5.274426460E0
1.155044691E0	7.098807812E0	-4.441244125E0	5.396530628E0
1.157683909E0	7.206547260E0	-4.414907932E0	5.497087002E0
1.159519384E0	7.326257229E0	-4.369418144E0	5.540182590E0
1.161680486E0	7.465120792E0	-4.328716755E0	5.540182590E0
1.162906268E0	7.615955830E0	-4.297592163E0	5.537788391E0
1.165737909E0	7.762001991E0	-4.276044369E0	5.547365189E0
1.167720807E0	7.893682957E0	-4.278438568E0	5.564124584E0
1.169783179E0	8.039729118E0	-4.311957359E0	5.592854977E0
1.170996999E0	8.180987358E0	-4.393360138E0	5.628767967E0
1.173660307E0	8.248024940E0	-4.484339714E0	5.667075634E0
1.175804653E0	8.231265068E0	-4.565742493E0	5.679046631E0
1.177832614E0	8.195352554E0	-4.635174274E0	5.667075634E0
1.179091999E0	8.169015884E0	-4.680664539E0	5.612008572E0
1.181926871E0	8.128314972E0	-4.695029736E0	5.501875401E0
1.183795614E0	8.068459511E0	-4.680664539E0	5.351040840E0
1.185958332E0	7.967903137E0	-4.639962673E0	5.248090267E0
1.187329460E0	7.812280178E0	-4.599261284E0	5.173870087E0
1.190016332E0	7.601590633E0	-4.580107689E0	5.121197224E0
1.191944384E0	7.417236805E0	-4.577713490E0	5.066130638E0
1.194061794E0	7.347805023E0	-4.577713490E0	5.006275654E0
1.195411845E0	7.232883453E0	-4.568136692E0	4.951209068E0
1.198070294E0	6.991068840E0	-4.558559895E0	4.948814869E0
1.199941460E0	6.725312710E0	-4.556165695E0	5.001487255E0
1.202066409E0	6.545747280E0	-4.587290287E0	5.094861031E0
1.203312807E0	6.447585106E0	-4.659116745E0	5.209783077E0
1.206124178E0	6.344634533E0	-4.754884720E0	5.319916248E0
1.208013191E0	6.177040577E0	-4.848258495E0	5.401319027E0
1.210155178E0	5.966350555E0	-4.924872875E0	5.398924828E0
1.211370653E0	5.762843609E0	-4.996698856E0	5.281609058E0
1.214054576E0	5.501875401E0	-5.003881454E0	5.193023682E0
1.216214730E0	5.303156853E0	-4.963180065E0	5.166687489E0
1.217987422E0	5.245696068E0	-4.917690277E0	5.125985622E0
1.219492153E0	5.286397457E0	-4.888959885E0	5.042188644E0
1.222317909E0	5.264849663E0	-4.915296078E0	4.946420670E0
1.224273499E0	4.977545261E0	-5.042188644E0	4.829104900E0
1.226349871E0	5.078101635E0	-5.094861031E0	4.853046894E0
1.227594922E0	5.722142220E0	-5.025429249E0	4.999093056E0
1.230407409E0	6.447585106E0	-4.972756863E0	5.152322292E0
1.232436640E0	6.596025467E0	-4.991910458E0	5.269638062E0
1.234439024E0	6.643909931E0	-5.011064053E0	5.463568211E0
1.235844614E0	6.629544735E0	-5.015852451E0	5.643133640E0
1.238436640E0	6.545747280E0	-5.006275654E0	5.724536419E0
1.240431024E0	6.421248913E0	-4.982333660E0	5.722142220E0
1.242447832E0	6.330269337E0	-4.944026470E0	5.662287235E0
1.243740768E0	6.337451935E0	-4.912901878E0	5.580883980E0
1.246504947E0	6.402095318E0	-4.886565685E0	5.506663799E0
1.248420268E0	6.418854713E0	-4.855441093E0	5.432443619E0
1.250536024E0	6.409277916E0	-4.826710701E0	5.336675644E0
1.251782730E0	6.433219910E0	-4.774038315E0	5.267243862E0
1.254514537E0	6.481103897E0	-4.702212334E0	5.303156853E0
1.256585037E0	6.473921299E0	-4.656722069E0	5.355829239E0
1.258623755E0	6.392518520E0	-4.620809078E0	5.360617638E0
1.259868730E0	6.251260757E0	-4.580107689E0	5.317522049E0
1.262680794E0	6.138733387E0	-4.548983097E0	5.269638062E0
1.264690037E0	6.064512730E0	-4.525041103E0	5.226542473E0
1.266726447E0	5.995080948E0	-4.522646904E0	5.176264286E0
1.268004730E0	5.887341976E0	-4.537012100E0	5.116408825E0
1.270783524E0	5.748478413E0	-4.553771496E0	5.054159641E0
1.272812447E0	5.619191170E0	-4.565742493E0	4.979939461E0
1.274814332E0	5.537788391E0	-4.568136692E0	4.903325081E0
1.276209076E0	5.518634796E0	-4.548983097E0	4.797980309E0
1.278822447E0	5.513846397E0	-4.522646904E0	4.831499100E0
1.280745653E0	5.521028996E0	-4.489128113E0	5.054159641E0
1.282818601E0	5.516240597E0	-4.465186119E0	5.245696068E0
1.284048768E0	5.499481201E0	-4.443638325E0	5.295974255E0
1.286875640E0	5.516240597E0	-4.429273129E0	5.250484467E0
1.288827537E0	5.585672379E0	-4.419696331E0	5.147533417E0
1.290921947E0	5.676652431E0	-4.426878929E0	4.994304657E0
1.292162460E0	5.767632008E0	-4.479551315E0	4.874594688E0
1.294826268E0	5.904101372E0	-4.546588898E0	4.841075897E0
1.297008409E0	6.059724331E0	-4.572925091E0	4.807557106E0
1.298789345E0	6.220136166E0	-4.577713490E0	4.709394932E0
1.300441114E0	6.392518520E0	-4.613626480E0	4.537012100E0
1.303067140E0	6.402095318E0	-4.611232281E0	4.357447147E0
1.304973383E0	6.294356346E0	-4.525041103E0	4.194641590E0
1.307098255E0	6.203376770E0	-4.407725334E0	4.031835556E0
1.308437537E0	6.136339188E0	-4.297592163E0	3.883395195E0
1.311155101E0	6.074089527E0	-4.182670593E0	3.737348795E0
1.313096883E0	6.054935932E0	-4.074931145E0	3.572149038E0
1.315201563E0	6.086060524E0	-3.995922565E0	3.418920040E0
1.316665768E0	6.181828976E0	-3.971980572E0	3.320757866E0
1.319208563E0	6.315904140E0	-3.991134167E0	3.306392431E0
1.321145845E0	6.440402508E0	-4.060565948E0	3.375824451E0
1.323204101E0	6.524199486E0	-4.182670593E0	3.526659012E0
1.324815114E0	6.564900875E0	-4.335899353E0	3.718195200E0
1.327261486E0	6.648698330E0	-4.541800499E0	3.916913986E0
1.329252845E0	6.864176273E0	-4.788403511E0	4.158728123E0
1.331292870E0	7.117961884E0	-5.013458252E0	4.187458992E0
1.332640076E0	7.230489254E0	-5.185841084E0	3.907337189E0
1.335212422E0	7.103596210E0	-5.386953831E0	3.761290789E0
1.337373037E0	6.988674641E0	-5.506663799E0	4.096478939E0
1.339396101E0	6.995857239E0	-5.619191170E0	4.599261284E0
1.340674883E0	7.098807812E0	-5.736507416E0	5.125985622E0
1.343452947E0	7.299921036E0	-5.717353821E0	5.164293289E0
1.345368076E0	7.592013359E0	-5.614402771E0	4.855441093E0
1.347484101E0	7.908048153E0	-5.509057999E0	4.690241337E0
1.348808460E0	8.300697327E0	-5.552153587E0	4.886565685E0
1.351542024E0	8.398859978E0	-5.578489780E0	5.078101635E0
1.353546345E0	7.977479935E0	-5.406107426E0	5.008669853E0
1.355573409E0	7.433996201E0	-5.142745018E0	5.035006046E0
1.357016537E0	7.072471619E0	-4.944026470E0	5.322310448E0
1.359570678E0	6.959944248E0	-4.862623692E0	5.700594425E0
1.361564793E0	7.048529625E0	-4.826710701E0	6.019022942E0
1.363581755E0	7.252037048E0	-4.774038315E0	6.234501362E0
1.364888999E0	7.529764175E0	-4.730942726E0	6.320692539E0
1.367639678E0	7.836222172E0	-4.740519524E0	6.220136166E0
1.369538614E0	8.118738174E0	-4.809951305E0	6.059724331E0
1.371671870E0	8.262390137E0	-4.886565685E0	6.186617374E0
1.372984806E0	8.214506149E0	-4.948814869E0	6.483498096E0
1.375677153E0	8.228871346E0	-5.082890034E0	6.816292286E0
1.377758985E0	8.396465302E0	-5.264849663E0	7.038952827E0
1.379644037E0	8.609549522E0	-5.453991413E0	7.127538681E0
1.381032383E0	8.755595207E0	-5.619191170E0	7.132327080E0
1.383818678E0	8.808267593E0	-5.743690014E0	7.132327080E0
1.385807999E0	8.791508675E0	-5.837063789E0	7.120356083E0
1.387864485E0	8.784325600E0	-5.904101372E0	7.101202011E0
1.389179268E0	8.827422142E0	-5.999869347E0	7.101202011E0
1.391922101E0	8.925583839E0	-6.136339188E0	7.089231014E0
1.393875422E0	9.033323288E0	-6.277596951E0	7.065289021E0
1.395952908E0	9.124302864E0	-6.423643112E0	7.048529625E0
1.397384845E0	9.208099365E0	-6.548141479E0	7.017405033E0
1.399949639E0	9.279925346E0	-6.643909931E0	7.026981831E0
1.401934883E0	9.311050415E0	-6.727706909E0	7.048529625E0
1.403945639E0	9.358934402E0	-6.754043102E0	7.034164429E0
1.405543191E0	9.433155060E0	-6.749254704E0	7.048529625E0
1.408002947E0	9.493009567E0	-6.792350292E0	7.070077419E0
1.409936691E0	9.586383820E0	-6.856993675E0	7.065289021E0
1.412048755E0	9.684545517E0	-6.890512466E0	7.038952827E0
1.413418345E0	9.761159897E0	-6.871358871E0	6.962338448E0
1.415961691E0	9.823410034E0	-6.806715488E0	6.818686485E0
1.418135331E0	9.900024414E0	-6.634333134E0	6.682217121E0
1.420137255E0	9.923966408E0	-6.351817131E0	6.648698330E0
1.421415768E0	9.897629738E0	-6.016628742E0	6.749254704E0
1.424194601E0	9.933543205E0	-5.683835030E0	6.878541470E0
1.426100191E0	1.005325317E1	-5.389348030E0	6.962338448E0
1.428226178E0	1.021845245E1	-5.099649429E0	7.012616634E0
1.429565345E0	1.039083576E1	-4.721365929E0	7.019799232E0
1.432283793E0	1.053209305E1	-4.244919777E0	7.105990410E0
1.434208537E0	1.062786102E1	-3.761290789E0	7.378929615E0
1.436329793E0	1.066377449E1	-3.349488258E0	7.678205013E0
1.437868153E0	1.064462090E1	-3.021482468E0	7.864952564E0
1.440338678E0	1.058237171E1	-2.664746523E0	7.896077156E0
1.442284960E0	1.050815105E1	-2.521094322E0	7.788338184E0
1.444335562E0	1.040280628E1	-2.482787132E0	7.606379032E0
1.445618268E0	1.036928749E1	-2.499546528E0	7.496245384E0
1.448393408E0	1.050815105E1	-2.537853718E0	7.096413612E0
1.450306383E0	1.068053341E1	-2.604891539E0	6.859387875E0
1.452425331E0	1.079066753E1	-2.750937700E0	6.677428722E0
1.453708653E0	1.080263805E1	-2.975992680E0	6.521805286E0
1.456374306E0	1.074278259E1	-3.181894064E0	6.392518520E0
1.458507422E0	1.055364132E1	-3.306392431E0	6.279991150E0
1.460527716E0	1.023042393E1	-3.335123062E0	6.167463779E0
1.461845114E0	9.902418137E0	-3.385401249E0	6.011840343E0
1.464585024E0	9.636661530E0	-3.406949043E0	5.829881191E0
1.466504806E0	9.478644371E0	-3.390189648E0	5.650316238E0
1.468616947E0	9.363722801E0	-3.337517262E0	5.511452198E0
1.469905268E0	9.251194954E0	-3.277662039E0	5.351040840E0
1.472674524E0	9.153033257E0	-3.208230257E0	5.188235283E0
1.474642960E0	9.059659004E0	-3.119644880E0	5.082890034E0
1.476705254E0	9.023746490E0	-3.078943491E0	5.085284233E0
1.478344229E0	9.121908188E0	-3.174711466E0	5.238513470E0
1.480702870E0	9.303867340E0	-3.244143248E0	5.312733650E0
1.482618768E0	9.349357605E0	-3.311181068E0	5.142745018E0
1.484714254E0	9.311050415E0	-3.385401249E0	4.908113480E0
1.485957576E0	9.227252960E0	-3.450044632E0	4.754884720E0
1.488772100E0	9.109937668E0	-3.483563423E0	4.759673119E0
1.490731614E0	8.932766914E0	-3.359065056E0	4.781220913E0
1.492804023E0	8.774748802E0	-3.090914488E0	4.824316502E0
1.494025037E0	8.762778282E0	-2.825158119E0	4.912901878E0
1.496707383E0	8.839392662E0	-2.619256735E0	5.039794445E0
1.498857653E0	8.894459724E0	-2.477998734E0	5.178658485E0
1.500893947E0	8.918401718E0	-2.398990154E0	5.324704647E0
1.502117999E0	8.961497307E0	-2.379836559E0	5.444414616E0
1.504951831E0	9.011775017E0	-2.427720547E0	5.537788391E0
1.506874345E0	9.018958092E0	-2.535459518E0	5.554547787E0
1.508998254E0	8.961497307E0	-2.676717520E0	5.485116005E0
1.510318537E0	8.860940933E0	-2.822763920E0	5.377377033E0
1.513056293E0	8.731653214E0	-2.949656487E0	5.284003258E0
1.515042960E0	8.568847656E0	-3.066972494E0	5.216965675E0
1.517089946E0	8.379706383E0	-3.179499865E0	5.111620426E0
1.518483037E0	8.255207062E0	-3.208230257E0	4.874594688E0
1.521098946E0	8.101978302E0	-3.086126089E0	4.479551315E0
1.522980229E0	7.838616371E0	-2.870647907E0	4.187458992E0
1.525095639E0	7.575253963E0	-2.681505919E0	4.333505154E0
1.526325037E0	7.532158375E0	-2.425326347E0	4.584896088E0
1.529154139E0	7.582436562E0	-2.159569979E0	4.541800499E0
1.531183485E0	7.407660007E0	-1.915361404E0	4.378994942E0
1.533246023E0	7.055712223E0	-1.601720929E0	4.213795185E0
1.534506345E0	7.038952827E0	-1.312022567E0	3.758896589E0
1.537115691E0	7.132327080E0	-1.082179189E0	3.428496838E0
1.539243460E0	7.074865818E0	-8.762778044E-1	3.335123062E0
1.541159268E0	6.600813866E0	-6.057330370E-1	3.564966440E0
1.542639576E0	6.086060524E0	-2.753331959E-1	3.852270603E0
1.545349562E0	6.148310184E0	9.576806799E-3	3.706224203E0
1.547294960E0	6.296750546E0	5.746084079E-2	3.514688015E0
1.549380677E0	6.217741966E0	1.244984865E-1	3.562572241E0
1.550654153E0	6.507440090E0	2.178723514E-1	3.569754839E0
1.553437985E0	7.029376030E0	2.274491638E-1	3.303998232E0
1.555466985E0	6.974309444E0	1.939303428E-1	3.126827478E0
1.557483831E0	6.548141479E0	1.053448766E-1	3.289633036E0
1.558875191E0	6.366182327E0	-1.197100803E-2	3.586514235E0
1.561491446E0	6.414066315E0	-9.816227108E-2	3.790021181E0
1.563390422E0	6.421248913E0	-9.816227108E-2	3.871424198E0
1.565486831E0	6.347028732E0	7.182605099E-3	3.890577793E0
1.566673383E0	6.241683960E0	1.101332754E-1	3.914519787E0
1.569543485E0	6.191405773E0	1.987187415E-1	3.971980572E0
1.571408883E0	6.212953568E0	2.729389966E-1	4.096478939E0
1.573574023E0	6.301538944E0	3.040636182E-1	4.302380562E0
1.574765537E0	6.478709698E0	2.825157940E-1	4.537012100E0
1.577453691E0	6.751648903E0	2.489969730E-1	4.726154327E0
1.579616729E0	6.971915245E0	2.609679997E-1	4.860229492E0
1.581615576E0	7.170634270E0	3.064578176E-1	4.939238071E0
1.582891306E0	7.398083210E0	2.418143749E-1	5.080495834E0
1.585734062E0	7.632715225E0	4.788403213E-2	5.262455463E0
1.587610345E0	7.726089001E0	-1.316810995E-1	5.401319027E0
1.589764715E0	7.592013359E0	-2.226607651E-1	5.566518784E0
1.590985037E0	7.264008045E0	-1.915361285E-1	5.667075634E0
1.593821946E0	7.089231014E0	-5.746084079E-2	5.786785603E0
1.595691537E0	7.192182064E0	-1.915361360E-2	5.844246387E0
1.597853138E0	7.184999466E0	-1.268926859E-1	5.693411827E0
1.599192114E0	6.931213856E0	-2.059013397E-1	5.643133640E0
1.601850446E0	6.701370716E0	-2.394201607E-2	5.966350555E0
1.603706999E0	6.567295074E0	3.495534360E-1	6.545747280E0
1.605860677E0	6.531382084E0	6.560112834E-1	7.161057472E0
1.607067652E0	6.584054470E0	7.182605267E-1	7.896077156E0
1.609917831E0	6.648698330E0	7.565677166E-1	8.681375504E0
1.611799576E0	6.634333134E0	8.906430602E-1	9.124302864E0
1.613948946E0	6.603208065E0	1.096544385E0	8.927978516E0
1.615161729E0	6.552929878E0	1.323993564E0	8.130708694E0
1.617831999E0	6.488286495E0	1.589749932E0	7.235277653E0
1.619985114E0	6.332663536E0	1.991975784E0	6.677428722E0
1.621754114E0	6.009446144E0	2.650381327E0	6.497863293E0
1.623260383E0	5.588066578E0	3.349488258E0	6.528987885E0
1.626095831E0	5.341464043E0	3.983951569E0	6.411672115E0
1.627992460E0	5.293580055E0	4.469974518E0	6.330269337E0
1.630142677E0	5.427655220E0	4.750096321E0	6.737283707E0
1.631368422E0	5.592854977E0	4.987122059E0	7.668628216E0
1.634200600E0	5.726930618E0	5.245696068E0	8.698134422E0
1.636146037E0	5.923254967E0	5.547365189E0	9.619902611E0
1.638233561E0	6.129156113E0	5.865794182E0	9.964667320E0
1.639585152E0	6.490680695E0	6.124367714E0	9.856928825E0
1.642232869E0	7.065289021E0	6.308721542E0	9.071630478E0
1.644106191E0	7.920019150E0	6.461950302E0	6.794744492E0
1.646230061E0	8.901641846E0	6.579266071E0	2.683900118E0
1.647564652E0	9.842563629E0	6.749254704E0	-2.324769735E0
1.650287754E0	1.014183807E1	6.979097843E0	-5.659893036E0
1.652198768E0	9.095572472E0	7.436390400E0	-4.340687752E0
1.654334638E0	8.032546997E0	7.515398979E0	-9.313444495E-1
1.655545845E0	7.235277653E0	7.343016624E0	2.291250944E0
1.658224114E0	6.766014099E0	7.103596210E0	4.606443882E0
1.660421869E0	6.387730122E0	6.837840080E0	6.263231754E0
1.662424215E0	6.007051945E0	6.629544735E0	7.630321026E0
1.663708229E0	5.542576790E0	6.466738701E0	8.825027466E0
1.666481715E0	5.161899090E0	6.330269337E0	9.648633003E0
1.668434537E0	4.996698856E0	6.224924564E0	9.864110947E0
1.670513254E0	5.073313236E0	6.169857979E0	9.488221169E0
1.671782806E0	5.312733650E0	6.220136166E0	8.655038834E0
1.674571061E0	5.619191170E0	6.315904140E0	7.620744228E0
1.676486691E0	5.940014362E0	6.416460514E0	6.665457726E0
1.678617177E0	6.217741966E0	6.471527100E0	6.028599739E0
1.679998614E0	6.392518520E0	6.246472359E0	5.731719017E0
1.682624523E0	6.596025467E0	4.393360138E0	5.820304394E0
1.684485806E0	7.266402245E0	1.297657371E0	6.368576527E0
1.686621100E0	7.479485989E0	1.189918280E0	6.469132900E0
1.687863114E0	7.467514992E0	3.667917013E0	6.461950302E0
1.690678600E0	8.322244644E0	5.228936672E0	6.845022678E0
1.692707369E0	9.622296333E0	4.915296078E0	7.290344238E0
1.694709715E0	1.013465595E1	4.113238335E0	7.532158375E0
1.695950768E0	9.481039047E0	3.866635799E0	7.888894558E0
1.698635729E0	8.504204750E0	3.830722809E0	8.494627953E0
1.700796907E0	8.008605003E0	3.397372246E0	9.143456459E0
1.702527845E0	7.946355343E0	2.789244890E0	9.610325813E0
1.704047960E0	8.058882713E0	2.372653961E0	9.792284966E0
1.706872330E0	8.099584579E0	2.193088770E0	9.674968719E0
1.708781999E0	7.838616371E0	1.951274395E0	9.473855972E0
1.710905253E0	7.098807812E0	1.233013868E0	9.430760384E0
1.712125768E0	6.323086739E0	3.567360640E-1	9.301473618E0
1.714962600E0	6.088454723E0	6.943184882E-2	8.889671326E0
1.716922268E0	6.351817131E0	7.422025502E-2	8.386888504E0
1.718994523E0	6.821080685E0	-7.182605099E-3	8.140285492E0
1.720539729E0	7.175422668E0	-2.250549644E-1	8.195352554E0
1.722993061E0	6.840234280E0	-5.937620401E-1	8.513781548E0
1.724939268E0	6.210559368E0	-1.039083481E0	9.004592896E0
1.727005292E0	5.997475147E0	-1.448492050E0	9.442731857E0
1.728255037E0	6.191405773E0	-1.826775908E0	9.727641106E0
1.731063792E0	6.636727333E0	-2.229001760E0	9.828198433E0
1.733002922E0	7.086836815E0	-2.540247917E0	9.742006302E0
1.735097176E0	7.374141216E0	-2.683900118E0	9.358934402E0
1.736379306E0	7.556100368E0	-2.746149302E0	8.633491516E0
1.739065499E0	7.790732384E0	-2.918531895E0	7.754819393E0
1.741150345E0	7.996633530E0	-3.141192675E0	6.897695065E0
1.743165345E0	8.180987358E0	-3.335123062E0	6.119579315E0
1.744404537E0	8.386888504E0	-3.524264812E0	5.415684223E0
1.747246215E0	8.585607529E0	-3.696647406E0	4.776432514E0
1.749275638E0	8.760383606E0	-3.883395195E0	4.170699596E0
1.751326907E0	9.095572472E0	-4.252102375E0	3.347094059E0
1.752738614E0	9.205705643E0	-4.422090530E0	3.093308687E0
1.755341407E0	9.607931137E0	-5.111620426E0	2.446874142E0
1.757222152E0	9.849745750E0	-5.585672379E0	2.152387381E0
1.759372830E0	9.950302124E0	-5.968744755E0	1.900996208E0
1.760821845E0	1.000536919E1	-6.299144745E0	1.654393315E0
1.763380869E0	1.003170490E1	-6.574477673E0	1.414973259E0
1.765235691E0	9.923966408E0	-6.579266071E0	1.189918280E0
1.767377561E0	9.710882187E0	-6.299144745E0	9.504981041E-1
1.768580999E0	9.452308655E0	-5.906495571E0	5.195417404E-1
1.771434984E0	9.129091263E0	-5.506663799E0	-4.548983276E-2
1.773347383E0	8.585607529E0	-5.085284233E0	-5.482721925E-1
1.775480561E0	7.852981567E0	-4.570530891E0	-1.065419793E0
1.776705460E0	7.153874874E0	-3.960009575E0	-1.503558636E0
1.779385729E0	6.052541733E0	-3.124433279E0	-2.147598982E0
1.781513922E0	4.687847137E0	-2.135627985E0	-2.880224705E0
1.783285922E0	3.440467834E0	-1.139639974E0	-3.320757866E0
1.784790998E0	2.269703150E0	-1.244984865E-1	-3.509899616E0
1.787627830E0	9.528923035E-1	9.576807022E-1	-3.603273630E0
1.789519883E0	-8.499416113E-1	2.310404539E0	-3.739742994E0
1.791659561E0	-2.743755102E0	3.983951569E0	-3.775655985E0
1.792893998E0	-4.007893562E0	5.640739441E0	-3.995922565E0
1.795716715E0	-4.606443882E0	6.993463039E0	-4.568136692E0
1.797701960E0	-4.551377296E0	7.809885979E0	-5.389348030E0
1.799763484E0	-3.876212597E0	8.149862289E0	-6.469132900E0
1.801160691E0	-2.700659513E0	8.216899872E0	-7.637503624E0
1.803772176E0	-8.523358107E-1	7.960720539E0	-8.372523308E0
1.805675306E0	2.094926596E0	7.326257229E0	-8.173804283E0
1.807768522E0	6.411672115E0	6.394912720E0	-6.804321289E0
1.808985806E0	1.139640045E1	5.360617638E0	-4.529829502E0
1.811826561E0	1.525824738E1	4.592078686E0	-2.133233786E0
1.813714268E0	1.624705315E1	4.273650169E0	-9.385270476E-1
1.815859099E0	1.517923832E1	4.218583584E0	-7.613561153E-1
1.817078422E0	1.352723980E1	4.244919777E0	-5.051765442E-1
1.819753614E0	1.195185471E1	4.278438568E0	3.399766386E-1
1.821945599E0	1.062307262E1	4.326322556E0	1.328781962E0
1.823908691E0	9.543288231E0	4.369418144E0	2.209848166E0
1.825195691E0	8.626308441E0	4.429273129E0	2.937685490E0
1.828019599E0	7.819462776E0	4.541800499E0	3.667917013E0
1.829906998E0	7.082048416E0	4.730942726E0	4.491522312E0
1.832051099E0	6.366182327E0	5.035006046E0	5.221754074E0
1.833283729E0	5.679046631E0	5.370194435E0	5.772420406E0
1.836109214E0	5.142745018E0	5.590460777E0	6.260837555E0
1.838015729E0	4.809951305E0	5.710171223E0	6.737283707E0
1.840141099E0	4.560954094E0	5.786785603E0	7.194576263E0
1.841497383E0	4.297592163E0	5.877765179E0	7.582436562E0
1.844140638E0	3.854664803E0	6.105214119E0	7.841010571E0
1.846019306E0	3.280056238E0	6.327875137E0	8.054094315E0
1.848154599E0	2.645592928E0	6.483498096E0	8.262390137E0
1.849389422E0	1.941697598E0	6.598419666E0	8.437167168E0
1.852212714E0	1.067813993E0	6.536170483E0	8.714894295E0
1.854092729E0	1.221042871E-1	6.241683960E0	9.059659004E0
1.856244522E0	-5.267243981E-1	5.987898350E0	9.174580574E0
1.857473152E0	-1.127668977E0	5.870582581E0	9.184157372E0
1.860202306E0	-1.999158382E0	5.839457989E0	9.038111687E0
1.862294960E0	-2.540247917E0	5.817910194E0	8.836998940E0
1.864070614E0	-3.134010077E0	5.815515995E0	8.592789650E0
1.865567575E0	-3.694253206E0	5.839457989E0	8.264783859E0
1.868393676E0	-4.194641590E0	5.880159378E0	7.802703381E0
1.870290998E0	-4.611232281E0	5.944802761E0	7.204153061E0
1.872440099E0	-4.955997467E0	6.023811340E0	6.493074894E0
1.873660614E0	-5.243301868E0	6.102819920E0	5.762843609E0
1.876497984E0	-5.547365189E0	6.167463779E0	5.078101635E0
1.878401922E0	-5.992686749E0	6.275202751E0	4.544194698E0
1.880529753E0	-6.349422932E0	6.447585106E0	4.029441357E0
1.881939114E0	-6.643909931E0	6.641515732E0	3.502717018E0
1.884528330E0	-7.259219646E0	6.883329868E0	3.062183857E0
1.886471498E0	-8.039729118E0	7.168240070E0	2.636016130E0
1.888525253E0	-8.317456245E0	7.374141216E0	2.099714994E0
1.889742921E0	-8.379706383E0	7.546523571E0	1.520318031E0
1.892583291E0	-8.324639320E0	7.714118004E0	8.499416113E-1
1.894476729E0	-8.585607529E0	7.975085735E0	3.806780577E-1
1.896629945E0	-9.849745750E0	8.485051155E0	1.197100878E-1
1.897857345E0	-1.113064384E1	9.107542992E0	-4.237737060E-1
1.900559652E0	-1.180820274E1	9.658209801E0	-1.101332784E0
1.902670383E0	-1.223437023E1	1.016578007E1	-1.762132406E0
1.904719368E0	-1.280179691E1	1.075235939E1	-2.353500366E0
1.905983306E0	-1.356794071E1	1.142991924E1	-2.911349297E0
1.908776676E0	-1.444421864E1	1.220803452E1	-3.562572241E0
1.910671037E0	-1.532528496E1	1.304600525E1	-4.331110954E0
1.912807599E0	-1.614649582E1	1.387679291E1	-5.106832027E0
1.914019114E0	-1.695094872E1	1.473870564E1	-5.825092793E0
1.916864637E0	-1.776976585E1	1.567004967E1	-6.438008308E0
1.918893945E0	-1.857661057E1	1.664448929E1	-6.926425457E0
1.920957253E0	-1.923741150E1	1.753513336E1	-7.316680431E0
1.922346921E0	-1.962527084E1	1.836113358E1	-7.654263020E0
1.924929560E0	-1.968273163E1	1.913685417E1	-7.920019150E0
1.926880114E0	-1.950795555E1	1.986948013E1	-8.080430984E0
1.928926406E0	-1.908657646E1	2.049915504E1	-8.063671112E0
1.930300114E0	-1.840183449E1	2.096602440E1	-7.845798969E0
1.932983637E0	-1.748485565E1	2.122220421E1	-7.472303391E0
1.934860460E0	-1.629733086E1	2.123656845E1	-6.921637058E0
1.937014906E0	-1.489432907E1	2.105700302E1	-6.208165169E0
1.938243345E0	-1.336922264E1	2.074815178E1	-5.358223438E0
1.940912768E0	-1.182256794E1	2.034592628E1	-4.405331135E0
1.943101983E0	-1.027591324E1	1.988384438E1	-3.390189648E0
1.944849537E0	-8.769960403E0	1.939303398E1	-2.377442360E0
1.946347383E0	-7.350199223E0	1.888306808E1	-1.369483352E0
1.949176483E0	-5.980715752E0	1.832043076E1	-4.213795066E-1
1.951103306E0	-4.675876141E0	1.768836212E1	4.477157295E-1
1.953209060E0	-3.478775024E0	1.705629349E1	1.307234168E0
1.954581152E0	-2.442085743E0	1.649604988E1	2.185906172E0
1.957266599E0	-1.561019540E0	1.604594040E1	3.057395458E0
1.959173114E0	-3.758896589E-1	1.551442719E1	4.273650169E0
1.961297676E0	3.303998411E-1	1.517444992E1	5.027823448E0
1.962660614E0	9.648633003E-1	1.480574322E1	5.707777023E0
1.965296560E0	1.522712231E0	1.440112305E1	6.272808552E0
1.967161383E0	1.984793186E0	1.400129128E1	6.751648903E0
1.969307560E0	2.370259762E0	1.357751751E1	7.103596210E0
1.970544075E0	2.679111719E0	1.313219643E1	7.321468830E0
1.973365060E0	2.925714493E0	1.267729759E1	7.426813602E0
1.975259960E0	3.114856482E0	1.223437023E1	7.424419403E0
1.977397522E0	3.246537447E0	1.180580902E1	7.347805023E0
1.978630191E0	3.361459255E0	1.138921738E1	7.237671852E0
1.981354960E0	3.483563423E0	1.098459721E1	7.070077419E0
1.983448075E0	3.622427225E0	1.059194851E1	6.847416878E0
1.985421421E0	3.734954596E0	1.022324085E1	6.605602264E0
1.986708383E0	3.813963413E0	9.876082420E0	6.349422932E0
1.989544675E0	3.842693806E0	9.543288231E0	6.042964935E0
1.991444614E0	3.866635799E0	9.220070839E0	5.676652431E0
1.993590291E0	3.876212597E0	8.932766914E0	5.260061264E0
1.994960614E0	3.816357613E0	8.647856712E0	4.843470097E0
1.997648637E0	3.653551817E0	8.334216118E0	4.431667328E0
1.999559691E0	3.430891037E0	8.003816605E0	4.017470360E0
2.001680522E0	3.227383852E0	7.699752808E0	3.591302633E0
2.003059883E0	3.098097086E0	7.441178799E0	3.129221678E0
2.005689445E0	3.102885485E0	7.228095055E0	2.573766708E0
2.007537229E0	3.153163671E0	7.094019413E0	2.030282974E0
2.009686291E0	3.179499865E0	7.003039837E0	1.565807939E0
2.010925306E0	3.172317266E0	6.912060261E0	1.149216771E0
2.013744252E0	3.138798475E0	6.825869083E0	7.565677166E-1
2.015638768E0	3.095702887E0	6.773196697E0	4.022258818E-1
2.017790445E0	3.043030262E0	6.722918510E0	8.858546615E-2
2.019026691E0	2.987963676E0	6.679822922E0	-1.939303428E-1
2.021755114E0	2.949656487E0	6.663063526E0	-4.644751251E-1
2.023831575E0	2.942473888E0	6.679822922E0	-7.158663273E-1
2.025607229E0	2.959233284E0	6.710947514E0	-9.552865028E-1
2.027107383E0	2.980781078E0	6.749254704E0	-1.173158884E0
2.029937637E0	3.002328873E0	6.801927090E0	-1.381454349E0
2.031827421E0	3.031059265E0	6.861782074E0	-1.584961534E0
2.033969714E0	3.086126089E0	6.940790653E0	-1.759738207E0
2.035422960E0	3.153163671E0	7.086836815E0	-1.924938202E0
2.038027560E0	3.136404276E0	7.309497833E0	-2.032677174E0
2.039929383E0	3.033453465E0	7.553706169E0	-2.063801765E0
2.042074444E0	2.913743496E0	7.766790390E0	-2.023100376E0
2.043491306E0	2.856282711E0	7.948749542E0	-1.960851192E0
2.046082598E0	2.853888512E0	8.125920296E0	-1.912967205E0
2.047947152E0	2.894589901E0	8.307879448E0	-1.877054095E0
2.050078906E0	2.999934673E0	8.482656479E0	-1.833958507E0
2.051343306E0	3.143586874E0	8.645462036E0	-1.812410712E0
2.054136060E0	3.275267839E0	8.781931877E0	-1.783680320E0
2.055999652E0	3.430891037E0	8.911218643E0	-1.711854219E0
2.058167714E0	3.622427225E0	9.033323288E0	-1.604115129E0
2.059353152E0	3.813963413E0	9.148244858E0	-1.458068848E0
2.062042844E0	3.998316765E0	9.248801231E0	-1.228225470E0
2.064190537E0	4.122815132E0	9.394847870E0	-8.786720037E-1
2.066170768E0	4.084507942E0	9.691728592E0	-1.963245422E-1
2.067559729E0	4.058171749E0	9.801861763E0	3.351882473E-2
2.070328752E0	4.041412354E0	1.010831928E1	6.464344859E-1
2.072190383E0	4.074931145E0	1.025197124E1	1.012747288E0
2.074359675E0	4.101267338E0	1.034774017E1	1.352723956E0
2.075586883E0	4.096478939E0	1.041238308E1	1.678335428E0
2.078418021E0	4.125209332E0	1.047223854E1	1.982398987E0
2.080447483E0	4.151545525E0	1.051772785E1	2.264914751E0
2.082449867E0	4.048594952E0	1.053927612E1	2.564189911E0
2.083851460E0	3.842693806E0	1.054406452E1	2.856282711E0
2.086448598E0	3.608062029E0	1.053209305E1	3.129221678E0
2.088443021E0	3.383007050E0	1.049618053E1	3.371036053E0
2.090459521E0	3.205836058E0	1.045069027E1	3.560178041E0
2.091670498E0	3.076549292E0	1.040998936E1	3.708618402E0
2.094517213E0	2.980781078E0	1.037886429E1	3.816357613E0
2.096411806E0	2.894589901E0	1.035971069E1	3.866635799E0
2.098549290E0	2.825158119E0	1.034295177E1	3.876212597E0
2.099774421E0	2.772485495E0	1.029506683E1	3.854664803E0
2.102442537E0	2.698265314E0	1.023281765E1	3.797203779E0
2.104587691E0	2.614468336E0	1.017775154E1	3.701435804E0
2.106349075E0	2.537853718E0	1.011310768E1	3.579331636E0
2.107852883E0	2.463633537E0	1.003170490E1	3.418920040E0
2.110695406E0	2.403778553E0	9.933543205E0	3.220201254E0
2.112600844E0	2.363077164E0	9.840168953E0	3.014299870E0
2.114741060E0	2.339135170E0	9.761159897E0	2.808398485E0
2.115958998E0	2.310404539E0	9.682151794E0	2.597708941E0
2.118798713E0	2.284068346E0	9.591172218E0	2.375048161E0
2.120733806E0	2.267308950E0	9.502586365E0	2.142810583E0
2.122830098E0	2.250549555E0	9.421183586E0	1.905784607E0
2.124197114E0	2.226607561E0	9.354146004E0	1.678335428E0
2.126830021E0	2.195482969E0	9.296685219E0	1.460463047E0
2.128806152E0	2.149993181E0	9.248801231E0	1.247379065E0
2.130827444E0	2.092532396E0	9.198522568E0	1.055842996E0
2.132052498E0	2.023100376E0	9.162610054E0	8.906430602E-1
2.134885213E0	1.944091797E0	9.131484985E0	7.374141216E-1
2.136812729E0	1.877054095E0	9.112331390E0	6.033388376E-1
2.138931867E0	1.817199111E0	9.105149269E0	4.955997467E-1
2.140157075E0	1.754949808E0	9.107542992E0	4.070142806E-1
2.142821267E0	1.704671621E0	9.126696587E0	3.471592367E-1
2.144957191E0	1.651999116E0	9.145850182E0	3.160346150E-1
2.146968075E0	1.599326730E0	9.169792175E0	3.160346150E-1
2.148240806E0	1.558625340E0	9.193734169E0	3.303998411E-1
2.151080521E0	1.525106430E0	9.220070839E0	3.591302633E-1
2.152966267E0	1.503558636E0	9.267954826E0	4.118026793E-1
2.155112252E0	1.486799240E0	9.320627213E0	4.884171486E-1
2.156421844E0	1.472434044E0	9.380482674E0	5.841852427E-1
2.159169675E0	1.470039845E0	9.430760384E0	6.943184733E-1
2.161102383E0	1.479616642E0	9.476250648E0	8.236053586E-1
2.163215290E0	1.493981838E0	9.521739960E0	9.576807022E-1
2.164665652E0	1.508347034E0	9.576807022E0	1.096544385E0
2.167225906E0	1.525106430E0	9.631873131E0	1.237802267E0
2.169203191E0	1.553836942E0	9.682151794E0	1.374271750E0
2.171222636E0	1.587355733E0	9.730035782E0	1.503558636E0
2.172564114E0	1.611297727E0	9.785101891E0	1.618480325E0
2.175281136E0	1.630451322E0	9.847352028E0	1.774103403E0
2.177156421E0	1.649604917E0	9.878476143E0	1.865083098E0
2.179313252E0	1.661576033E0	9.907206535E0	1.944091797E0
2.180516383E0	1.666364431E0	9.931148529E0	2.008735180E0
2.183297998E0	1.673547029E0	9.940725327E0	2.051830769E0
2.185364844E0	1.671152830E0	9.950302124E0	2.085349798E0
2.187144191E0	1.661576033E0	9.955090523E0	2.102109194E0
2.188631652E0	1.661576033E0	9.938331604E0	2.102109194E0
2.191472752E0	1.644816518E0	9.911994934E0	2.085349798E0
2.193361306E0	1.587355733E0	9.876082420E0	2.059013367E0
2.195504213E0	1.508347034E0	9.842563629E0	2.011129379E0
2.196735460E0	1.455674648E0	9.804255486E0	1.941697598E0
2.199560790E0	1.441309452E0	9.758766174E0	1.855506301E0
2.201527729E0	1.458068848E0	9.710882187E0	1.752555609E0
2.203591482E0	1.508347034E0	9.660603523E0	1.642422318E0
2.204982767E0	1.556231141E0	9.612719536E0	1.549048543E0
2.207587752E0	1.592144132E0	9.569623947E0	1.472434044E0
2.209474652E0	1.632845521E0	9.531316757E0	1.422155857E0
2.211597905E0	1.656787634E0	9.495404243E0	1.407790542E0
2.212826075E0	1.642422318E0	9.464279175E0	1.410184860E0
2.215655213E0	1.608903527E0	9.423578262E0	1.412579060E0
2.217598729E0	1.584961534E0	9.387664795E0	1.393425345E0
2.219686021E0	1.575384736E0	9.358934402E0	1.362300754E0
2.220918921E0	1.568202138E0	9.337387085E0	1.331176162E0
2.223588075E0	1.556231141E0	9.308655739E0	1.304839969E0
2.225772944E0	1.513135433E0	9.263166428E0	1.276109457E0
2.227667575E0	1.448492050E0	9.212887764E0	1.273715258E0
2.229002498E0	1.386242747E0	9.179368973E0	1.295263171E0
2.231832136E0	1.340752959E0	9.145850182E0	1.316810966E0
2.233735267E0	1.316810966E0	9.105149269E0	1.352723956E0
2.235877328E0	1.326387763E0	9.085995674E0	1.388636947E0
2.237114306E0	1.357512355E0	9.093177795E0	1.414973259E0
2.239934905E0	1.403002143E0	9.114726067E0	1.446097851E0
2.241826267E0	1.462857246E0	9.148244858E0	1.467645645E0
2.243966328E0	1.534683347E0	9.191340446E0	1.467645645E0
2.245355652E0	1.596932530E0	9.222464561E0	1.465251446E0
2.247974751E0	1.630451322E0	9.227252960E0	1.467645645E0
2.249845460E0	1.642422318E0	9.222464561E0	1.470039845E0
2.251971136E0	1.623268723E0	9.222464561E0	1.505952835E0
2.253194037E0	1.577778935E0	9.246406555E0	1.561019540E0
2.256028021E0	1.561019540E0	9.279925346E0	1.618480325E0
2.257920190E0	1.580173135E0	9.311050415E0	1.678335428E0
2.260073367E0	1.596932530E0	9.327810287E0	1.762132406E0
2.261293306E0	1.592144132E0	9.325415611E0	1.853112102E0
2.263978229E0	1.563413739E0	9.306262016E0	1.924938202E0
2.266158713E0	1.525106430E0	9.291896820E0	1.987187386E0
2.267973421E0	1.501164436E0	9.284713745E0	2.044648170E0
2.269386652E0	1.498770237E0	9.291896820E0	2.097320795E0
2.272218136E0	1.510741234E0	9.311050415E0	2.140416384E0
2.274123306E0	1.534683347E0	9.315838814E0	2.173935175E0
2.276249097E0	1.589749932E0	9.294290543E0	2.207453966E0
2.277496075E0	1.613691926E0	9.289502144E0	2.212242365E0
2.280306405E0	1.673547029E0	9.270348549E0	2.202665567E0
2.282218075E0	1.711854219E0	9.263166428E0	2.183511972E0
2.284352713E0	1.745373011E0	9.263166428E0	2.152387381E0
2.285739037E0	1.776497602E0	9.265560150E0	2.111685991E0
2.288359020E0	1.800439715E0	9.258378029E0	2.061407566E0
2.290246652E0	1.824381709E0	9.265560150E0	2.003946781E0
2.292354982E0	1.848323703E0	9.275136948E0	1.946485996E0
2.293707306E0	1.862688899E0	9.289502144E0	1.900996208E0
2.296411828E0	1.867477298E0	9.308655739E0	1.848323703E0
2.298288998E0	1.872265697E0	9.330204010E0	1.783680320E0
2.300442290E0	1.884236693E0	9.351752281E0	1.721431017E0
2.301684037E0	1.905784607E0	9.361329079E0	1.675941229E0
2.304411690E0	1.924938202E0	9.373299599E0	1.630451322E0
2.306504921E0	1.951274395E0	9.394847870E0	1.594538331E0
2.308426460E0	1.984793186E0	9.404424667E0	1.565807939E0
2.309778421E0	2.042253971E0	9.416395187E0	1.546654344E0
2.312599982E0	2.109291792E0	9.421183586E0	1.529894829E0
2.314565075E0	2.164358377E0	9.433155060E0	1.522712231E0
2.316629443E0	2.190694571E0	9.430760384E0	1.515529633E0
2.317876729E0	2.171540976E0	9.392453194E0	1.503558636E0
2.320685790E0	2.121262789E0	9.327810287E0	1.465251446E0
2.322629960E0	2.066195965E0	9.277531624E0	1.405396342E0
2.324715866E0	2.056619167E0	9.263166428E0	1.357512355E0
2.326101344E0	2.092532396E0	9.272743225E0	1.326387763E0
2.328713982E0	2.145204782E0	9.301473618E0	1.309628367E0
2.330646460E0	2.197877169E0	9.318233490E0	1.300051570E0
2.332724866E0	2.248155355E0	9.311050415E0	1.285686255E0
2.333985729E0	2.274491549E0	9.291896820E0	1.264138460E0
2.336781789E0	2.293645144E0	9.277531624E0	1.247379065E0
2.338810943E0	2.315192938E0	9.265560150E0	1.247379065E0
2.340812674E0	2.336740971E0	9.260771751E0	1.252167463E0
2.342054037E0	2.353500366E0	9.270348549E0	1.252167463E0
2.344726075E0	2.365471363E0	9.296685219E0	1.256955862E0
2.346899136E0	2.382230759E0	9.320627213E0	1.271321058E0
2.348697113E0	2.403778553E0	9.339780807E0	1.300051570E0
2.350322960E0	2.425326347E0	9.373299599E0	1.343147159E0
2.352958289E0	2.415749550E0	9.390059471E0	1.379060149E0
2.354898190E0	2.363077164E0	9.394847870E0	1.410184860E0
2.357003328E0	2.281674147E0	9.402029991E0	1.448492050E0
2.358240806E0	2.193088770E0	9.406818390E0	1.508347034E0
2.361060097E0	2.118868589E0	9.423578262E0	1.556231141E0
2.363088982E0	2.061407566E0	9.440337181E0	1.601720929E0
2.365090866E0	1.989581585E0	9.425971985E0	1.640028119E0
2.366702998E0	1.920149803E0	9.387664795E0	1.687912226E0
2.369088636E0	1.862688899E0	9.334992409E0	1.733402014E0
2.371047075E0	1.807622313E0	9.279925346E0	1.766920805E0
2.373083635E0	1.735796213E0	9.246406555E0	1.805228114E0
2.374618267E0	1.642422318E0	9.224859238E0	1.841141105E0
2.377139943E0	1.551442742E0	9.196128845E0	1.879448295E0
2.379126537E0	1.491587639E0	9.176975250E0	1.920149803E0
2.381185866E0	1.465251446E0	9.174580574E0	1.968033791E0
2.382456537E0	1.455674648E0	9.172186852E0	2.013523579E0
2.385121113E0	1.455674648E0	9.157821655E0	2.059013367E0
2.387271789E0	1.479616642E0	9.148244858E0	2.090138197E0
2.389199498E0	1.513135433E0	9.157821655E0	2.123656988E0
2.390673306E0	1.546654344E0	9.176975250E0	2.159569979E0
2.393331674E0	1.582567334E0	9.188945770E0	2.193088770E0
2.395181844E0	1.618480325E0	9.200917244E0	2.221819162E0
2.397363866E0	1.651999116E0	9.205705643E0	2.245761156E0
2.398572690E0	1.675941229E0	9.224859238E0	2.255337954E0
2.401421328E0	1.704671621E0	9.258378029E0	2.224213362E0
2.403324729E0	1.735796213E0	9.296685219E0	2.176329374E0
2.405468443E0	1.747767210E0	9.325415611E0	2.128445387E0
2.406808383E0	1.742978811E0	9.354146004E0	2.094926596E0
2.409476943E0	1.745373011E0	9.382876396E0	2.070984364E0
2.411362344E0	1.745373011E0	9.409213066E0	2.063801765E0
2.413473058E0	1.740584612E0	9.428366661E0	2.063801765E0
2.414659152E0	1.716642618E0	9.454702377E0	2.087743998E0
2.417531174E0	1.680729628E0	9.483432770E0	2.116474390E0
2.419427421E0	1.647210717E0	9.495404243E0	2.138022184E0
2.421562597E0	1.611297727E0	9.493009567E0	2.154781580E0
2.422805267E0	1.570596337E0	9.493009567E0	2.169146776E0
2.425485960E0	1.517923832E0	9.495404243E0	2.169146776E0
2.427627960E0	1.460463047E0	9.500192642E0	2.145204782E0
2.429468883E0	1.388636947E0	9.512163162E0	2.130839586E0
2.430897883E0	1.326387763E0	9.548076630E0	2.128445387E0
2.433724174E0	1.285686255E0	9.607931137E0	2.128445387E0
2.435608152E0	1.252167463E0	9.648633003E0	2.128445387E0
2.437755866E0	1.240196466E0	9.665391922E0	2.121262789E0
2.438999036E0	1.261744261E0	9.662998199E0	2.104503393E0
2.441813097E0	1.309628367E0	9.646238327E0	2.080561161E0
2.443728960E0	1.367089152E0	9.627084732E0	2.059013367E0
2.445845481E0	1.398213744E0	9.617507935E0	2.039859772E0
2.447200421E0	1.426944256E0	9.598354340E0	2.032677174E0
2.449843866E0	1.458068848E0	9.564835548E0	2.051830769E0
2.451718883E0	1.503558636E0	9.531316757E0	2.085349798E0
2.453855712E0	1.561019540E0	9.493009567E0	2.133233786E0
2.455171344E0	1.618480325E0	9.447520256E0	2.185906172E0
2.457912827E0	1.685518026E0	9.421183586E0	2.224213362E0
2.459941751E0	1.769315004E0	9.394847870E0	2.248155355E0
2.461943597E0	1.862688899E0	9.361329079E0	2.272097349E0
2.463163536E0	1.948880196E0	9.315838814E0	2.305616140E0
2.465816729E0	2.037465572E0	9.263166428E0	2.341529369E0
2.467963652E0	2.128445387E0	9.220070839E0	2.355894566E0
2.469939498E0	2.219424963E0	9.193734169E0	2.324769735E0
2.471252036E0	2.319981337E0	9.208099365E0	2.240972757E0
2.474089097E0	2.427720547E0	9.239224434E0	2.104503393E0
2.476113652E0	2.540247917E0	9.255983353E0	1.956062794E0
2.478135289E0	2.640804529E0	9.277531624E0	1.826775908E0
2.479375921E0	2.712630510E0	9.301473618E0	1.719036818E0
2.482192481E0	2.758120298E0	9.311050415E0	1.613691926E0
2.484141344E0	2.789244890E0	9.306262016E0	1.513135433E0
2.486224327E0	2.827552319E0	9.282320023E0	1.426944256E0
2.487591652E0	2.863465309E0	9.246406555E0	1.357512355E0
2.490233097E0	2.885013103E0	9.224859238E0	1.259350061E0
2.492094921E0	2.873042107E0	9.248801231E0	1.194706678E0
2.494229866E0	2.853888512E0	9.272743225E0	1.137245774E0
2.495503383E0	2.851494312E0	9.284713745E0	1.115697980E0
2.498287558E0	2.877830505E0	9.339780807E0	1.067813993E0
2.500178229E0	2.889801502E0	9.382876396E0	1.055842996E0
2.502333789E0	2.896984100E0	9.418789864E0	1.065419793E0
2.503593729E0	2.916137695E0	9.452308655E0	1.074996591E0
2.506230575E0	2.937685490E0	9.483432770E0	1.091755986E0
2.508385998E0	2.952050686E0	9.500192642E0	1.113303781E0
2.510184306E0	2.966415882E0	9.514557838E0	1.149216771E0
2.511632036E0	2.987963676E0	9.536105156E0	1.204283476E0
2.514479596E0	3.009511471E0	9.550470352E0	1.264138460E0
2.516371960E0	3.047818661E0	9.560047150E0	1.323993564E0
2.518510558E0	3.083731890E0	9.583989143E0	1.364694953E0
2.519829152E0	3.117250681E0	9.610325813E0	1.398213744E0
2.522567750E0	3.126827478E0	9.622296333E0	1.441309452E0
2.524596520E0	3.134010077E0	9.639056206E0	1.482010841E0
2.526613096E0	3.153163671E0	9.655815125E0	1.534683347E0
2.528254960E0	3.167528868E0	9.662998199E0	1.572990537E0
2.530620712E0	3.222595453E0	9.670180321E0	1.608903527E0
2.532501113E0	3.318363667E0	9.665391922E0	1.649604917E0
2.534615789E0	3.414131641E0	9.665391922E0	1.675941229E0
2.535835383E0	3.526659012E0	9.672574997E0	1.721431017E0
2.538673250E0	3.634398222E0	9.674968719E0	1.762132406E0
2.540561152E0	3.720589399E0	9.674968719E0	1.793257117E0
2.542704250E0	3.790021181E0	9.674968719E0	1.814804912E0
2.544031306E0	3.823540211E0	9.672574997E0	1.853112102E0
2.546644767E0	3.825934410E0	9.643844604E0	1.898601890E0
2.548790096E0	3.835511208E0	9.612719536E0	1.948880196E0
2.550807212E0	3.845088005E0	9.572018623E0	2.001552582E0
2.552101767E0	3.816357613E0	9.507374763E0	2.047042370E0
2.554863058E0	3.725377798E0	9.428366661E0	2.094926596E0
2.556751575E0	3.557783842E0	9.339780807E0	2.145204782E0
2.558893596E0	3.287238836E0	9.227252960E0	2.166752577E0
2.560148844E0	2.916137695E0	9.090784073E0	2.157175779E0
2.562950635E0	2.533065319E0	8.966285706E0	2.118868589E0
2.564943498E0	2.193088770E0	8.868123055E0	2.068590164E0
2.566981135E0	1.927332401E0	8.801085472E0	2.035071373E0
2.568424190E0	1.752555609E0	8.774748802E0	2.015917778E0
2.570978942E0	1.685518026E0	8.791508675E0	2.003946781E0
2.572972942E0	1.716642618E0	8.856152534E0	1.987187386E0
2.574989558E0	1.800439715E0	8.942343712E0	1.977610588E0
2.576198844E0	1.920149803E0	9.040505409E0	1.982398987E0
2.579046904E0	2.042253971E0	9.133879662E0	2.008735180E0
2.580932729E0	2.106897593E0	9.234436035E0	2.059013367E0
2.583077519E0	2.118868589E0	9.334992409E0	2.128445387E0
2.584391267E0	2.109291792E0	9.423578262E0	2.195482969E0
2.587032536E0	2.092532396E0	9.481039047E0	2.255337954E0
2.589129075E0	2.059013367E0	9.519346237E0	2.300827742E0
2.590952652E0	2.013523579E0	9.555258751E0	2.327163935E0
2.592512536E0	1.991975784E0	9.576807022E0	2.331952572E0
2.595223096E0	1.960851192E0	9.605537415E0	2.312798738E0
2.597118959E0	1.953668594E0	9.622296333E0	2.279279947E0
2.599268365E0	1.944091797E0	9.622296333E0	2.255337954E0
2.600487575E0	1.903390408E0	9.612719536E0	2.229001760E0
2.603325442E0	1.836352706E0	9.598354340E0	2.209848166E0
2.605354250E0	1.757344007E0	9.572018623E0	2.197877169E0
2.607356327E0	1.687912226E0	9.528923035E0	2.178723574E0
2.608760152E0	1.640028119E0	9.483432770E0	2.161964178E0
2.611354365E0	1.630451322E0	9.449913979E0	2.169146776E0
2.613238921E0	1.606509328E0	9.428366661E0	2.205059767E0
2.615349904E0	1.546654344E0	9.399636269E0	2.260126352E0
2.616768959E0	1.482010841E0	9.354146004E0	2.322375536E0
2.619407288E0	1.460463047E0	9.306262016E0	2.382230759E0
2.621281267E0	1.479616642E0	9.258378029E0	2.425326347E0
2.623452981E0	1.501164436E0	9.184157372E0	2.451662540E0
2.624664229E0	1.496376038E0	9.083600998E0	2.473210335E0
2.627342729E0	1.474828243E0	8.980650902E0	2.492363930E0
2.629503883E0	1.546654344E0	8.899248123E0	2.456450939E0
2.631452729E0	1.738190413E0	8.846575737E0	2.391807556E0
2.632778498E0	1.865083098E0	8.789113998E0	2.398990154E0
2.635599288E0	1.946485996E0	8.717288017E0	2.475604534E0
2.637512998E0	2.085349798E0	8.650250435E0	2.542642117E0
2.639630365E0	2.303221941E0	8.590395927E0	2.585737944E0
2.640909959E0	2.573766708E0	8.535328865E0	2.616862535E0
2.643687250E0	2.868253708E0	8.482656479E0	2.655169725E0
2.645715634E0	3.174711466E0	8.441955566E0	2.707842112E0
2.647731904E0	3.450044632E0	8.446743965E0	2.762908697E0
2.649349729E0	3.660734415E0	8.487444878E0	2.832340717E0
2.651738288E0	3.804386616E0	8.568847656E0	2.913743496E0
2.653624844E0	3.871424198E0	8.683769226E0	2.980781078E0
2.655733750E0	3.797203779E0	8.753201485E0	3.009511471E0
2.656964767E0	4.065354347E0	8.705317497E0	2.839523315E0
2.659790865E0	3.979163170E0	8.717288017E0	2.774879694E0
2.661681575E0	3.320757866E0	8.734047890E0	2.916137695E0
2.663821750E0	2.834734917E0	8.815450668E0	3.023876667E0
2.665111536E0	2.310404539E0	9.030928612E0	3.162740469E0
2.667741382E0	1.649604917E0	9.244012833E0	3.332728863E0
2.669900844E0	1.326387763E0	9.421183586E0	3.306392431E0
2.671673959E0	1.101332784E0	9.617507935E0	3.246537447E0
2.673174998E0	7.757213712E-1	9.715670586E0	3.181894064E0
2.675985096E0	6.200982332E-1	9.792284966E0	3.019088268E0
2.677901306E0	4.141969085E-1	9.828198433E0	2.868253708E0
2.680015365E0	2.968810201E-1	9.835380554E0	2.719813108E0
2.681579459E0	2.681505978E-1	9.813833237E0	2.552218914E0
2.684072942E0	3.495534360E-1	9.782708168E0	2.396595955E0
2.686026075E0	4.955997467E-1	9.765948296E0	2.248155355E0
2.688104173E0	6.775590777E-1	9.720458984E0	2.106897593E0
2.689682613E0	8.571242094E-1	9.658209801E0	1.958456993E0
2.692105711E0	1.036689281E0	9.543288231E0	1.826775908E0
2.694009652E0	1.185129881E0	9.425971985E0	1.719036818E0
2.696116480E0	1.280897856E0	9.318233490E0	1.625662923E0
2.697370421E0	1.302445769E0	9.203310966E0	1.584961534E0
2.700174327E0	1.312022567E0	9.102754593E0	1.561019540E0
2.702091229E0	1.355118155E0	9.033323288E0	1.539471745E0
2.704205750E0	1.417367458E0	8.954314232E0	1.513135433E0
2.705445036E0	1.436521053E0	8.925583839E0	1.496376038E0
2.708127536E0	1.529894829E0	8.834604263E0	1.455674648E0
2.710293250E0	1.587355733E0	8.774748802E0	1.453280449E0
2.712189306E0	1.673547029E0	8.707711220E0	1.443703651E0
2.713621190E0	1.745373011E0	8.659827232E0	1.438915253E0
2.716354250E0	1.824381709E0	8.611943245E0	1.434126854E0
2.718278921E0	1.900996208E0	8.607154846E0	1.443703651E0
2.720401865E0	1.941697598E0	8.626308441E0	1.479616642E0
2.721658921E0	1.980004787E0	8.645462036E0	1.513135433E0
2.724460096E0	2.035071373E0	8.659827232E0	1.563413739E0
2.726353152E0	2.090138197E0	8.681375504E0	1.628057122E0
2.728491711E0	2.121262789E0	8.717288017E0	1.704671621E0
2.729846190E0	2.140416384E0	8.753201485E0	1.771709204E0
2.732500942E0	2.183511972E0	8.815450668E0	1.853112102E0
2.734332498E0	2.252943754E0	8.904036522E0	1.958456993E0
2.736498365E0	2.353500366E0	9.028534889E0	2.039859772E0
2.737748344E0	2.439691544E0	9.143456459E0	2.085349798E0
2.740556596E0	2.530671120E0	9.229647636E0	2.097320795E0
2.742585826E0	2.588132143E0	9.306262016E0	2.121262789E0
2.744602865E0	2.585737944E0	9.375694275E0	2.159569979E0
2.745903229E0	2.549824715E0	9.425971985E0	2.195482969E0
2.748646267E0	2.477998734E0	9.471462250E0	2.229001760E0
2.750681382E0	2.336740971E0	9.481039047E0	2.281674147E0
2.752615036E0	2.193088770E0	9.442731857E0	2.329558372E0
2.753927267E0	2.097320795E0	9.392453194E0	2.377442360E0
2.756749249E0	2.073378563E0	9.366117477E0	2.415749550E0
2.758630036E0	2.085349798E0	9.370905876E0	2.444479942E0
2.760779865E0	2.073378563E0	9.363722801E0	2.454056740E0
2.762071152E0	2.116474390E0	9.339780807E0	2.454056740E0
2.764837596E0	2.142810583E0	9.287108421E0	2.396595955E0
2.766759036E0	2.188300371E0	9.263166428E0	2.322375536E0
2.768884211E0	2.229001760E0	9.255983353E0	2.240972757E0
2.770270959E0	2.331952572E0	9.241618156E0	2.154781580E0
2.772893096E0	2.521094322E0	9.258378029E0	2.078166962E0
2.774732921E0	2.616862535E0	9.313444138E0	2.025494576E0
2.776889249E0	2.726995707E0	9.394847870E0	2.018311977E0
2.778144459E0	2.889801502E0	9.490615845E0	2.025494576E0
2.780946634E0	3.071760893E0	9.524134636E0	2.025494576E0
2.782851844E0	3.148375273E0	9.488221169E0	1.984793186E0
2.784978057E0	3.126827478E0	9.545681953E0	1.953668594E0
2.786221767E0	3.095702887E0	9.658209801E0	1.960851192E0
2.788889652E0	3.086126089E0	9.756371498E0	1.975216389E0
2.791055421E0	3.102885485E0	9.871294022E0	1.987187386E0
2.793042767E0	3.193865061E0	1.006043530E1	2.018311977E0
2.794311382E0	3.289633036E0	1.020408726E1	2.025494576E0
2.797140095E0	3.246537447E0	1.028070164E1	1.953668594E0
2.799111959E0	3.141192675E0	1.038844109E1	1.884236693E0
2.801169980E0	3.026270866E0	1.049139214E1	1.848323703E0
2.802470690E0	2.877830505E0	1.051293945E1	1.802833915E0
2.805226942E0	2.681505919E0	1.049378586E1	1.747767210E0
2.807255518E0	2.667140722E0	1.050096893E1	1.754949808E0
2.809256903E0	2.738966703E0	1.053927612E1	1.764526606E0
2.810646767E0	2.770091295E0	1.054885292E1	1.759738207E0
2.813254442E0	2.683900118E0	1.045308495E1	1.735796213E0
2.815248672E0	2.501940727E0	1.030224991E1	1.680729628E0
2.817266326E0	2.291250944E0	1.014902115E1	1.620874524E0
2.818547152E0	2.047042370E0	1.000776291E1	1.592144132E0
2.821323826E0	1.821987510E0	9.885659218E0	1.589749932E0
2.823205382E0	1.628057122E0	9.758766174E0	1.618480325E0
2.825354557E0	1.455674648E0	9.581595421E0	1.663970232E0
2.826570652E0	1.319205165E0	9.402029991E0	1.735796213E0
2.829295844E0	1.233013868E0	9.258378029E0	1.865083098E0
2.831425690E0	1.149216771E0	9.069235802E0	1.982398987E0
2.833185805E0	1.151610970E0	8.901641846E0	2.094926596E0
2.834661036E0	1.209071875E0	8.757989883E0	2.176329374E0
2.837498788E0	1.189918280E0	8.590395927E0	2.176329374E0
2.839458152E0	1.192312479E0	8.547300339E0	2.159569979E0
2.841544441E0	1.391031146E0	8.734047890E0	2.217030764E0
2.842799652E0	1.745373011E0	9.064447403E0	2.327163935E0
2.845601672E0	2.114080191E0	9.512163162E0	2.413355350E0
2.847630711E0	2.439691544E0	1.009395409E1	2.523488522E0
2.849632057E0	2.719813108E0	1.076193619E1	2.715024710E0
2.851059459E0	2.966415882E0	1.142752457E1	2.899378300E0
2.853628134E0	3.222595453E0	1.210987186E1	2.942473888E0
2.855622480E0	3.426102638E0	1.270363426E1	2.856282711E0
2.857624403E0	3.464409828E0	1.316092682E1	2.655169725E0
2.858949575E0	3.327940464E0	1.341710663E1	2.384624958E0
2.861681211E0	2.995146275E0	1.343626022E1	2.073378563E0
2.863702728E0	2.547430515E0	1.328063679E1	1.781286120E0
2.865727787E0	2.063801765E0	1.298854446E1	1.493981838E0
2.866965421E0	1.551442742E0	1.255040550E1	1.213860273E0
2.869635613E0	1.060631394E0	1.199973869E1	9.528923035E-1
2.871813787E0	7.948749661E-1	1.146822643E1	7.158663273E-1
2.873697844E0	8.595184088E-1	1.106360626E1	5.243301988E-1
2.875086882E0	1.048660398E0	1.069489861E1	3.447650373E-1
2.877872172E0	1.225831270E0	1.027830791E1	1.604115069E-1
2.879846036E0	1.414973259E0	9.840168953E0	2.154781483E-2
2.881903018E0	1.661576033E0	9.437943459E0	-6.224924326E-2
2.883143228E0	1.951274395E0	9.105149269E0	-8.140286058E-2
2.885960134E0	2.240972757E0	8.836998940E0	-2.394201607E-2
2.887893536E0	2.518700123E0	8.662221909E0	1.101332754E-1
2.890004749E0	2.762908697E0	8.573636055E0	2.944868207E-1
2.891422036E0	2.949656487E0	8.523358345E0	4.932055473E-1
2.894012672E0	3.062183857E0	8.497021675E0	6.871358752E-1
2.895913267E0	3.110068083E0	8.477868080E0	8.738836050E-1
2.898008864E0	3.107673883E0	8.470685959E0	1.072602391E0
2.899336498E0	3.052607059E0	8.432378769E0	1.271321058E0
2.902065710E0	2.908955097E0	8.324639320E0	1.465251446E0
2.904053228E0	2.784456491E0	8.233659744E0	1.635239720E0
2.906097287E0	2.715024710E0	8.255207062E0	1.776497602E0
2.907333959E0	2.698265314E0	8.355764389E0	1.924938202E0
2.909989690E0	2.722207308E0	8.456320763E0	2.104503393E0
2.912141690E0	2.726995707E0	8.518569946E0	2.303221941E0
2.913936228E0	2.631227732E0	8.568847656E0	2.552218914E0
2.915444036E0	2.501940727E0	8.564059258E0	2.691082716E0
2.918256133E0	2.334346771E0	8.532935143E0	2.817975283E0
2.920148998E0	2.161964178E0	8.473079681E0	2.942473888E0
2.922286903E0	1.996764183E0	8.394071579E0	3.071760893E0
2.923533882E0	1.829170108E0	8.293514252E0	3.205836058E0
2.926343749E0	1.680729628E0	8.180987358E0	3.318363667E0
2.928271690E0	1.592144132E0	8.068459511E0	3.416525841E0
2.930375556E0	1.582567334E0	7.989450932E0	3.502717018E0
2.931860959E0	1.608903527E0	7.955932140E0	3.567360640E0
2.934374018E0	1.687912226E0	7.936778545E0	3.634398222E0
2.936269728E0	1.783680320E0	7.936778545E0	3.663128614E0
2.938385095E0	1.805228114E0	7.912836552E0	3.665522814E0
2.939640844E0	1.771709204E0	7.838616371E0	3.651157618E0
2.942443095E0	1.738190413E0	7.711723804E0	3.639186621E0
2.944424652E0	1.714248419E0	7.539340973E0	3.610456228E0
2.946473941E0	1.699883223E0	7.345410824E0	3.555389643E0
2.947800190E0	1.735796213E0	7.149086475E0	3.493140221E0
2.950406728E0	1.810016513E0	6.945579052E0	3.402160645E0
2.952560595E0	1.898601890E0	6.725312710E0	3.284844637E0
2.954453498E0	1.982398987E0	6.526593685E0	3.153163671E0
2.955808344E0	2.051830769E0	6.370970726E0	3.016694069E0
2.958619826E0	2.097320795E0	6.239289761E0	2.880224705E0
2.960561690E0	2.111685991E0	6.129156113E0	2.736572504E0
2.962666210E0	2.090138197E0	6.057330132E0	2.595314741E0
2.963896575E0	2.049436569E0	6.033388138E0	2.463633537E0
2.966723864E0	2.001552582E0	6.054935932E0	2.348711967E0
2.968726036E0	1.951274395E0	6.098031521E0	2.233790159E0
2.970754633E0	1.886630893E0	6.155492783E0	2.123656988E0
2.972170651E0	1.821987510E0	6.272808552E0	2.020706177E0
2.974763056E0	1.781286120E0	6.449979305E0	1.934514999E0
2.976757556E0	1.766920805E0	6.653486729E0	1.865083098E0
2.978760018E0	1.757344007E0	6.871358871E0	1.805228114E0
2.980161190E0	1.759738207E0	7.101202011E0	1.774103403E0
2.982817018E0	1.750161409E0	7.350199223E0	1.757344007E0
2.984797036E0	1.719036818E0	7.606379032E0	1.750161409E0
2.986861902E0	1.663970232E0	7.855375767E0	1.762132406E0
2.988126344E0	1.558625340E0	8.097189903E0	1.790862918E0
2.990753767E0	1.410184860E0	8.312667847E0	1.831564307E0
2.992860151E0	1.292868972E0	8.463502884E0	1.874659896E0
2.994770190E0	1.237802267E0	8.571242332E0	1.922544003E0
2.996182998E0	1.204283476E0	8.690952301E0	1.970427990E0
2.999005056E0	1.168370485E0	8.839392662E0	1.982398987E0
3.000912882E0	1.146822572E0	9.059659004E0	1.960851192E0
3.003035056E0	1.144428372E0	9.342175484E0	1.944091797E0
3.004761344E0	1.003170490E0	9.519346237E0	1.960851192E0
3.007092056E0	7.206547260E-1	9.416395187E0	2.015917778E0
3.009024305E0	3.782838583E-1	8.961497307E0	2.166752577E0
3.011137364E0	4.309562966E-2	8.291120529E0	2.394201756E0
3.012527921E0	-1.053448766E-1	7.802703381E0	2.485181332E0
3.015143979E0	4.548983276E-2	7.848193169E0	2.398990154E0
3.017000036E0	3.591302633E-1	8.453926086E0	2.207453966E0
3.019141095E0	7.589619160E-1	9.349357605E0	2.044648170E0
3.020485651E0	1.197100878E0	1.012507915E1	1.987187386E0
3.023197402E0	1.807622313E0	1.070687008E1	2.097320795E0
3.025088536E0	2.092532396E0	1.084573364E1	2.200271368E0
3.027228095E0	2.262520552E0	1.094389629E1	2.298433542E0
3.028782267E0	2.394201756E0	1.111627865E1	2.346317768E0
3.031141536E0	2.466027737E0	1.133654499E1	2.418143749E0
3.033304075E0	2.422932148E0	1.151611042E1	2.592920542E0
3.035238267E0	2.334346771E0	1.164539719E1	2.758120298E0
3.036654382E0	2.272097349E0	1.174834728E1	2.810792685E0
3.039384864E0	2.214636564E0	1.184411621E1	2.760514498E0
3.041341959E0	2.133233786E0	1.191115379E1	2.612074137E0
3.043414594E0	2.037465572E0	1.196143150E1	2.422932148E0
3.044751344E0	1.948880196E0	1.202607536E1	2.238578558E0
3.047470825E0	1.853112102E0	1.209790134E1	2.106897593E0
3.049481882E0	1.726219416E0	1.214578533E1	1.991975784E0
3.051500864E0	1.561019540E0	1.213860226E1	1.865083098E0
3.053111151E0	1.371877551E0	1.210508347E1	1.707065821E0
3.055498094E0	1.165976286E0	1.206917095E1	1.539471745E0
3.057491402E0	9.935936928E-1	1.213381386E1	1.407790542E0
3.059508248E0	8.355764151E-1	1.225591850E1	1.362300754E0
3.060725613E0	5.985504389E-1	1.229901409E1	1.340752959E0
3.063564633E0	3.232172430E-1	1.224873543E1	1.307234168E0
3.065479421E0	9.576806426E-2	1.214578533E1	1.292868972E0
3.067595325E0	-1.915361360E-2	1.203325748E1	1.290474772E0
3.068866382E0	-4.548983276E-2	1.192791271E1	1.278503656E0
3.071491690E0	-3.830722719E-2	1.180820274E1	1.268926859E0
3.073680325E0	-4.788403213E-2	1.165976238E1	1.237802267E0
3.075406690E0	-7.900865376E-2	1.146822643E1	1.173158884E0
3.076924690E0	-1.244984865E-1	1.123838234E1	1.094150186E0
3.079738594E0	-1.604115069E-1	1.098699188E1	1.051054597E0
3.081659767E0	-1.628057212E-1	1.072602367E1	1.065419793E0
3.083783825E0	-1.388636976E-1	1.047463226E1	1.110909581E0
3.085289536E0	-1.173158810E-1	1.025197124E1	1.163581967E0
3.087841287E0	-9.576806426E-2	1.004367638E1	1.225831270E0
3.089870056E0	-3.351882473E-2	9.844957352E0	1.280897856E0
3.091871364E0	5.985504389E-2	9.667786598E0	1.312022567E0
3.093454421E0	1.651999205E-1	9.514557838E0	1.323993564E0
3.095868940E0	2.992752194E-1	9.392453194E0	1.328781962E0
3.097862594E0	4.525041282E-1	9.299078941E0	1.309628367E0
3.099865825E0	6.009446383E-1	9.212887764E0	1.264138460E0
3.101171228E0	7.493851185E-1	9.136273384E0	1.233013868E0
3.103922402E0	9.169792533E-1	9.081207275E0	1.223437071E0
3.105841959E0	1.094150186E0	9.045293808E0	1.223437071E0
3.107967710E0	1.261744261E0	9.023746490E0	1.233013868E0
3.109242305E0	1.414973259E0	9.006986618E0	1.237802267E0
3.111895074E0	1.577778935E0	8.990227699E0	1.225831270E0
3.114039459E0	1.721431017E0	8.961497307E0	1.233013868E0
3.115960536E0	1.824381709E0	8.930372238E0	1.273715258E0
3.117295767E0	1.924938202E0	8.908824921E0	1.343147159E0
3.120112056E0	2.023100376E0	8.904036522E0	1.405396342E0
3.122015382E0	2.102109194E0	8.908824921E0	1.460463047E0
3.124143286E0	2.147598982E0	8.923190117E0	1.522712231E0
3.125410998E0	2.171540976E0	8.939949036E0	1.601720929E0
3.128200786E0	2.219424963E0	8.975862503E0	1.678335428E0
3.130229863E0	2.236184359E0	9.026140213E0	1.690306425E0
3.132247517E0	2.248155355E0	9.081207275E0	1.675941229E0
3.133746151E0	2.272097349E0	9.148244858E0	1.637633920E0
3.136254748E0	2.272097349E0	9.244012833E0	1.577778935E0
3.138145921E0	2.252943754E0	9.363722801E0	1.503558636E0
3.140250479E0	2.226607561E0	9.461885452E0	1.426944256E0
3.141519267E0	2.181117773E0	9.504981041E0	1.374271750E0
3.144307902E0	2.121262789E0	9.476250648E0	1.362300754E0
3.146198421E0	2.066195965E0	9.409213066E0	1.369483352E0
3.148338633E0	1.987187386E0	9.354146004E0	1.386242747E0
3.149646613E0	1.934514999E0	9.325415611E0	1.393425345E0
3.152395902E0	1.924938202E0	9.325415611E0	1.391031146E0
3.154409805E0	1.929726601E0	9.354146004E0	1.371877551E0
3.156217459E0	1.948880196E0	9.399636269E0	1.335964561E0
3.157670382E0	1.984793186E0	9.435548782E0	1.292868972E0
3.160498748E0	2.030282974E0	9.452308655E0	1.235408068E0
3.162378767E0	2.087743998E0	9.442731857E0	1.168370485E0
3.164529902E0	2.126051188E0	9.409213066E0	1.110909581E0
3.165776690E0	2.152387381E0	9.390059471E0	1.051054597E0
3.168587017E0	2.183511972E0	9.380482674E0	9.888052940E-1
3.170547536E0	2.205059767E0	9.382876396E0	9.026140571E-1
3.172618248E0	2.272097349E0	9.399636269E0	7.996633649E-1
3.174270613E0	2.379836559E0	9.418789864E0	6.943184733E-1
3.176627440E0	2.468421936E0	9.435548782E0	5.937620401E-1
3.178587459E0	2.528276920E0	9.435548782E0	5.147533417E-1
3.180637517E0	2.542642117E0	9.428366661E0	4.692635238E-1
3.181909421E0	2.499546528E0	9.425971985E0	4.429273009E-1
3.184694363E0	2.482787132E0	9.430760384E0	4.189853072E-1
3.186582459E0	2.513911724E0	9.445125580E0	3.615244627E-1
3.188725055E0	2.557007313E0	9.464279175E0	2.825157940E-1
3.190024497E0	2.621650934E0	9.497797966E0	1.867477298E-1
3.192737190E0	2.662352324E0	9.548076630E0	1.029506698E-1
3.194796151E0	2.703053713E0	9.591172218E0	3.112462163E-2
3.196810517E0	2.762908697E0	9.605537415E0	-1.915361360E-2
3.198039267E0	2.810792685E0	9.583989143E0	-4.070143029E-2
3.200866825E0	2.865859509E0	9.531316757E0	-5.506663769E-2
3.202795036E0	2.906560898E0	9.476250648E0	-5.506663769E-2
3.204911863E0	2.920926094E0	9.430760384E0	-4.309562966E-2
3.206220190E0	2.940079689E0	9.390059471E0	-2.394201607E-2
3.208968555E0	2.925714493E0	9.349357605E0	0.000000000E0
3.210918613E0	2.894589901E0	9.306262016E0	3.351882473E-2
3.213000325E0	2.877830505E0	9.248801231E0	6.224924326E-2
3.214625036E0	2.880224705E0	9.184157372E0	1.005564705E-1
3.217007594E0	2.861071110E0	9.138668060E0	1.412578970E-1
3.218911036E0	2.803610086E0	9.119514465E0	1.484405100E-1
3.221002286E0	2.722207308E0	9.141061783E0	1.173158810E-1
3.222363536E0	2.638410330E0	9.212887764E0	7.661445439E-2
3.225058517E0	2.609679937E0	9.301473618E0	5.267243832E-2
3.226983882E0	2.626439333E0	9.380482674E0	4.070143029E-2
3.229103286E0	2.614468336E0	9.416395187E0	3.830722719E-2
3.230385921E0	2.523488522E0	9.380482674E0	7.422025502E-2
3.232997382E0	2.094926596E0	9.050082207E0	2.346317619E-1
3.235128997E0	1.637633920E0	8.698134422E0	3.567360640E-1
3.236984305E0	1.252167463E0	8.386888504E0	4.285621047E-1
3.238532574E0	1.029506683E0	8.195352554E0	4.213795066E-1
3.241246748E0	9.241618514E-1	8.183381081E0	3.375824392E-1
3.243150036E0	9.097966552E-1	8.324639320E0	2.537853718E-1
3.245277363E0	1.015141487E0	8.508993149E0	2.489969730E-1
3.246509151E0	1.247379065E0	8.664615631E0	3.423708379E-1
3.249333786E0	1.400607944E0	8.813055992E0	4.477157295E-1
3.251362248E0	1.453280449E0	8.930372238E0	5.075707436E-1
3.253424286E0	1.532289028E0	8.971074104E0	5.243301988E-1
3.255138536E0	1.613691926E0	8.963891029E0	5.003881454E-1
3.257388440E0	1.714248419E0	8.954314232E0	4.572925270E-1
3.259381651E0	1.805228114E0	8.939949036E0	4.309563041E-1
3.261384632E0	1.872265697E0	8.930372238E0	4.213795066E-1
3.262719267E0	1.893813491E0	8.911218643E0	4.070142806E-1
3.265441324E0	1.869871497E0	8.887276649E0	3.663128614E-1
3.267443151E0	1.833958507E0	8.858546257E0	3.327940404E-1
3.269472440E0	1.826775908E0	8.841787338E0	3.351882398E-1
3.270747382E0	1.855506301E0	8.846575737E0	3.543418646E-1
3.273401497E0	1.922544003E0	8.858546257E0	3.734954596E-1
3.275531882E0	2.013523579E0	8.836998940E0	3.926490843E-1
3.277576247E0	2.070984364E0	8.748413086E0	4.261679053E-1
3.278791651E0	2.104503393E0	8.635885239E0	4.309563041E-1
3.281633324E0	2.099714994E0	8.523358345E0	3.998316824E-1
3.283552690E0	2.056619167E0	8.420407295E0	3.232172430E-1
3.285662978E0	1.991975784E0	8.350975990E0	2.394201756E-1
3.286886497E0	1.953668594E0	8.346187592E0	1.628057212E-1
3.289720594E0	1.951274395E0	8.374917984E0	1.221042871E-1
3.291615882E0	1.948880196E0	8.386888504E0	1.580173075E-1
3.293752286E0	1.946485996E0	8.394071579E0	2.322375625E-1
3.295128036E0	1.920149803E0	8.382100105E0	2.777273953E-1
3.297751363E0	1.924938202E0	8.367734909E0	2.681505978E-1
3.299745670E0	1.970427990E0	8.401253700E0	2.106897533E-1
3.301763017E0	2.013523579E0	8.482656479E0	1.221042871E-1
3.302991690E0	2.037465572E0	8.578424454E0	4.548983276E-2
3.305821324E0	2.042253971E0	8.662221909E0	7.182605099E-3
3.307750113E0	2.025494576E0	8.717288017E0	-3.830722719E-2
3.309851978E0	1.994369984E0	8.757989883E0	-5.267243832E-2
3.311116728E0	1.975216389E0	8.808267593E0	-4.070143029E-2
3.313910132E0	1.958456993E0	8.863334656E0	-4.309562966E-2
3.315922690E0	1.939303398E0	8.939949036E0	-3.591302410E-2
3.317885728E0	1.929726601E0	9.038111687E0	-1.675941236E-2
3.319175805E0	1.939303398E0	9.148244858E0	-1.436521020E-2
3.321999978E0	1.951274395E0	9.267954826E0	-3.591302410E-2
3.323931536E0	1.953668594E0	9.390059471E0	-5.267243832E-2
3.326046709E0	1.946485996E0	9.521739960E0	-5.267243832E-2
3.327545228E0	1.927332401E0	9.665391922E0	-6.224924326E-2
3.330104440E0	1.917755604E0	9.811438560E0	-7.661445439E-2
3.332133786E0	1.898601890E0	9.955090523E0	-7.661445439E-2
3.334134824E0	1.932120800E0	1.011789608E1	-7.422025502E-2
3.335592613E0	2.030282974E0	1.027591324E1	-5.746084079E-2
3.338132440E0	2.133233786E0	1.039322948E1	-5.267243832E-2
3.340126709E0	2.197877169E0	1.049139214E1	-3.351882473E-2
3.342128286E0	2.176329374E0	1.058237171E1	9.576806799E-3
3.343376113E0	2.176329374E0	1.070208168E1	5.746084079E-2
3.346185055E0	2.322375536E0	1.088404083E1	1.364694983E-1
3.348119690E0	2.489969730E0	1.097502041E1	1.939303428E-1
3.350230401E0	2.655169725E0	1.102769279E1	2.633621991E-1
3.351469382E0	2.789244890E0	1.106121159E1	3.615244627E-1
3.354205690E0	2.904166698E0	1.107318306E1	4.692635238E-1
3.356316478E0	3.007117271E0	1.105881786E1	5.793967843E-1
3.358294959E0	3.110068083E0	1.102290440E1	6.799532771E-1
3.359549997E0	3.205836058E0	1.097262669E1	7.709329724E-1
3.362375478E0	3.277662039E0	1.091995430E1	8.523358107E-1
3.364264805E0	3.359065056E0	1.087446404E1	9.121908545E-1
3.366405439E0	3.447650433E0	1.083136845E1	9.457096457E-1
3.367661113E0	3.490746021E0	1.079784966E1	9.864110947E-1
3.370461747E0	3.507505417E0	1.075235939E1	1.031900883E0
3.372381074E0	3.541024208E0	1.068771648E1	1.048660398E0
3.374506709E0	3.600879431E0	1.063025570E1	1.031900883E0
3.375883613E0	3.684676409E0	1.059434223E1	1.000776291E0
3.378513170E0	3.754108191E0	1.055603504E1	9.911994934E-1
3.380507555E0	3.787626982E0	1.051772785E1	1.000776291E0
3.382509709E0	3.804386616E0	1.048420906E1	9.911994934E-1
3.383726767E0	3.845088005E0	1.043632507E1	9.552865028E-1
3.386566901E0	3.902548790E0	1.037647057E1	9.074024558E-1
3.388449920E0	3.974374771E0	1.030943298E1	8.547300100E-1
3.390598093E0	4.019864559E0	1.024478912E1	8.212111592E-1
3.391820497E0	4.048594952E0	1.017535686E1	7.733271718E-1
3.394503113E0	4.084507942E0	1.010831928E1	7.015010715E-1
3.396683324E0	4.144362926E0	1.006282997E1	6.272808313E-1
3.398477074E0	4.211400986E0	1.001733971E1	5.482721925E-1
3.399948151E0	4.273650169E0	9.967061996E0	4.812345505E-1
3.402756670E0	4.333505154E0	9.919178009E0	4.285621047E-1
3.404658420E0	4.376600742E0	9.876082420E0	3.854664862E-1
3.406786208E0	4.393360138E0	9.832986832E0	3.399766386E-1
3.408010382E0	4.434061527E0	9.777919769E0	2.968810201E-1
3.410843093E0	4.520252705E0	9.713275909E0	2.657563984E-1
3.412826036E0	4.584896088E0	9.660603523E0	2.370259613E-1
3.414873555E0	4.594472885E0	9.615114212E0	2.035071403E-1
3.416463843E0	4.587290287E0	9.572018623E0	1.699883193E-1
3.418870901E0	4.580107689E0	9.519346237E0	1.412578970E-1
3.420751343E0	4.572925091E0	9.464279175E0	1.364694983E-1
3.422881785E0	4.560954094E0	9.409213066E0	1.508347094E-1
3.424097843E0	4.532223701E0	9.339780807E0	1.628057212E-1
3.426938478E0	4.458003521E0	9.282320023E0	1.771709323E-1
3.428868151E0	4.338293552E0	9.244012833E0	1.891419291E-1
3.430969631E0	4.225766182E0	9.239224434E0	1.867477298E-1
3.432191343E0	4.146757126E0	9.244012833E0	1.675941199E-1
3.434868920E0	4.096478939E0	9.234436035E0	1.484405100E-1
3.437039843E0	4.048594952E0	9.205705643E0	1.484405100E-1
3.438984497E0	4.012681961E0	9.162610054E0	1.604115069E-1
3.440425959E0	3.976768970E0	9.088389397E0	8.619125932E-2
3.443115247E0	3.912125587E0	8.997409821E0	-6.703764945E-2
3.445024882E0	3.830722809E0	8.930372238E0	-2.609679997E-1
3.447160631E0	3.766079187E0	8.973467827E0	-2.298433632E-1
3.448469459E0	3.667917013E0	9.035717010E0	-8.140286058E-2
3.451217670E0	3.545812607E0	9.085995674E0	9.576806426E-2
3.453143728E0	3.438073635E0	9.117119789E0	2.561795712E-1
3.455249401E0	3.354276657E0	9.141061783E0	3.663128614E-1
3.456715459E0	3.282450438E0	9.148244858E0	4.309563041E-1
3.459256631E0	3.208230257E0	9.121908188E0	4.716577232E-1
3.461122805E0	3.114856482E0	9.090784073E0	4.429273009E-1
3.463253131E0	2.987963676E0	9.078812599E0	2.250549644E-1
3.464626113E0	2.817975283E0	9.026140213E0	1.532289088E-1
3.467309824E0	2.614468336E0	8.954314232E0	2.178723514E-1
3.469206228E0	2.331952572E0	8.899248123E0	1.149216816E-1
3.471354554E0	2.003946781E0	8.880094528E0	-1.173158810E-1
3.472579651E0	1.733402014E0	8.906430244E0	-3.711012602E-1
3.475249997E0	1.577778935E0	9.009381294E0	-6.081272364E-1
3.477389728E0	1.635239720E0	9.196128845E0	-8.236053586E-1
3.479191997E0	2.070984364E0	9.428366661E0	-9.816226959E-1
3.480659420E0	2.817975283E0	9.572018623E0	-9.864110947E-1
3.483499862E0	3.371036053E0	9.703699112E0	-9.911994934E-1
3.485421343E0	3.292027235E0	9.897629738E0	-9.911994934E-1
3.487530824E0	2.880224705E0	1.001973438E1	-4.668693244E-1
3.488875343E0	2.533065319E0	1.012029076E1	2.657563984E-1
3.491587593E0	2.238578558E0	1.029027843E1	7.278373241E-1
3.493616785E0	2.051830769E0	1.036928749E1	1.000776291E0
3.495634054E0	2.003946781E0	1.019929886E1	1.079784989E0
3.497307305E0	2.059013367E0	9.873687744E0	1.024718285E0
3.499640593E0	2.094926596E0	9.651026726E0	9.361328483E-1
3.501513766E0	1.994369984E0	9.576807022E0	9.050082564E-1
3.503635900E0	1.762132406E0	9.449913979E0	8.834604025E-1
3.504869959E0	1.465251446E0	9.198522568E0	7.805097699E-1
3.507692785E0	1.259350061E0	8.959102631E0	6.153098345E-1
3.509662036E0	1.283292055E0	8.884882927E0	4.405331016E-1
3.511722862E0	1.479616642E0	8.937555313E0	3.303998411E-1
3.513001074E0	1.860294700E0	8.975862503E0	3.447650373E-1
3.515643766E0	2.504334927E0	8.961497307E0	5.315127969E-1
3.517807977E0	3.203441858E0	8.918401718E0	8.451532125E-1
3.519648190E0	3.854664803E0	8.872911453E0	1.209071875E0
3.521057113E0	4.314351559E0	8.913613319E0	1.484405041E0
3.523881016E0	4.584896088E0	9.033323288E0	1.678335428E0
3.525856536E0	4.709394932E0	9.143456459E0	1.860294700E0
3.527911823E0	4.783615112E0	9.176975250E0	2.063801765E0
3.529149382E0	4.843470097E0	9.165003777E0	2.260126352E0
3.531969131E0	4.831499100E0	9.153033257E0	2.391807556E0
3.533935459E0	4.709394932E0	9.155426979E0	2.449268341E0
3.536000170E0	4.513070107E0	9.145850182E0	2.434903145E0
3.537625651E0	4.307168961E0	9.129091263E0	2.351106167E0
3.539997862E0	4.120420933E0	9.114726067E0	2.219424963E0
3.541906190E0	3.964797974E0	9.114726067E0	2.049436569E0
3.544008093E0	3.842693806E0	9.136273384E0	1.850717902E0
3.545345266E0	3.746925592E0	9.165003777E0	1.630451322E0
3.548064362E0	3.684676409E0	9.186552048E0	1.403002143E0
3.549954574E0	3.679888010E0	9.198522568E0	1.180341482E0
3.552094323E0	3.720589399E0	9.200917244E0	9.744400978E-1
3.553464190E0	3.773261786E0	9.193734169E0	7.829039693E-1
3.556009959E0	3.840299606E0	9.179368973E0	5.339069963E-1
3.558146690E0	3.873818398E0	9.162610054E0	3.926490843E-1
3.559908959E0	3.883395195E0	9.138668060E0	2.609679997E-1
3.561579343E0	3.873818398E0	9.109937668E0	1.244984865E-1
3.564238939E0	3.847482204E0	9.088389397E0	0.000000000E0
3.566147690E0	3.801992416E0	9.081207275E0	-1.053448766E-1
3.568285439E0	3.703830004E0	9.076418877E0	-2.082955539E-1
3.569551843E0	3.572149038E0	9.059659004E0	-2.944868207E-1
3.572342900E0	3.418920040E0	9.059659004E0	-3.687070608E-1
3.574239074E0	3.253720045E0	9.066842079E0	-4.333505034E-1
3.576374208E0	3.076549292E0	9.064447403E0	-5.075707436E-1
3.577766228E0	2.901772499E0	9.071630478E0	-5.841852427E-1
3.580373669E0	2.753331900E0	9.083600998E0	-6.584054828E-1
3.582270113E0	2.628833532E0	9.107542992E0	-7.517793179E-1
3.584370977E0	2.497152328E0	9.126696587E0	-8.690952063E-1
3.585599843E0	2.343923569E0	9.141061783E0	-1.000776291E0
3.588429092E0	2.190694571E0	9.162610054E0	-1.130063176E0
3.590354305E0	2.059013367E0	9.191340446E0	-1.240196466E0
3.592475823E0	1.984793186E0	9.220070839E0	-1.316810966E0
3.593835536E0	1.980004787E0	9.234436035E0	-1.359906554E0
3.596474574E0	1.975216389E0	9.220070839E0	-1.359906554E0
3.598527766E0	1.970427990E0	9.200917244E0	-1.314416766E0
3.600364613E0	1.968033791E0	9.193734169E0	-1.254561663E0
3.601801690E0	1.970427990E0	9.198522568E0	-1.201889277E0
3.604623400E0	1.982398987E0	9.196128845E0	-1.163581967E0
3.606524151E0	1.982398987E0	9.188945770E0	-1.137245774E0
3.608654785E0	1.946485996E0	9.184157372E0	-1.098938584E0
3.609950574E0	1.898601890E0	9.184157372E0	-1.012747288E0
3.612712400E0	1.877054095E0	9.186552048E0	-8.978256583E-1
3.614664536E0	1.893813491E0	9.191340446E0	-8.140285611E-1
3.616757708E0	1.939303398E0	9.179368973E0	-7.613561153E-1
3.618181728E0	1.989581585E0	9.141061783E0	-7.038952708E-1
3.620766631E0	2.073378563E0	9.097966194E0	-6.775590777E-1
3.622659920E0	2.193088770E0	9.064447403E0	-7.206547260E-1
3.624763361E0	2.286462545E0	9.026140213E0	-7.852981687E-1
3.625991766E0	2.310404539E0	8.975862503E0	-8.188169599E-1
3.628820746E0	2.293645144E0	8.937555313E0	-7.876923680E-1
3.630747266E0	2.205059767E0	8.911218643E0	-7.398083210E-1
3.632851054E0	2.075772762E0	8.911218643E0	-6.823474765E-1
3.634198151E0	2.080561161E0	8.966285706E0	-5.841852427E-1
3.636813651E0	2.157175779E0	9.038111687E0	-4.884171486E-1
3.638909074E0	2.152387381E0	9.097966194E0	-4.046200812E-1
3.640902651E0	2.128445387E0	9.172186852E0	-3.184288144E-1
3.642201766E0	2.118868589E0	9.272743225E0	-2.489969730E-1
3.645010900E0	2.087743998E0	9.380482674E0	-1.987187415E-1
3.647003382E0	2.051830769E0	9.500192642E0	-1.580173075E-1
3.649041169E0	2.032677174E0	9.622296333E0	-1.197100878E-1
3.650323113E0	1.996764183E0	9.742006302E0	-1.053448766E-1
3.653097823E0	1.948880196E0	9.849745750E0	-8.858546615E-2
3.655126708E0	1.821987510E0	9.964667320E0	-9.576806799E-3
3.657128554E0	1.738190413E0	1.001733971E1	3.591302410E-2
3.658555459E0	1.666364431E0	1.009634876E1	4.788403213E-2
3.661123938E0	1.584961534E0	1.020887566E1	1.675941236E-2
3.663017920E0	1.472434044E0	1.034295177E1	-2.154781483E-2
3.665135092E0	1.314416766E0	1.046984386E1	-4.788403213E-2
3.666405189E0	1.125274777E0	1.057518864E1	-6.703764945E-2
3.669192015E0	9.217676520E-1	1.067574501E1	-8.619125932E-2
3.671123382E0	7.326257229E-1	1.077151299E1	-1.053448766E-1
3.673223477E0	5.889736414E-1	1.085052204E1	-1.316810995E-1
3.674567266E0	4.860229492E-1	1.090558910E1	-1.795651317E-1
3.677127459E0	3.830722570E-1	1.094868469E1	-2.250549644E-1
3.679287651E0	3.088520169E-1	1.097262669E1	-2.513911724E-1
3.681310707E0	2.777273953E-1	1.099178028E1	-2.633621991E-1
3.682680113E0	2.322375625E-1	1.098459721E1	-2.777273953E-1
3.685367438E0	7.661445439E-2	1.095107841E1	-2.896983922E-1
3.687279459E0	-1.843535304E-1	1.092953110E1	-3.088520169E-1
3.689413438E0	-4.501099288E-1	1.091995430E1	-2.825157940E-1
3.690649843E0	-6.655880809E-1	1.093192482E1	-2.130839527E-1
3.693470554E0	-8.355764151E-1	1.094629002E1	-1.580173075E-1
3.695386113E0	-9.672574997E-1	1.096544361E1	-1.412578970E-1
3.697500669E0	-1.070208192E0	1.096304989E1	-1.412578970E-1
3.698909574E0	-1.161187768E0	1.091755962E1	-1.508347094E-1
3.701508784E0	-1.240196466E0	1.086967564E1	-1.532289088E-1
3.703463959E0	-1.312022567E0	1.081700325E1	-1.508347094E-1
3.705503938E0	-1.391031146E0	1.077630138E1	-1.364694983E-1
3.706737613E0	-1.474828243E0	1.073320580E1	-1.101332754E-1
3.709560400E0	-1.551442742E0	1.067813969E1	-6.703764945E-2
3.711473036E0	-1.618480325E0	1.061349583E1	-1.675941236E-2
3.713605169E0	-1.685518026E0	1.054885292E1	3.591302410E-2
3.714860074E0	-1.740584612E0	1.049139214E1	8.858546615E-2
3.717505112E0	-1.764526606E0	1.044829655E1	1.388636976E-1
3.719689746E0	-1.778891921E0	1.039322948E1	1.915361285E-1
3.721433959E0	-1.810016513E0	1.032858658E1	2.585737705E-1
3.722924728E0	-1.862688899E0	1.027591324E1	3.256114423E-1
3.725747592E0	-1.932120800E0	1.021605873E1	3.974374831E-1
3.727668420E0	-1.994369984E0	1.015141487E1	4.740519226E-1
3.729778592E0	-2.035071373E0	1.010592556E1	5.530605912E-1
3.731064843E0	-2.063801765E0	1.008677197E1	6.248866320E-1
3.733834784E0	-2.087743998E0	1.007958889E1	6.991068721E-1
3.735845689E0	-2.118868589E0	1.007240677E1	7.685387731E-1
3.737880476E0	-2.142810583E0	1.007958889E1	8.283938169E-1
3.739348574E0	-2.178723574E0	1.010353088E1	8.714894056E-1
3.741886476E0	-2.229001760E0	1.013465595E1	9.074024558E-1
3.743776651E0	-2.269703150E0	1.017535686E1	9.552865028E-1
3.745881823E0	-2.293645144E0	1.021605873E1	9.983820915E-1
3.747440305E0	-2.319981337E0	1.026154804E1	1.022324085E0
3.749938361E0	-2.343923569E0	1.031422138E1	1.034295082E0
3.751832266E0	-2.339135170E0	1.037168217E1	1.048660398E0
3.753968899E0	-2.300827742E0	1.043632507E1	1.060631394E0
3.755197920E0	-2.267308950E0	1.048660374E1	1.070208192E0
3.757877112E0	-2.240972757E0	1.053927612E1	1.067813993E0
3.760028574E0	-2.205059767E0	1.059673691E1	1.060631394E0
3.762036036E0	-2.152387381E0	1.065898609E1	1.053448796E0
3.763433766E0	-2.078166962E0	1.072602367E1	1.036689281E0
3.766123822E0	-1.934514999E0	1.081700325E1	1.012747288E0
3.768023036E0	-1.819593310E0	1.085770512E1	1.010353088E0
3.770152092E0	-1.699883223E0	1.089122391E1	1.019929886E0
3.771388459E0	-1.613691926E0	1.091755962E1	1.041477680E0
3.774206630E0	-1.515529633E0	1.097023201E1	1.029506683E0
3.776118997E0	-1.355118155E0	1.104205799E1	9.864110947E-1
3.778235669E0	-1.185129881E0	1.108994198E1	9.696516991E-1
3.779760036E0	-1.051054597E0	1.114022064E1	9.528923035E-1
3.782231976E0	-9.457096457E-1	1.119049835E1	9.241618514E-1
3.784200036E0	-8.523358107E-1	1.124077702E1	9.050082564E-1
3.786240976E0	-7.613561153E-1	1.127668953E1	8.786720037E-1
3.787517497E0	-6.847416759E-1	1.131739140E1	8.595184088E-1
3.790297361E0	-5.985504389E-1	1.135569859E1	8.475474119E-1
3.792213612E0	-5.027823448E-1	1.137006378E1	8.547300100E-1
3.794326822E0	-4.118026793E-1	1.138203526E1	8.523358107E-1
3.795551997E0	-3.112462163E-1	1.139640045E1	8.523358107E-1
3.798240612E0	-2.298433632E-1	1.139400578E1	8.667010069E-1
3.800388843E0	-2.154781520E-1	1.137964058E1	8.930372596E-1
3.802206382E0	-1.604115069E-1	1.141794777E1	9.169792533E-1
3.803660651E0	-9.816227108E-2	1.147780323E1	9.433154464E-1
3.806468092E0	-1.029506698E-1	1.150174522E1	8.547300100E-1
3.808387266E0	-6.703764945E-2	1.146343803E1	6.991068721E-1
3.810512361E0	5.027823523E-2	1.139161205E1	5.578489900E-1
3.811936805E0	2.202665508E-1	1.134133339E1	5.171475410E-1
3.814567668E0	3.830722570E-1	1.133654499E1	5.171475410E-1
3.816549843E0	4.189853072E-1	1.130781460E1	1.484405100E-1
3.818597130E0	3.232172430E-1	1.123838234E1	1.292868853E-1
3.820059189E0	-5.985504389E-2	1.088404083E1	-8.092401624E-1
3.822593284E0	-1.860294700E0	8.406042099E0	-1.092474270E1
3.824577920E0	-4.560954094E0	4.867412090E0	-2.303700829E1
3.826587168E0	-5.159504890E0	3.993528366E0	-2.117192650E1
3.827824843E0	-4.091690540E0	5.944802761E0	-1.197819138E1
3.830642091E0	-2.810792685E0	8.293514252E0	-3.948038578E0
3.832639959E0	-1.649604917E0	9.710882187E0	1.036689281E0
3.834686591E0	-3.950432837E-1	1.038125896E1	4.170699596E0
3.835907959E0	1.003170490E0	1.087685871E1	6.569689274E0
3.838605497E0	2.343923569E0	1.137724686E1	8.157045364E0
3.840745420E0	3.488351822E0	1.174834728E1	9.050082207E0
3.842674151E0	4.367023945E0	1.193509579E1	9.442731857E0
3.844110612E0	4.855441093E0	1.202368069E1	9.639056206E0
3.846826745E0	4.922478676E0	1.217690945E1	9.995792389E0
3.848738728E0	4.786009312E0	1.239957047E1	1.042435455E1
3.850856361E0	4.395754337E0	1.261504841E1	1.060631371E1
3.852113535E0	3.684676409E0	1.273236465E1	1.039562416E1
3.854912168E0	2.846705914E0	1.265814400E1	9.672574997E0
3.856940322E0	2.200271368E0	1.246660805E1	8.667010307E0
3.859001899E0	1.879448295E0	1.222239971E1	7.582436562E0
3.860446535E0	1.699883223E0	1.200213337E1	6.378153324E0
3.862964553E0	1.259350061E0	1.195664310E1	4.766855717E0
3.864927959E0	4.309563041E-1	1.212184334E1	2.817975283E0
3.866959630E0	-2.442085743E-1	1.229183197E1	1.072602391E0
3.868206382E0	-4.357447028E-1	1.230380249E1	-1.125274822E-1
3.871014437E0	-3.567360640E-1	1.215057373E1	-7.015010715E-1
3.873041899E0	-2.274491638E-1	1.187524033E1	-7.852981687E-1
3.875042976E0	-9.576806799E-3	1.152568722E1	-5.123591423E-1
3.876481189E0	4.812345505E-1	1.113543224E1	-1.029506698E-1
3.879000305E0	1.508347034E0	1.066377449E1	6.560112834E-1
3.881125899E0	2.001552582E0	1.044111347E1	1.321599364E0
3.882875728E0	2.209848166E0	1.017056847E1	2.092532396E0
3.884513766E0	1.929726601E0	9.880870819E0	2.789244890E0
3.887197014E0	1.201889277E0	9.677363396E0	3.256114244E0
3.889159459E0	4.094084799E-1	9.564835548E0	3.394978046E0
3.891226091E0	-9.576806426E-2	9.471462250E0	3.172317266E0
3.892543728E0	-2.609679997E-1	9.392453194E0	2.949656487E0
3.895282053E0	-4.285621047E-1	9.504981041E0	2.671929121E0
3.897214497E0	-4.932055473E-1	9.629479408E0	2.118868589E0
3.899311822E0	-1.532289088E-1	9.519346237E0	1.759738207E0
3.900734843E0	4.788403511E-1	9.275136948E0	1.534683347E0
3.903308322E0	1.185129881E0	8.975862503E0	1.367089152E0
3.905301899E0	1.898601890E0	8.655038834E0	1.261744261E0
3.907318514E0	2.547430515E0	8.370129585E0	1.168370485E0
3.908615305E0	2.944868088E0	8.164227486E0	1.086967587E0
3.911374283E0	3.145981073E0	7.965508938E0	1.185129881E0
3.913402668E0	3.241749048E0	7.759607792E0	1.412579060E0
3.915404514E0	3.263296843E0	7.584830761E0	1.668758631E0
3.916722228E0	3.275267839E0	7.450755596E0	2.018311977E0
3.919417920E0	3.351882458E0	7.307103634E0	2.446874142E0
3.921490745E0	3.088520288E0	7.266402245E0	2.451662540E0
3.923399382E0	2.339135170E0	7.307103634E0	2.303221941E0
3.924822035E0	1.695094824E0	7.314286232E0	2.331952572E0
3.927551014E0	1.333570361E0	7.297526836E0	2.475604534E0
3.929447997E0	1.115697980E0	7.304709435E0	2.636016130E0
3.931595783E0	1.015141487E0	7.354987621E0	2.798821688E0
3.932785189E0	1.005564690E0	7.400477409E0	2.889801502E0
3.935652206E0	1.046266198E0	7.424419403E0	2.942473888E0
3.937505997E0	1.108515382E0	7.457938194E0	2.999934673E0
3.939683360E0	1.146822572E0	7.515398979E0	3.062183857E0
3.941021343E0	1.180341482E0	7.596801758E0	3.098097086E0
3.943691053E0	1.244984865E0	7.704541206E0	3.095702887E0
3.945587805E0	1.376665950E0	7.797914982E0	3.100491285E0
3.947686668E0	1.465251446E0	7.886500359E0	3.014299870E0
3.948913305E0	1.400607944E0	8.039729118E0	2.822763920E0
3.951742629E0	1.225831270E0	8.176198959E0	2.655169725E0
3.953624382E0	1.144428372E0	8.303091049E0	2.568978310E0
3.955788091E0	1.209071875E0	8.415618896E0	2.542642117E0
3.957019805E0	1.319205165E0	8.506598473E0	2.516305923E0
3.959665805E0	1.429338455E0	8.590395927E0	2.485181332E0
3.961809920E0	1.510741234E0	8.671798706E0	2.470816135E0
3.963606420E0	1.556231141E0	8.757989883E0	2.454056740E0
3.965117882E0	1.594538331E0	8.834604263E0	2.430114746E0
3.967929552E0	1.637633920E0	8.899248123E0	2.466027737E0
3.969901997E0	1.692700624E0	8.935160637E0	2.566584110E0
3.971959514E0	1.742978811E0	8.939949036E0	2.662352324E0
3.973253228E0	1.795651317E0	8.985439301E0	2.703053713E0
3.976015591E0	1.814804912E0	9.071630478E0	2.679111719E0
3.978043822E0	1.778891921E0	9.133879662E0	2.645592928E0
3.980060745E0	1.728613615E0	9.162610054E0	2.612074137E0
3.981597382E0	1.673547029E0	9.196128845E0	2.566584110E0
3.984067976E0	1.635239720E0	9.236829758E0	2.525882721E0
3.985921266E0	1.611297727E0	9.279925346E0	2.497152328E0
3.988063399E0	1.604115129E0	9.318233490E0	2.461239338E0
3.989309920E0	1.623268723E0	9.339780807E0	2.432508945E0
3.992119745E0	1.436521053E0	9.351752281E0	2.288856745E0
3.994000882E0	1.055842996E0	9.418789864E0	2.085349798E0
3.996150399E0	5.458779931E-1	9.552865028E0	1.860294700E0
3.997362958E0	7.900865376E-2	9.686940193E0	1.654393315E0
4.000075612E0	-2.825157940E-1	9.799467087E0	1.484405041E0
4.002235514E0	-5.315127969E-1	9.856928825E0	1.395819545E0
4.004111920E0	-6.105214357E-1	9.856928825E0	1.398213744E0
4.005501035E0	-5.817909837E-1	9.811438560E0	1.403002143E0
4.008308783E0	-5.434837937E-1	9.753977776E0	1.379060149E0
4.010178997E0	-4.812345505E-1	9.689333916E0	1.388636947E0
4.012338437E0	-3.974374831E-1	9.612719536E0	1.412579060E0
4.013631689E0	-3.184288144E-1	9.526528358E0	1.431732655E0
4.016394283E0	-2.729389966E-1	9.442731857E0	1.448492050E0
4.018299843E0	-2.250549644E-1	9.380482674E0	1.470039845E0
4.020423668E0	-1.532289088E-1	9.339780807E0	1.503558636E0
4.022145997E0	-8.619125932E-2	9.296685219E0	1.596932530E0
4.024420668E0	9.576806799E-3	9.220070839E0	1.728613615E0
4.026300497E0	1.556231081E-1	9.143456459E0	1.867477298E0
4.028431283E0	3.399766386E-1	9.062053680E0	2.001552582E0
4.029687689E0	5.339069963E-1	8.963891029E0	2.130839586E0
4.032486898E0	7.015010715E-1	8.863334656E0	2.274491549E0
4.034376382E0	8.379706144E-1	8.786720276E0	2.394201756E0
4.036516975E0	9.457096457E-1	8.700529099E0	2.511517525E0
4.037746458E0	1.077390790E0	8.580819130E0	2.669534922E0
4.040466881E0	1.268926859E0	8.422801971E0	2.820369720E0
4.042601228E0	1.441309452E0	8.264783859E0	2.932897091E0
4.044513689E0	1.450886250E0	8.183381081E0	2.968810081E0
4.045844843E0	1.189918280E0	8.240841866E0	2.894589901E0
4.048660168E0	6.440402865E-1	8.427590370E0	2.760514498E0
4.050670420E0	4.548983276E-2	8.635885239E0	2.657563925E0
4.052704014E0	-3.950432837E-1	8.786720276E0	2.609679937E0
4.054038497E0	-6.775590777E-1	8.875306129E0	2.595314741E0
4.056759244E0	-8.643068075E-1	8.892065048E0	2.614468336E0
4.058665420E0	-9.696516991E-1	8.896853447E0	2.657563925E0
4.060788360E0	-1.000776291E0	8.901641846E0	2.726995707E0
4.062315151E0	-9.768342972E-1	8.896853447E0	2.817975283E0
4.064785591E0	-9.002198577E-1	8.870517731E0	2.920926094E0
4.066643805E0	-7.900865674E-1	8.805873871E0	3.011905670E0
4.068781129E0	-6.296750307E-1	8.714894295E0	3.114856482E0
4.070024112E0	-3.351882398E-1	8.609549522E0	3.251325846E0
4.072836744E0	9.097966552E-2	8.470685959E0	3.387795448E0
4.074751958E0	3.591302633E-1	8.350975990E0	3.466804028E0
4.076882706E0	3.040636182E-1	8.279149055E0	3.514688015E0
4.078312881E0	2.322375625E-1	8.339004517E0	3.538630009E0
4.080801112E0	2.035071403E-1	8.468291283E0	3.533841610E0
4.082966591E0	1.723825186E-1	8.578424454E0	3.488351822E0
4.084905805E0	1.388636976E-1	8.655038834E0	3.435679436E0
4.086270151E0	1.197100878E-1	8.722076416E0	3.387795448E0
4.089025014E0	9.816227108E-2	8.789113998E0	3.315969467E0
4.090925651E0	5.027823523E-2	8.844181061E0	3.234566450E0
4.093055552E0	-9.576806426E-2	8.834604263E0	3.186682463E0
4.094294535E0	-2.130839527E-1	8.856152534E0	3.134010077E0
4.097112360E0	-8.858546615E-2	9.026140213E0	3.014299870E0
4.099073420E0	9.097966552E-2	9.112331390E0	2.956839085E0
4.101158590E0	2.178723514E-1	9.124302864E0	2.959233284E0
4.102556805E0	3.184288144E-1	9.102754593E0	2.973598480E0
4.105166821E0	5.219359994E-1	9.136273384E0	2.940079689E0
4.107014035E0	7.158663273E-1	9.184157372E0	2.894589901E0
4.109163513E0	7.517793179E-1	9.224859238E0	2.849100113E0
4.110396805E0	6.392518282E-1	9.270348549E0	2.786850691E0
4.113219513E0	5.506663918E-1	9.339780807E0	2.726995707E0
4.115121958E0	5.003881454E-1	9.387664795E0	2.681505919E0
4.117249590E0	4.932055473E-1	9.423578262E0	2.662352324E0
4.118505728E0	5.626373887E-1	9.449913979E0	2.664746523E0
4.121161728E0	7.565677166E-1	9.504981041E0	2.669534922E0
4.123293574E0	9.002198577E-1	9.524134636E0	2.645592928E0
4.125114689E0	9.624691010E-1	9.473855972E0	2.643198729E0
4.126598574E0	9.840168953E-1	9.416395187E0	2.700659513E0
4.129406090E0	9.768342972E-1	9.382876396E0	2.899378300E0
4.131408843E0	1.079784989E0	9.325415611E0	3.208230257E0
4.133436090E0	1.338358760E0	9.215282440E0	3.529053211E0
4.134675151E0	1.711854219E0	9.066842079E0	3.799597979E0
4.137491744E0	2.138022184E0	8.935160637E0	3.998316765E0
4.139362381E0	2.497152328E0	8.841787338E0	4.134786129E0
4.141521283E0	2.748543501E0	8.808267593E0	4.175487995E0
4.142908497E0	2.992752075E0	8.769960403E0	4.074931145E0
4.145517436E0	3.251325846E0	8.681375504E0	3.830722809E0
4.147384574E0	3.440467834E0	8.628703117E0	3.502717018E0
4.149527475E0	3.567360640E0	8.633491516E0	3.141192675E0
4.150778997E0	3.552995205E0	8.700529099E0	2.858676910E0
4.153583052E0	3.339911461E0	8.710105896E0	2.638410330E0
4.155611244E0	3.069366693E0	8.710105896E0	2.051830769E0
4.157611629E0	2.873042107E0	8.825027466E0	1.462857246E0
4.158868112E0	2.791639090E0	8.894459724E0	1.130063176E0
4.161514843E0	2.762908697E0	8.868123055E0	9.768342972E-1
4.163667151E0	2.846705914E0	8.877699852E0	7.541735172E-1
4.165493651E0	2.920926094E0	8.899248123E0	4.118026793E-1
4.166933958E0	2.947262287E0	8.882488251E0	1.292868853E-1
4.169753436E0	2.959233284E0	8.863334656E0	-6.464344263E-2
4.171722689E0	3.002328873E0	8.851364136E0	-2.082955539E-1
4.173796859E0	3.086126089E0	8.851364136E0	-2.968810201E-1
4.175043689E0	3.215412855E0	8.829815865E0	-3.399766386E-1
4.177851744E0	3.406949043E0	8.781931877E0	-3.639186621E-1
4.179879052E0	3.624821424E0	8.736441612E0	-3.878606856E-1
4.181880359E0	3.768473387E0	8.731653214E0	-4.165911078E-1
4.183280728E0	3.651157618E0	8.851364136E0	-5.363011956E-1
4.185888167E0	3.351882458E0	8.999804497E0	-6.200982332E-1
4.187780112E0	3.026270866E0	9.052476883E0	-5.650315881E-1
4.189881667E0	2.863465309E0	9.052476883E0	-4.381389022E-1
4.191089458E0	2.959233284E0	9.042900085E0	-2.777273953E-1
4.193938629E0	3.253720045E0	9.026140213E0	-7.182604820E-2
4.195860228E0	3.632004023E0	9.002198219E0	1.819593310E-1
4.197983244E0	4.043806553E0	8.966285706E0	4.740519226E-1
4.199206766E0	4.402936935E0	8.927978516E0	7.972691655E-1
4.201855766E0	4.537012100E0	8.904036522E0	1.113303781E0
4.204012228E0	4.414907932E0	9.004592896E0	1.501164436E0
4.205797574E0	4.187458992E0	9.131484985E0	1.683123827E0
4.207282074E0	3.847482204E0	9.277531624E0	1.769315004E0
4.210125975E0	3.392583847E0	9.459490776E0	1.740584612E0
4.211992920E0	2.777273893E0	9.684545517E0	1.659181833E0
4.214156513E0	1.982398987E0	9.933543205E0	1.613691926E0
4.215378112E0	1.154005170E0	1.015141487E1	1.587355733E0
4.218213128E0	4.668693244E-1	1.028070164E1	1.532289028E0
4.220141304E0	-6.224924326E-2	1.033816338E1	1.453280449E0
4.222257667E0	-4.908113480E-1	1.037886429E1	1.350329757E0
4.223778035E0	-8.212111592E-1	1.044111347E1	1.237802267E0
4.226264552E0	-1.065419793E0	1.052969933E1	1.139639974E0
4.228116997E0	-1.264138460E0	1.060631371E1	1.058237195E0
4.230259821E0	-1.448492050E0	1.064701462E1	1.007958889E0
4.231491343E0	-1.620874524E0	1.066377449E1	9.744400978E-1
4.234315821E0	-1.776497602E0	1.065898609E1	9.672574997E-1
4.236195997E0	-1.908178806E0	1.064222622E1	9.840168953E-1
4.238344782E0	-1.999158382E0	1.061828423E1	1.027112484E0
4.239555228E0	-2.051830769E0	1.058716011E1	1.065419793E0
4.242357535E0	-2.070984364E0	1.055603504E1	1.096544385E0
4.244428667E0	-2.070984364E0	1.053209305E1	1.142034173E0
4.246292766E0	-2.054224968E0	1.050096893E1	1.204283476E0
4.247659381E0	-2.008735180E0	1.045787334E1	1.292868972E0
4.250500898E0	-1.934514999E0	1.040520096E1	1.391031146E0
