"Time (s)"	"Gyroscope x (rad/s)"	"Gyroscope y (rad/s)"	"Gyroscope z (rad/s)"
1.208846100E-2	5.060006306E-2	4.229099751E-1	-2.013349831E-1
1.486622100E-2	5.060006306E-2	4.229099751E-1	-2.013349831E-1
1.622226900E-2	5.060006306E-2	4.229099751E-1	-2.013349831E-1
1.895999100E-2	5.060006306E-2	4.229099751E-1	-2.013349831E-1
2.095061500E-2	5.060006306E-2	4.229099751E-1	-2.013349831E-1
2.301506800E-2	5.060006306E-2	4.229099751E-1	-2.013349831E-1
2.453234600E-2	5.060006306E-2	4.229099751E-1	-2.013349831E-1
2.703410600E-2	5.060006306E-2	4.229099751E-1	-2.013349831E-1
2.897773100E-2	5.060006306E-2	4.229099751E-1	-2.013349831E-1
3.104556800E-2	5.060006306E-2	4.229099751E-1	-2.013349831E-1
3.253742300E-2	5.060006306E-2	4.229099751E-1	-2.013349831E-1
3.510352900E-2	5.060006306E-2	4.229099751E-1	-2.013349831E-1
3.713322100E-2	5.060006306E-2	4.229099751E-1	-2.013349831E-1
3.913537500E-2	5.060006306E-2	4.229099751E-1	-2.013349831E-1
4.052111500E-2	5.060006306E-2	4.229099751E-1	-2.013349831E-1
4.307619200E-2	5.060006306E-2	4.229099751E-1	-2.013349831E-1
4.522287500E-2	3.014698327E-1	1.794970632E-1	-2.114549875E-1
4.722526000E-2	3.243730366E-1	1.997370869E-1	-2.135855258E-1
4.863538400E-2	3.451456726E-1	2.178465873E-1	-2.162486911E-1
5.128283700E-2	3.653857112E-1	2.311623842E-1	-2.194444835E-1
5.322323100E-2	3.845604658E-1	2.348908186E-1	-2.237055302E-1
5.532868300E-2	4.021373391E-1	2.370213419E-1	-2.253034264E-1
5.654815400E-2	4.218447208E-1	2.311623842E-1	-2.295644879E-1
5.938602900E-2	4.484763443E-1	2.178465873E-1	-2.327602804E-1
6.135011500E-2	4.644553065E-1	2.008023560E-1	-2.338255495E-1
6.341764400E-2	4.799016416E-1	1.789644361E-1	-2.391518652E-1
6.483588400E-2	4.953479767E-1	1.496696621E-1	-2.364887148E-1
6.742649000E-2	5.065332651E-1	1.230380461E-1	-2.375539690E-1
6.931930700E-2	5.187838078E-1	9.374327213E-2	-2.380866110E-1
7.142352900E-2	5.241101384E-1	6.125270575E-2	-2.311623842E-1
7.269900000E-2	5.251753926E-1	3.249056637E-2	-2.300971150E-1
7.548202900E-2	5.246427655E-1	4.261057824E-3	-2.253034264E-1
7.743761500E-2	5.209143162E-1	-2.183792181E-2	-2.242381722E-1
7.952818300E-2	5.155879855E-1	-4.261057824E-2	-2.210423797E-1
8.090023000E-2	5.044026971E-1	-6.498113275E-2	-2.178465873E-1
8.349230700E-2	4.905542731E-1	-8.628641814E-2	-2.146507949E-1
8.561506700E-2	4.745753109E-1	-1.038632840E-1	-2.114549875E-1
8.746973000E-2	4.591289759E-1	-1.251685768E-1	-2.082591951E-1
8.892180700E-2	4.351605177E-1	-1.454086006E-1	-2.071939409E-1
9.167545200E-2	4.101268053E-1	-1.683117896E-1	-2.050634027E-1
9.370483600E-2	3.850930929E-1	-1.885518134E-1	-2.013349831E-1
9.570779800E-2	3.568635881E-1	-2.077265680E-1	-1.981391907E-1
9.697600000E-2	3.296993375E-1	-2.300971150E-1	-1.922802329E-1
9.976599000E-2	3.051982522E-1	-2.514024079E-1	-1.885518134E-1
1.017224610E-1	2.759034932E-1	-2.716424465E-1	-1.832254827E-1
1.038124520E-1	2.455434501E-1	-2.934803665E-1	-1.768338978E-1
1.055180000E-1	2.141181529E-1	-3.142530024E-1	-1.709749401E-1
1.078201440E-1	1.864212751E-1	-3.376888335E-1	-1.645833552E-1
1.097732300E-1	1.608549356E-1	-3.616572917E-1	-1.576591432E-1
1.118183360E-1	1.358212233E-1	-3.877562582E-1	-1.549959779E-1
1.131509230E-1	1.102548689E-1	-4.154531360E-1	-1.459412277E-1
1.158764900E-1	8.735168725E-2	-4.399542212E-1	-1.427454352E-1
1.178108070E-1	6.657902896E-2	-4.633900523E-1	-1.331580579E-1
1.199084520E-1	4.846953228E-2	-4.836300611E-1	-1.288969964E-1
1.211940380E-1	3.036003746E-2	-4.996090233E-1	-1.246359423E-1
1.238480000E-1	1.704423130E-2	-5.123922229E-1	-1.193096191E-1
1.259959130E-1	4.793690052E-3	-5.209143162E-1	-1.145159304E-1
1.280127210E-1	-7.989482954E-3	-5.262406468E-1	-1.123853996E-1
1.292660770E-1	-1.597896591E-2	-5.278385282E-1	-1.102548689E-1
1.320711440E-1	-1.864212751E-2	-5.246427655E-1	-1.091896072E-1
1.340099610E-1	-2.290318534E-2	-5.209143162E-1	-1.097222418E-1
1.361025670E-1	-2.503371425E-2	-5.107942820E-1	-1.134506613E-1
1.374353840E-1	-2.343581803E-2	-5.001416802E-1	-1.155811921E-1
1.401608360E-1	-2.237055451E-2	-4.862932265E-1	-1.203748807E-1
1.420907300E-1	-1.917476021E-2	-4.692489803E-1	-1.272991002E-1
1.441921440E-1	-1.278317347E-2	-4.522047639E-1	-1.342233270E-1
1.455879610E-1	-3.728425596E-3	-4.324973822E-1	-1.432780623E-1
1.481926820E-1	5.326322280E-3	-4.090615511E-1	-1.549959779E-1
1.501070380E-1	1.225054078E-2	-3.861583769E-1	-1.651159972E-1
1.522056060E-1	2.237055451E-2	-3.600593805E-1	-1.763012707E-1
1.534711540E-1	3.515372798E-2	-3.339604139E-1	-1.842907518E-1
1.562633750E-1	4.474110901E-2	-3.131877482E-1	-1.938781291E-1
1.582497690E-1	5.752427876E-2	-2.934803665E-1	-2.055960447E-1
1.602953750E-1	6.338323653E-2	-2.759034932E-1	-2.125202566E-1
1.615581920E-1	7.456851006E-2	-2.604571581E-1	-2.221076339E-1
1.643534520E-1	8.628641814E-2	-2.466087192E-1	-2.311623842E-1
1.663827590E-1	9.108011425E-2	-2.402171344E-1	-2.386192381E-1
1.682410380E-1	1.017327532E-1	-2.359560728E-1	-2.428802997E-1
1.696613070E-1	1.075917110E-1	-2.343581766E-1	-2.455434501E-1
1.724444900E-1	1.118527651E-1	-2.354234457E-1	-2.444781959E-1
1.743922690E-1	1.166464612E-1	-2.364887148E-1	-2.471413612E-1
1.764903750E-1	1.182443574E-1	-2.386192381E-1	-2.466087192E-1
1.777653840E-1	1.219727769E-1	-2.423476577E-1	-2.450108230E-1
1.805480280E-1	1.267664731E-1	-2.434129268E-1	-2.444781959E-1
1.825300770E-1	1.299622655E-1	-2.428802997E-1	-2.423476577E-1
1.845807980E-1	1.326254308E-1	-2.418150306E-1	-2.396845073E-1
1.859939230E-1	1.363538504E-1	-2.375539690E-1	-2.380866110E-1
1.885806440E-1	1.400822699E-1	-2.338255495E-1	-2.359560728E-1
1.905572300E-1	1.454086006E-1	-2.327602804E-1	-2.332929224E-1
1.925774130E-1	1.507349163E-1	-2.322276533E-1	-2.316950262E-1
1.939198460E-1	1.560612470E-1	-2.343581766E-1	-2.338255495E-1
1.966351050E-1	1.613875628E-1	-2.380866110E-1	-2.306297570E-1
1.986644510E-1	1.661812514E-1	-2.434129268E-1	-2.338255495E-1
2.006813360E-1	1.699096859E-1	-2.471413612E-1	-2.332929224E-1
2.019626530E-1	1.704423130E-1	-2.514024079E-1	-2.306297570E-1
2.046231530E-1	1.757686287E-1	-2.577939928E-1	-2.327602804E-1
2.067690670E-1	1.731054783E-1	-2.631203234E-1	-2.359560728E-1
2.087710280E-1	1.763012707E-1	-2.700445354E-1	-2.359560728E-1
2.100291920E-1	1.778991669E-1	-2.775014043E-1	-2.380866110E-1
2.128284900E-1	1.763012707E-1	-2.822950780E-1	-2.396845073E-1
2.148266530E-1	1.747033745E-1	-2.860234976E-1	-2.412824035E-1
2.168605670E-1	1.752360016E-1	-2.902845740E-1	-2.386192381E-1
2.181802690E-1	1.736381054E-1	-2.913498282E-1	-2.364887148E-1
2.209181440E-1	1.720402092E-1	-2.918824553E-1	-2.338255495E-1
2.228873070E-1	1.720402092E-1	-2.908172011E-1	-2.316950262E-1
2.249651440E-1	1.725728363E-1	-2.924150825E-1	-2.338255495E-1
2.264372300E-1	1.688444167E-1	-2.945456207E-1	-2.253034264E-1
2.289742980E-1	1.688444167E-1	-3.004045784E-1	-2.247707993E-1
2.309681050E-1	1.672465205E-1	-3.073287904E-1	-2.210423797E-1
2.329702590E-1	1.677791476E-1	-3.147856593E-1	-2.189118415E-1
2.342302300E-1	1.656486243E-1	-3.195793331E-1	-2.151834220E-1
2.370276440E-1	1.640507281E-1	-3.275688291E-1	-2.114549875E-1
2.389450380E-1	1.645833552E-1	-3.350256681E-1	-2.109223604E-1
2.410583740E-1	1.667138934E-1	-3.430151641E-1	-2.077265680E-1
2.423784230E-1	1.635181010E-1	-3.499393761E-1	-2.055960447E-1
2.450991920E-1	1.651159972E-1	-3.595267534E-1	-2.008023560E-1
2.471441820E-1	1.629854590E-1	-3.664509654E-1	-2.029328793E-1
2.489816530E-1	1.661812514E-1	-3.728425503E-1	-1.986718178E-1
2.504381920E-1	1.667138934E-1	-3.813646734E-1	-1.965412945E-1
2.532182970E-1	1.683117896E-1	-3.840278387E-1	-1.986718178E-1
2.551969610E-1	1.651159972E-1	-3.882888854E-1	-1.949433982E-1
2.572499130E-1	1.667138934E-1	-3.904194236E-1	-1.933455020E-1
2.585038460E-1	1.661812514E-1	-3.904194236E-1	-1.896170676E-1
2.613068740E-1	1.656486243E-1	-3.914846778E-1	-1.880191714E-1
2.632354610E-1	1.699096859E-1	-3.888215125E-1	-1.874865443E-1
2.653376050E-1	1.720402092E-1	-3.920173049E-1	-1.864212751E-1
2.668563840E-1	1.736381054E-1	-3.914846778E-1	-1.896170676E-1
2.693346440E-1	1.784317940E-1	-3.984089196E-1	-1.885518134E-1
2.712303070E-1	1.826928556E-1	-4.021373391E-1	-1.890844405E-1
2.733450670E-1	1.837581247E-1	-4.053331316E-1	-1.912149638E-1
2.746143840E-1	1.853560209E-1	-4.117247164E-1	-1.938781291E-1
2.774017590E-1	1.880191714E-1	-4.133225977E-1	-1.960086524E-1
2.793078070E-1	1.864212751E-1	-4.181163013E-1	-2.013349831E-1
2.814330670E-1	1.885518134E-1	-4.213120937E-1	-2.039981484E-1
2.827755760E-1	1.874865443E-1	-4.229099751E-1	-2.109223604E-1
2.853748460E-1	1.885518134E-1	-4.271710515E-1	-2.183792144E-1
2.875182970E-1	1.853560209E-1	-4.319647253E-1	-2.247707993E-1
2.895193740E-1	1.826928556E-1	-4.335626364E-1	-2.338255495E-1
2.908241150E-1	1.778991669E-1	-4.415521026E-1	-2.444781959E-1
2.935766430E-1	1.725728363E-1	-4.468784332E-1	-2.519350350E-1
2.955070380E-1	1.651159972E-1	-4.554005563E-1	-2.620550692E-1
2.976220280E-1	1.587243974E-1	-4.644553065E-1	-2.721750736E-1
2.988958840E-1	1.496696621E-1	-4.767058492E-1	-2.790992856E-1
3.016796050E-1	1.411475390E-1	-4.873584807E-1	-2.860234976E-1
3.036023460E-1	1.320927888E-1	-4.969458580E-1	-2.956108749E-1
3.057105660E-1	1.241033077E-1	-5.086637735E-1	-3.014698327E-1
3.071719230E-1	1.171790883E-1	-5.166532397E-1	-3.083940744E-1
3.097192970E-1	1.038632840E-1	-5.230448246E-1	-3.158509135E-1
3.117137200E-1	9.480853379E-2	-5.294364095E-1	-3.190467060E-1
3.137166820E-1	8.415589482E-2	-5.331648588E-1	-3.217098713E-1
3.149789230E-1	7.403588295E-2	-5.342301130E-1	-3.302319944E-1
3.177746050E-1	6.338323653E-2	-5.363606811E-1	-3.344930410E-1
3.197154230E-1	5.486112088E-2	-5.336974859E-1	-3.382214606E-1
3.218215280E-1	4.633900523E-2	-5.347627401E-1	-3.424825370E-1
3.230873460E-1	3.888215125E-2	-5.315669775E-1	-3.478088379E-1
3.258661530E-1	3.195793182E-2	-5.289037824E-1	-3.456783295E-1
3.279082590E-1	2.609897964E-2	-5.267732739E-1	-3.488741219E-1
3.297862300E-1	2.130528912E-2	-5.262406468E-1	-3.456783295E-1
3.312703460E-1	1.384843793E-2	-5.262406468E-1	-3.430151641E-1
3.339678740E-1	5.858954508E-3	-5.320996046E-1	-3.360909224E-1
3.359465380E-1	-5.326322280E-4	-5.352953672E-1	-3.281014562E-1
3.379988360E-1	-6.924218964E-3	-5.427522659E-1	-3.222424984E-1
3.392801530E-1	-1.012001187E-2	-5.528722405E-1	-3.137203753E-1
3.420562200E-1	-1.438106969E-2	-5.661880374E-1	-3.046656251E-1
3.440002300E-1	-2.343581803E-2	-5.789712071E-1	-2.966761589E-1
3.461019890E-1	-3.089267015E-2	-5.954828262E-1	-2.918824553E-1
3.475508070E-1	-3.728425503E-2	-6.130596995E-1	-2.844256163E-1
3.501096050E-1	-4.367584363E-2	-6.348975897E-1	-2.790992856E-1
3.520026920E-1	-5.219795927E-2	-6.535397172E-1	-2.732403278E-1
3.541058360E-1	-5.965480953E-2	-6.743124127E-1	-2.700445354E-1
3.553724610E-1	-6.870955974E-2	-6.945524216E-1	-2.668487430E-1
3.581634120E-1	-7.882957160E-2	-7.121292949E-1	-2.636529505E-1
3.601557300E-1	-8.735168725E-2	-7.334345579E-1	-2.599245310E-1
3.621938740E-1	-9.374327213E-2	-7.510114312E-1	-2.588592768E-1
3.635038460E-1	-1.043959185E-1	-7.691209316E-1	-2.572613657E-1
3.661462690E-1	-1.123853996E-1	-7.893609405E-1	-2.535329461E-1
3.682804510E-1	-1.193096191E-1	-8.101336360E-1	-2.498045117E-1
3.702973350E-1	-1.320927888E-1	-8.383631110E-1	-2.519350350E-1
3.715682300E-1	-1.336906850E-1	-8.474178910E-1	-2.498045117E-1
3.743544120E-1	-1.454086006E-1	-8.633968234E-1	-2.519350350E-1
3.763833740E-1	-1.507349163E-1	-8.697884083E-1	-2.577939928E-1
3.783852970E-1	-1.549959779E-1	-8.703210354E-1	-2.609897852E-1
3.797898460E-1	-1.581917703E-1	-8.628641963E-1	-2.684466541E-1
3.824424510E-1	-1.603222936E-1	-8.575378656E-1	-2.743056118E-1
3.844712970E-1	-1.656486243E-1	-8.420915604E-1	-2.822950780E-1
3.864731050E-1	-1.624528319E-1	-8.287757635E-1	-2.934803665E-1
3.879630380E-1	-1.672465205E-1	-8.111988902E-1	-3.014698327E-1
3.904709890E-1	-1.667138934E-1	-7.930893898E-1	-3.110572100E-1
3.924649120E-1	-1.688444167E-1	-7.781757116E-1	-3.179814517E-1
3.944829120E-1	-1.709749401E-1	-7.611314654E-1	-3.222424984E-1
3.957275760E-1	-1.715075821E-1	-7.467503548E-1	-3.249056637E-1
3.985393350E-1	-1.784317940E-1	-7.350324988E-1	-3.302319944E-1
4.005681430E-1	-1.848233789E-1	-7.265103459E-1	-3.312972486E-1
4.025700280E-1	-1.906823367E-1	-7.185208797E-1	-3.366235793E-1
4.039305380E-1	-2.013349831E-1	-7.174556255E-1	-3.366235793E-1
4.065534990E-1	-2.103897333E-1	-7.163903713E-1	-3.376888335E-1
4.086563350E-1	-2.231729031E-1	-7.201187611E-1	-3.334277868E-1
4.104730380E-1	-2.348908186E-1	-7.233145833E-1	-3.328951299E-1
4.119169990E-1	-2.482066154E-1	-7.291735411E-1	-3.265035450E-1
4.147170660E-1	-2.631203234E-1	-7.334345579E-1	-3.190467060E-1
4.166692300E-1	-2.753708661E-1	-7.419567108E-1	-3.121224940E-1
4.187636040E-1	-2.881540358E-1	-7.483482957E-1	-3.025351167E-1
4.207577970E-1	-3.020024598E-1	-7.547398806E-1	-2.924150825E-1
4.228216430E-1	-3.142530024E-1	-7.627293468E-1	-2.801645398E-1
4.248506430E-1	-3.217098713E-1	-7.685883045E-1	-2.668487430E-1
4.268532200E-1	-3.286340833E-1	-7.760451436E-1	-2.535329461E-1
4.284788840E-1	-3.334277868E-1	-7.792409658E-1	-2.380866110E-1
4.308503740E-1	-3.403519988E-1	-7.803062201E-1	-2.237055302E-1
4.327628070E-1	-3.446130455E-1	-7.819041014E-1	-2.077265680E-1
4.348461810E-1	-3.526025414E-1	-7.803062201E-1	-1.901497096E-1
4.361885380E-1	-3.605920076E-1	-7.797735929E-1	-1.725728363E-1
4.389032970E-1	-3.669835925E-1	-7.765777707E-1	-1.587243974E-1
4.409320270E-1	-3.701793849E-1	-7.685883045E-1	-1.432780623E-1
4.429489890E-1	-3.760383427E-1	-7.590008974E-1	-1.294296384E-1
4.442688070E-1	-3.792341352E-1	-7.488809228E-1	-1.155811921E-1
4.468970760E-1	-3.829625845E-1	-7.329019308E-1	-1.012001261E-1
4.489788070E-1	-3.909520507E-1	-7.195861340E-1	-8.522115648E-2
4.510252300E-1	-3.978762627E-1	-7.089334726E-1	-6.764429063E-2
4.524465380E-1	-4.053331316E-1	-6.977482438E-1	-4.687163606E-2
4.550950270E-1	-4.175836742E-1	-6.892260909E-1	-2.929477207E-2
4.570386530E-1	-4.282363057E-1	-6.854977012E-1	-9.587380104E-3
4.591262970E-1	-4.426173866E-1	-6.801713705E-1	1.118527725E-2
4.604215380E-1	-4.575310946E-1	-6.823018789E-1	3.089267015E-2
4.631833740E-1	-4.724447727E-1	-6.876282096E-1	5.113269389E-2
4.651488070E-1	-4.884237647E-1	-6.956176758E-1	6.870955974E-2
4.672293350E-1	-5.086637735E-1	-7.110640407E-1	8.522115648E-2
4.688031150E-1	-5.273059011E-1	-7.286409140E-1	1.017327532E-1
4.712389500E-1	-5.491438508E-1	-7.552725077E-1	1.129180342E-1
4.732335660E-1	-5.720469952E-1	-7.877630591E-1	1.235706806E-1
4.752361040E-1	-5.965480804E-1	-8.186557293E-1	1.336906850E-1
4.765172690E-1	-6.263754964E-1	-8.559399843E-1	1.416801661E-1
4.792935660E-1	-6.657902598E-1	-9.139968753E-1	1.480717659E-1
4.812799990E-1	-6.956176758E-1	-9.550095797E-1	1.576591432E-1
4.833246430E-1	-7.291735411E-1	-9.938917160E-1	1.576591432E-1
4.846511530E-1	-7.605988383E-1	-1.031708598E0	1.677791476E-1
4.871899230E-1	-7.952198982E-1	-1.074851871E0	1.736381054E-1
4.893414990E-1	-8.325041533E-1	-1.113734007E0	1.800296903E-1
4.911869990E-1	-8.660600185E-1	-1.155811906E0	1.869539171E-1
4.926731920E-1	-9.001484513E-1	-1.196824670E0	1.976065636E-1
4.954843350E-1	-9.353021979E-1	-1.237837315E0	2.066612989E-1
4.974049610E-1	-9.683253765E-1	-1.276719451E0	2.178465873E-1
4.995152580E-1	-9.997506738E-1	-1.314536333E0	2.316950262E-1
5.007665380E-1	-1.030643344E0	-1.347559571E0	2.439455539E-1
5.035720660E-1	-1.061003447E0	-1.377386928E0	2.609897852E-1
5.056012580E-1	-1.088167667E0	-1.402420640E0	2.727077007E-1
5.076023730E-1	-1.118527651E0	-1.422128081E0	2.886866629E-1
5.090411530E-1	-1.145691872E0	-1.438639641E0	3.004045784E-1
5.116006040E-1	-1.172856212E0	-1.455151200E0	3.105245829E-1
5.135113840E-1	-1.198422551E0	-1.471662879E0	3.195793331E-1
5.156104500E-1	-1.225586772E0	-1.485511303E0	3.233077526E-1
5.168732300E-1	-1.252218366E0	-1.496163964E0	3.265035450E-1
5.196672190E-1	-1.276719451E0	-1.507881880E0	3.270362020E-1
5.216956430E-1	-1.302818418E0	-1.516936541E0	3.296993375E-1
5.236976040E-1	-1.333178520E0	-1.526523948E0	3.323625028E-1
5.249612300E-1	-1.356614232E0	-1.535046101E0	3.366235793E-1
5.277262300E-1	-1.383778572E0	-1.546764016E0	3.382214606E-1
5.297756150E-1	-1.412008047E0	-1.561677694E0	3.483414650E-1
5.317793070E-1	-1.442368031E0	-1.579254508E0	3.563309610E-1
5.331122300E-1	-1.467934370E0	-1.598961949E0	3.643204570E-1
5.358415270E-1	-1.498827100E0	-1.626658797E0	3.733751774E-1
5.378419610E-1	-1.526523948E0	-1.651692510E0	3.818973005E-1
5.398864890E-1	-1.550492406E0	-1.680454731E0	3.898867965E-1
5.411551530E-1	-1.571265101E0	-1.704423189E0	3.994741738E-1
5.439430270E-1	-1.588309288E0	-1.723065257E0	4.032025933E-1
5.459082300E-1	-1.598961949E0	-1.729989529E0	4.074636400E-1
5.479739890E-1	-1.605353594E0	-1.726261020E0	4.111920893E-1
5.494025380E-1	-1.612277746E0	-1.711879969E0	4.101268053E-1
5.519813350E-1	-1.614940882E0	-1.686846256E0	4.079962969E-1
5.539754500E-1	-1.621332526E0	-1.656486273E0	4.069310129E-1
5.559766040E-1	-1.625060916E0	-1.620799899E0	4.026699662E-1
5.572333460E-1	-1.628256679E0	-1.580319762E0	3.984089196E-1
5.600339120E-1	-1.636778831E0	-1.541437626E0	3.904194236E-1
5.619909610E-1	-1.645300984E0	-1.502555490E0	3.824299276E-1
5.640792190E-1	-1.659149408E0	-1.469532371E0	3.771036267E-1
5.654216150E-1	-1.674063087E0	-1.438639641E0	3.675162494E-1
5.680738070E-1	-1.695368409E0	-1.413605928E0	3.520699143E-1
5.701650270E-1	-1.719869494E0	-1.396561742E0	3.424825370E-1
5.720199610E-1	-1.747566342E0	-1.393365860E0	3.307646215E-1
5.734823840E-1	-1.781122208E0	-1.401888013E0	3.158509135E-1
5.762250650E-1	-1.817873836E0	-1.423193336E0	2.993393242E-1
5.782391150E-1	-1.856223345E0	-1.455683827E0	2.812298238E-1
5.802576420E-1	-1.896170735E0	-1.503620744E0	2.615224123E-1
5.815946920E-1	-1.935052872E0	-1.555286050E0	2.423476577E-1
5.843147580E-1	-1.991511941E0	-1.641572475E0	2.098570913E-1
5.863437580E-1	-2.027198315E0	-1.691107273E0	1.917476058E-1
5.883604880E-1	-2.063949823E0	-1.733185291E0	1.757686287E-1
5.899148840E-1	-2.099103689E0	-1.769404292E0	1.613875628E-1
5.923678730E-1	-2.130528927E0	-1.792840123E0	1.507349163E-1
5.942557690E-1	-2.159291029E0	-1.806688547E0	1.416801661E-1
5.963639500E-1	-2.189651012E0	-1.813612700E0	1.368864775E-1
5.976491920E-1	-2.215217352E0	-1.814677954E0	1.331580579E-1
6.004211040E-1	-2.238120556E0	-1.807753801E0	1.310275346E-1
6.024501420E-1	-2.259958506E0	-1.795503259E0	1.299622655E-1
6.044527580E-1	-2.277002811E0	-1.780589581E0	1.299622655E-1
6.061566150E-1	-2.298840761E0	-1.764077902E0	1.304948926E-1
6.084889610E-1	-2.312689066E0	-1.748631597E0	1.326254308E-1
6.105387190E-1	-2.326537609E0	-1.733185291E0	1.304948926E-1
6.125553350E-1	-2.337190151E0	-1.726261020E0	1.374191195E-1
6.141194610E-1	-2.350506067E0	-1.720934749E0	1.438107044E-1
6.166116040E-1	-2.359560728E0	-1.716140985E0	1.486043930E-1
6.185491920E-1	-2.368615627E0	-1.719336867E0	1.619201899E-1
6.206420650E-1	-2.377670288E0	-1.725195765E0	1.773665249E-1
6.219934220E-1	-2.382996559E0	-1.736381054E0	1.917476058E-1
6.246992190E-1	-2.388855457E0	-1.746501088E0	2.077265680E-1
6.267281810E-1	-2.393649340E0	-1.765143156E0	2.231729031E-1
6.287306810E-1	-2.394181967E0	-1.780589581E0	2.407497615E-1
6.301754610E-1	-2.393116713E0	-1.794438004E0	2.545982003E-1
6.327282960E-1	-2.389388084E0	-1.807753801E0	2.716424465E-1
6.347225270E-1	-2.380866051E0	-1.822134852E0	2.854908705E-1
6.367394500E-1	-2.369148254E0	-1.833852768E0	2.993393242E-1
6.381976150E-1	-2.353701830E0	-1.846635938E0	3.105245829E-1
6.407964880E-1	-2.335059643E0	-1.853560209E0	3.195793331E-1
6.428253730E-1	-2.315884829E0	-1.854625463E0	3.291667104E-1
6.448274500E-1	-2.297242880E0	-1.842907548E0	3.371562064E-1
6.461624220E-1	-2.274872303E0	-1.822134852E0	3.515372574E-1
6.488147690E-1	-2.256230116E0	-1.785383224E0	3.584614992E-1
6.509051150E-1	-2.242381573E0	-1.738511562E0	3.542004228E-1
6.527587690E-1	-2.237055302E0	-1.685248375E0	3.467435837E-1
6.542285760E-1	-2.228533268E0	-1.637311459E0	3.350256681E-1
6.569735270E-1	-2.226402760E0	-1.595766187E0	3.275688291E-1
6.590024110E-1	-2.231729031E0	-1.568069220E0	3.142530024E-1
6.610189500E-1	-2.241316319E0	-1.551557660E0	2.966761589E-1
6.623443070E-1	-2.252501726E0	-1.554753423E0	2.775014043E-1
6.650756420E-1	-2.269546032E0	-1.571797729E0	2.567287385E-1
6.670563450E-1	-2.288720608E0	-1.602157712E0	2.322276533E-1
6.691069110E-1	-2.308428049E0	-1.641039848E0	2.119876295E-1
6.705700760E-1	-2.331331253E0	-1.682052612E0	1.874865443E-1
6.731057960E-1	-2.355299711E0	-1.719869494E0	1.699096859E-1
6.751001040E-1	-2.381398678E0	-1.751827359E0	1.475391239E-1
6.771026040E-1	-2.401106119E0	-1.774730563E0	1.299622655E-1
6.783744610E-1	-2.420813560E0	-1.785383224E0	1.118527651E-1
6.811597960E-1	-2.433063984E0	-1.782187462E0	9.108011425E-2
6.831890270E-1	-2.441053391E0	-1.766208410E0	6.764429063E-2
6.852517960E-1	-2.442118883E0	-1.733717918E0	4.527373984E-2
6.865645380E-1	-2.438390255E0	-1.695368409E0	2.396845073E-2
6.892588450E-1	-2.435727119E0	-1.655953646E0	-1.597896684E-3
6.912944500E-1	-2.431998730E0	-1.603222966E0	-4.207794741E-2
6.932962190E-1	-2.431998730E0	-1.570732474E0	-7.456851006E-2
6.947139610E-1	-2.439988136E0	-1.536111355E0	-1.065264493E-1
6.973534880E-1	-2.451173544E0	-1.514273405E0	-1.438107044E-1
6.993630380E-1	-2.462891340E0	-1.492968082E0	-1.720402092E-1
7.013854500E-1	-2.475142002E0	-1.479652286E0	-2.087918371E-1
7.029491150E-1	-2.492186308E0	-1.474326015E0	-2.343581766E-1
7.054435650E-1	-2.506567240E0	-1.476989150E0	-2.620550692E-1
7.074731420E-1	-2.530535698E0	-1.487109184E0	-2.886866629E-1
7.094906800E-1	-2.557699919E0	-1.511077642E0	-3.163835406E-1
7.109376920E-1	-2.584864140E0	-1.543035507E0	-3.419498801E-1
7.135006420E-1	-2.613093615E0	-1.578721881E0	-3.632551730E-1
7.154546920E-1	-2.632268429E0	-1.619202018E0	-3.787015080E-1
7.174970650E-1	-2.654106379E0	-1.653823018E0	-3.866910040E-1
7.189914990E-1	-2.670085430E0	-1.675660968E0	-3.930825889E-1
7.215546800E-1	-2.678607464E0	-1.688444138E0	-3.952131271E-1
7.235839490E-1	-2.679140091E0	-1.682585239E0	-3.957457542E-1
7.255859880E-1	-2.669552803E0	-1.662345171E0	-3.877562582E-1
7.269554610E-1	-2.651975870E0	-1.631985188E0	-3.787015080E-1
7.296132300E-1	-2.629605293E0	-1.596298814E0	-3.712446690E-1
7.316737190E-1	-2.597647429E0	-1.562742949E0	-3.584614992E-1
7.334655380E-1	-2.558232546E0	-1.529719710E0	-3.456783295E-1
7.349644990E-1	-2.516154528E0	-1.497229218E0	-3.339604139E-1
7.377501030E-1	-2.470348358E0	-1.461542845E0	-3.137203753E-1
7.397123450E-1	-2.421346188E0	-1.429052234E0	-2.924150825E-1
7.417821030E-1	-2.389388084E0	-1.405083776E0	-2.897519469E-1
7.430903450E-1	-2.351038694E0	-1.373658538E0	-2.801645398E-1
7.458404490E-1	-2.312156439E0	-1.340635300E0	-2.668487430E-1
7.478696800E-1	-2.268480778E0	-1.314003706E0	-2.535329461E-1
7.498718720E-1	-2.217347860E0	-1.282045722E0	-2.359560728E-1
7.513608840E-1	-2.161421537E0	-1.247957349E0	-2.130528986E-1
7.538694880E-1	-2.102299452E0	-1.207477212E0	-1.837581247E-1
7.558403070E-1	-2.044775009E0	-1.174986720E0	-1.555286050E-1
7.578811030E-1	-1.978728771E0	-1.163801432E0	-1.368864775E-1
7.591979220E-1	-1.910551786E0	-1.166464567E0	-1.230380461E-1
7.619389490E-1	-1.846635938E0	-1.176584601E0	-1.123853996E-1
7.639687190E-1	-1.781122208E0	-1.172323585E0	-1.059938148E-1
7.659705260E-1	-1.718271613E0	-1.164866686E0	-9.747169912E-2
7.673267680E-1	-1.669802070E0	-1.150485635E0	-8.255799860E-2
7.699340760E-1	-1.619734645E0	-1.137169838E0	-5.273059011E-2
7.720571420E-1	-1.552090287E0	-1.168062449E0	1.491370238E-2
7.740594110E-1	-1.456216455E0	-1.241033077E0	1.310275346E-1
7.753804610E-1	-1.378452182E0	-1.272458434E0	2.514024079E-1
7.781171030E-1	-1.319329977E0	-1.251685739E0	3.595267534E-1
7.800851530E-1	-1.272458434E0	-1.182443500E0	4.506068528E-1
7.821631030E-1	-1.239967823E0	-1.078047633E0	5.203816891E-1
7.834950380E-1	-1.224521518E0	-9.512811303E-1	5.715143681E-1
7.862205260E-1	-1.209075212E0	-8.303736448E-1	6.066681147E-1
7.882496420E-1	-1.201085687E0	-7.270429730E-1	6.253102422E-1
7.902522570E-1	-1.192030907E0	-6.455502510E-1	6.338323355E-1
7.919891150E-1	-1.177649856E0	-5.869607329E-1	6.375607848E-1
7.942616030E-1	-1.137702465E0	-5.390238166E-1	6.380934119E-1
7.962559110E-1	-1.123321414E0	-5.315669775E-1	6.386260390E-1
7.982581420E-1	-1.090830803E0	-5.241101384E-1	6.466155052E-1
7.996430760E-1	-1.061003447E0	-5.262406468E-1	6.636597514E-1
8.023160650E-1	-1.027980208E0	-5.390238166E-1	6.918892860E-1
8.043454110E-1	-1.013599157E0	-5.539374948E-1	7.020092607E-1
8.063622950E-1	-1.007207513E0	-5.757754445E-1	6.988134980E-1
8.077101530E-1	-1.001348615E0	-6.045376062E-1	6.897587180E-1
8.104007680E-1	-1.002946496E0	-6.343649626E-1	6.721818447E-1
8.124484880E-1	-1.009338021E0	-6.657902598E-1	6.530070901E-1
8.143700380E-1	-1.016794920E0	-6.918892860E-1	6.263754964E-1
8.157688450E-1	-1.031175971E0	-7.195861340E-1	6.008091569E-1
8.185074110E-1	-1.047154903E0	-7.419567108E-1	5.811017752E-1
8.205362950E-1	-1.065797091E0	-7.627293468E-1	5.645901561E-1
8.225389110E-1	-1.090830803E0	-7.760451436E-1	5.534048676E-1
8.241153450E-1	-1.113734007E0	-7.882956862E-1	5.464806557E-1
8.265959880E-1	-1.142496109E0	-7.957525253E-1	5.427522659E-1
8.285822680E-1	-1.165399313E0	-8.053399324E-1	5.416869521E-1
8.306422570E-1	-1.188835144E0	-8.154599667E-1	5.448827744E-1
8.322308070E-1	-1.205346704E0	-8.314388990E-1	5.486112237E-1
8.346502570E-1	-1.217064619E0	-8.447546959E-1	5.534048676E-1
8.366442180E-1	-1.225054145E0	-8.580704927E-1	5.581985712E-1
8.386462180E-1	-1.222391009E0	-8.660600185E-1	5.715143681E-1
8.400725380E-1	-1.216531992E0	-8.665926456E-1	5.842975378E-1
8.427031030E-1	-1.205346704E0	-8.532768488E-1	6.034722924E-1
8.446422680E-1	-1.191498280E0	-8.367652297E-1	6.226470470E-1
8.467341030E-1	-1.169660330E0	-8.106662631E-1	6.402239203E-1
8.480504990E-1	-1.142496109E0	-7.872304320E-1	6.599313021E-1
8.506952680E-1	-1.107874990E0	-7.579356432E-1	6.769755483E-1
8.528202950E-1	-1.067927599E0	-7.366303802E-1	6.988134980E-1
8.548378720E-1	-1.025849700E0	-7.163903713E-1	7.211840153E-1
8.562158450E-1	-9.789780378E-1	-6.929545403E-1	7.451524734E-1
8.588960640E-1	-9.273127317E-1	-6.743124127E-1	7.765777707E-1
8.609251800E-1	-8.767126203E-1	-6.695187092E-1	8.165252209E-1
8.629287180E-1	-8.234494328E-1	-6.556702852E-1	8.511462808E-1
8.644673450E-1	-7.771103978E-1	-6.418218613E-1	8.783105612E-1
8.669869870E-1	-7.281082273E-1	-6.317018270E-1	9.118663669E-1
8.689660380E-1	-6.775081754E-1	-6.221144199E-1	9.422264099E-1
8.710184870E-1	-6.269081235E-1	-6.167881489E-1	9.768475294E-1
8.730127570E-1	-5.736449361E-1	-6.077333689E-1	1.006142259E0
8.750161410E-1	-5.182511806E-1	-5.997439027E-1	1.030110717E0
8.770104490E-1	-4.639226794E-1	-5.928196907E-1	1.039165497E0
8.790275640E-1	-4.101268053E-1	-5.853627920E-1	1.042361259E0
8.807359990E-1	-3.557983339E-1	-5.826996565E-1	1.034371734E0
8.830860260E-1	-3.041329980E-1	-5.784385800E-1	1.020523310E0
8.851054220E-1	-2.583266199E-1	-5.693838596E-1	1.001881242E0
8.871172180E-1	-2.189118415E-1	-5.566006899E-1	9.763149023E-1
8.886451150E-1	-1.810949594E-1	-5.315669775E-1	9.539443254E-1
8.911752570E-1	-1.491370201E-1	-5.028048158E-1	9.337043166E-1
8.932043330E-1	-1.198422536E-1	-4.676510990E-1	9.097358584E-1
8.950698070E-1	-9.480853379E-2	-4.266384244E-1	8.878979087E-1
8.966481910E-1	-7.137271762E-2	-3.845604658E-1	8.617989421E-1
8.992636800E-1	-4.101268202E-2	-3.254382908E-1	8.282431364E-1
9.012929490E-1	-2.343581803E-2	-2.966761589E-1	8.090683818E-1
9.033102560E-1	-5.326322280E-3	-2.764361203E-1	7.861651778E-1
9.050129220E-1	1.065264456E-2	-2.679139972E-1	7.632619739E-1
9.073674870E-1	2.237055451E-2	-2.695119083E-1	7.424893379E-1
9.093966410E-1	3.195793182E-2	-2.785666585E-1	7.201187611E-1
9.113988330E-1	4.367584363E-2	-2.892192900E-1	6.966829300E-1
9.128609990E-1	4.740426689E-2	-3.020024598E-1	6.711165905E-1
9.153958330E-1	4.953479767E-2	-3.105245829E-1	6.439523697E-1
9.173902560E-1	4.900216311E-2	-3.147856593E-1	6.183860302E-1
9.193927560E-1	4.740426689E-2	-3.158509135E-1	5.965480804E-1
9.206808840E-1	4.154531285E-2	-3.062635362E-1	5.747101903E-1
9.234501410E-1	4.101268202E-2	-2.908172011E-1	5.560680628E-1
9.254151530E-1	3.728425503E-2	-2.721750736E-1	5.390238166E-1
9.274969100E-1	3.302319720E-2	-2.503371537E-1	5.166532397E-1
9.288593840E-1	2.876213938E-2	-2.295644879E-1	5.022721887E-1
9.315546790E-1	1.917476021E-2	-2.061286718E-1	4.809668958E-1
9.335841790E-1	1.597896684E-3	-1.810949594E-1	4.601942301E-1
9.355872180E-1	-1.917476021E-2	-1.571265012E-1	4.452805519E-1
9.369881530E-1	-4.367584363E-2	-1.336906850E-1	4.351605177E-1
9.396449100E-1	-6.817692518E-2	-1.102548689E-1	4.303668439E-1
9.416699990E-1	-9.800432622E-2	-8.841694891E-2	4.266384244E-1
9.436766790E-1	-1.299622655E-1	-6.870955974E-2	4.303668439E-1
9.449619220E-1	-1.592570394E-1	-4.953479767E-2	4.324973822E-1
9.477346790E-1	-1.944107562E-1	-3.302319720E-2	4.356931746E-1
9.497640260E-1	-2.279665917E-1	-1.597896591E-2	4.426173866E-1
9.517811410E-1	-2.593919039E-1	-3.728425596E-3	4.516721368E-1
9.532332680E-1	-2.908172011E-1	8.522115648E-3	4.607268870E-1
9.557901410E-1	-3.142530024E-1	1.917476021E-2	4.692489803E-1
9.577039610E-1	-3.419498801E-1	2.396845073E-2	4.729774296E-1
9.597869490E-1	-3.659183383E-1	2.822950855E-2	4.745753109E-1
9.611383450E-1	-3.888215125E-1	2.876213938E-2	4.719121456E-1
9.638446020E-1	-4.106594622E-1	1.864212751E-2	4.729774296E-1
9.658736790E-1	-4.282363057E-1	-1.597896591E-2	4.703142643E-1
9.678759100E-1	-4.388889670E-1	-3.302319720E-2	4.751079381E-1
9.692487680E-1	-4.442152679E-1	-5.273059011E-2	4.846953154E-1
9.718712300E-1	-4.612595141E-1	-6.711166352E-2	4.964132309E-1
9.739621410E-1	-4.788363874E-1	-7.989483327E-2	5.086637735E-1
9.758849220E-1	-4.964132309E-1	-8.788431436E-2	5.214469433E-1
9.773558450E-1	-5.145227313E-1	-1.043959185E-1	5.379585624E-1
9.800360640E-1	-5.267732739E-1	-1.209075153E-1	5.454154015E-1
9.820647300E-1	-5.384911895E-1	-1.475391239E-1	5.507417321E-1
9.840666410E-1	-5.443501472E-1	-1.837581247E-1	5.475459099E-1
9.855287680E-1	-5.507417321E-1	-2.295644879E-1	5.443501472E-1
9.881242950E-1	-5.496764779E-1	-2.817624509E-1	5.347627401E-1
9.901537950E-1	-5.459480286E-1	-3.398193717E-1	5.203816891E-1
9.921567180E-1	-5.374259353E-1	-4.069310129E-1	4.996090233E-1
9.937694990E-1	-5.331648588E-1	-4.628573954E-1	4.820321798E-1
9.961552950E-1	-5.273059011E-1	-5.214469433E-1	4.612595141E-1
9.981495250E-1	-5.203816891E-1	-5.795038939E-1	4.420847595E-1
1.000166410E0	-5.123922229E-1	-6.263754964E-1	4.170510471E-1
1.001532576E0	-5.065332651E-1	-6.657902598E-1	3.962783813E-1
1.004224333E0	-4.953479767E-1	-6.945524216E-1	3.797667921E-1
1.006137499E0	-4.729774296E-1	-7.153250575E-1	3.456783295E-1
1.008256602E0	-4.511395097E-1	-7.153250575E-1	3.296993375E-1
1.009718691E0	-4.165183902E-1	-7.030745149E-1	3.115898669E-1
1.012313987E0	-3.792341352E-1	-6.934871674E-1	2.993393242E-1
1.014343333E0	-3.312972486E-1	-6.716492176E-1	2.833603323E-1
1.016346256E0	-2.764361203E-1	-6.695187092E-1	2.647182047E-1
1.017717191E0	-2.167813182E-1	-7.728493810E-1	2.407497615E-1
1.020403410E0	-1.406149119E-1	-9.512811303E-1	2.071939409E-1
1.022388614E0	-1.097222418E-1	-1.114266634E0	1.789644361E-1
1.024450487E0	-8.096009493E-2	-1.337439537E0	1.368864775E-1
1.025736307E0	-7.776430249E-2	-1.564340830E0	1.022653878E-1
1.028508756E0	-1.075917110E-1	-1.755555868E0	8.042746782E-2
1.030538256E0	-1.592570394E-1	-1.967010856E0	6.338323653E-2
1.032539641E0	-2.359560728E-1	-2.174737453E0	5.645901710E-2
1.034018037E0	-3.318298757E-1	-2.339320660E0	5.752427876E-2
1.036548525E0	-4.303668439E-1	-2.501240969E0	5.486112088E-2
1.038542448E0	-5.273059011E-1	-2.657834768E0	6.977482140E-2
1.040544064E0	-6.290386319E-1	-2.811232805E0	9.800432622E-2
1.041840499E0	-7.270429730E-1	-2.950782537E0	1.368864775E-1
1.044601948E0	-8.202536106E-1	-3.091930151E0	1.768338978E-1
1.046579076E0	-9.230516553E-1	-3.215500832E0	2.157160491E-1
1.048648333E0	-1.008272767E0	-3.321494579E0	2.545982003E-1
1.049950614E0	-1.094026566E0	-3.357180834E0	2.934803665E-1
1.052622999E0	-1.172856212E0	-3.357180834E0	3.350256681E-1
1.054728422E0	-1.238369942E0	-3.325755596E0	3.765709996E-1
1.056460884E0	-1.280447841E0	-3.268764019E0	4.234426320E-1
1.057954576E0	-1.298024774E0	-3.181944847E0	4.793690145E-1
1.060795756E0	-1.295894265E0	-3.073820591E0	5.352953672E-1
1.062677230E0	-1.283111095E0	-2.953978300E0	5.928196907E-1
1.064826833E0	-1.264468908E0	-2.824548721E0	6.434197426E-1
1.066068845E0	-1.243163586E0	-2.690858126E0	6.844323874E-1
1.068884102E0	-1.220793009E0	-2.548645258E0	7.163903713E-1
1.070913294E0	-1.194694042E0	-2.392584085E0	7.238472104E-1
1.072976179E0	-1.171790957E0	-2.225870132E0	7.227819562E-1
1.074336499E0	-1.153148770E0	-2.035720348E0	7.089334726E-1
1.076941294E0	-1.141430855E0	-1.824797988E0	6.860303283E-1
1.078905461E0	-1.133441329E0	-1.591505051E0	6.588660479E-1
1.080937371E0	-1.122256160E0	-1.343831062E0	6.221144199E-1
1.082166845E0	-1.108407617E0	-1.084971905E0	5.816344023E-1
1.084994140E0	-1.080178142E0	-8.298410177E-1	5.390238166E-1
1.087022794E0	-1.042361259E0	-5.826996565E-1	4.937500656E-1
1.089024294E0	-9.890980721E-1	-3.510046303E-1	4.490089715E-1
1.090294307E0	-9.203884602E-1	-1.326254308E-1	3.968110085E-1
1.092970384E0	-8.330367804E-1	6.444849819E-2	3.414172530E-1
1.095110371E0	-7.329019308E-1	2.466087192E-1	2.870887816E-1
1.097127179E0	-6.269081235E-1	4.133225977E-1	2.348908186E-1
1.098412307E0	-5.177185535E-1	5.715143681E-1	1.912149638E-1
1.101184679E0	-4.159857631E-1	7.286409140E-1	1.571265012E-1
1.103187461E0	-3.254382908E-1	8.836368918E-1	1.294296384E-1
1.105215986E0	-2.455434501E-1	1.034904361E0	1.113201380E-1
1.106537807E0	-1.784317940E-1	1.179780364E0	9.906959534E-2
1.109273410E0	-1.006674916E-1	1.389637470E0	9.427590668E-2
1.111279576E0	-6.178534031E-2	1.508414507E0	9.267801046E-2
1.113303986E0	-3.355583176E-2	1.608549356E0	9.587380290E-2
1.114664461E0	-1.384843793E-2	1.684715748E0	9.960222989E-2
1.117302640E0	-9.054748341E-3	1.735848427E0	1.001348570E-1
1.119204230E0	-1.171790902E-2	1.760882139E0	9.693906456E-2
1.121313525E0	-2.396845073E-2	1.757153749E0	8.788431436E-2
1.122539076E0	-4.580637068E-2	1.726261020E0	7.456851006E-2
1.125370948E0	-7.190535218E-2	1.648496747E0	5.113269389E-2
1.127324076E0	-1.022653878E-1	1.497229218E0	7.989482954E-3
1.129402486E0	-1.267664731E-1	1.378452182E0	3.195793368E-3
1.130627461E0	-1.720402092E-1	1.226652026E0	5.858954508E-3
1.133434230E0	-2.221076339E-1	1.073253989E0	8.522115648E-3
1.135462076E0	-2.625876963E-1	9.305084944E-1	2.396845073E-2
1.137225114E0	-3.174487948E-1	7.909588814E-1	2.396845073E-2
1.138786230E0	-3.755057156E-1	6.530070901E-1	2.503371425E-2
1.141550332E0	-4.255731404E-1	5.241101384E-1	2.822950855E-2
1.143579486E0	-4.761732221E-1	3.946804702E-1	2.716424316E-2
1.145596486E0	-5.299690962E-1	2.737729549E-1	2.556634694E-2
1.147081807E0	-5.853627920E-1	1.619201899E-1	1.970739290E-2
1.149654371E0	-6.364955306E-1	5.912217870E-2	1.384843793E-2
1.151576076E0	-6.870955825E-1	-3.089267015E-2	3.195793368E-3
1.153684602E0	-7.275756001E-1	-1.123853996E-1	-3.195793368E-3
1.155111768E0	-7.680556774E-1	-1.848233789E-1	-7.989482954E-3
1.157683909E0	-8.064051867E-1	-2.466087192E-1	-1.757686399E-2
1.159552537E0	-8.383631110E-1	-2.934803665E-1	-2.183792181E-2
1.161680486E0	-8.602010608E-1	-3.270362020E-1	-2.716424316E-2
1.162945268E0	-8.772453070E-1	-3.440804183E-1	-2.769687586E-2
1.165737909E0	-8.916263580E-1	-3.483414650E-1	-2.876213938E-2
1.167766755E0	-8.974853158E-1	-3.451456726E-1	-3.515372798E-2
1.169783179E0	-8.969526887E-1	-3.371562064E-1	-3.408846259E-2
1.171040037E0	-8.932242393E-1	-3.243730366E-1	-3.994741663E-2
1.173737499E0	-8.831042051E-1	-3.083940744E-1	-3.781688958E-2
1.175844076E0	-8.719189763E-1	-2.844256163E-1	-3.408846259E-2
1.177870294E0	-8.575378656E-1	-2.577939928E-1	-3.408846259E-2
1.179131884E0	-8.404936790E-1	-2.311623842E-1	-3.302319720E-2
1.181926871E0	-8.335694075E-1	-2.050634027E-1	-3.142530099E-2
1.183833807E0	-8.250473142E-1	-1.890844405E-1	-2.929477207E-2
1.185958332E0	-8.143946528E-1	-1.667138934E-1	-2.663161233E-2
1.187371807E0	-8.101336360E-1	-1.507349163E-1	-2.130528912E-2
1.190016332E0	-8.037420511E-1	-1.379517466E-1	-1.757686399E-2
1.192002153E0	-7.989483476E-1	-1.235706806E-1	-3.036003746E-2
1.194061794E0	-8.000136018E-1	-1.123853996E-1	-5.539375171E-2
1.195545576E0	-8.016114831E-1	-9.960222989E-2	-7.030745596E-2
1.198070294E0	-8.000136018E-1	-8.841694891E-2	-8.735168725E-2
1.199988230E0	-7.973504663E-1	-7.882957160E-2	-1.022653878E-1
1.202066409E0	-7.925567627E-1	-6.072007492E-2	-1.283643693E-1
1.203370768E0	-7.877630591E-1	-3.568635881E-2	-1.560612470E-1
1.206124178E0	-7.824367285E-1	-5.326322280E-4	-1.917476058E-1
1.208064653E0	-7.728493810E-1	4.367584363E-2	-2.231729031E-1
1.210155178E0	-7.696535587E-1	1.059938148E-1	-2.572613657E-1
1.211413460E0	-7.574030161E-1	1.709749401E-1	-2.817624509E-1
1.214114230E0	-7.408914566E-1	2.402171344E-1	-2.961435318E-1
1.216242294E0	-7.137271762E-1	3.424825370E-1	-3.190467060E-1
1.218033191E0	-6.950850487E-1	4.026699662E-1	-3.318298757E-1
1.219543191E0	-6.769755483E-1	4.575310946E-1	-3.360909224E-1
1.222317909E0	-6.604639888E-1	5.075985193E-1	-3.312972486E-1
1.224347371E0	-6.391586661E-1	5.496764779E-1	-3.478088379E-1
1.226349871E0	-6.146575809E-1	5.725796223E-1	-3.792341352E-1
1.227648037E0	-5.944175720E-1	5.693838596E-1	-4.165183902E-1
1.230407409E0	-5.704491138E-1	5.480785370E-1	-4.591289759E-1
1.232436640E0	-5.432848930E-1	5.193164349E-1	-5.012069345E-1
1.234439024E0	-5.198490620E-1	4.830974340E-1	-5.416869521E-1
1.235896499E0	-4.948153496E-1	4.490089715E-1	-5.837649107E-1
1.238436640E0	-4.713795185E-1	4.186489284E-1	-6.237123609E-1
1.240431024E0	-4.474110603E-1	3.973436356E-1	-6.625944972E-1
1.242447832E0	-4.266384244E-1	3.866910040E-1	-7.025418878E-1
1.243776307E0	-4.037352204E-1	3.845604658E-1	-7.446198463E-1
1.246504947E0	-3.818973005E-1	3.856257200E-1	-7.856325507E-1
1.248472499E0	-3.605920076E-1	3.893541694E-1	-8.314388990E-1
1.250536024E0	-3.366235793E-1	3.920173049E-1	-8.724516034E-1
1.251835807E0	-3.094593287E-1	3.936152160E-1	-9.203884602E-1
1.254578691E0	-2.759034932E-1	3.877562582E-1	-9.661948681E-1
1.256621678E0	-2.396845073E-1	3.834952116E-1	-1.015197039E0
1.258623755E0	-1.986718178E-1	3.776362538E-1	-1.060470819E0
1.259936922E0	-1.565938741E-1	3.691141307E-1	-1.108940244E0
1.262680794E0	-1.086569726E-1	3.605920076E-1	-1.159007788E0
1.264710140E0	-6.072007492E-2	3.526025414E-1	-1.210140467E0
1.266726447E0	-7.989482954E-3	3.403519988E-1	-1.261805773E0
1.268152999E0	4.687163606E-2	3.286340833E-1	-1.315601587E0
1.270783524E0	9.960222989E-2	3.222424984E-1	-1.368332148E0
1.272812447E0	1.507349163E-1	3.222424984E-1	-1.426389098E0
1.274814332E0	1.906823367E-1	3.344930410E-1	-1.482315540E0
1.276275960E0	2.279665917E-1	3.451456726E-1	-1.540904999E0
1.278822447E0	2.743056118E-1	3.451456726E-1	-1.596298814E0
1.280816601E0	3.153182864E-1	3.323625028E-1	-1.647964120E0
1.282818601E0	3.573962152E-1	3.195793331E-1	-1.696433663E0
1.284089807E0	3.952131271E-1	3.030677438E-1	-1.742772698E0
1.286875640E0	4.250405133E-1	2.828277051E-1	-1.789111614E0
1.288881268E0	4.516721368E-1	2.636529505E-1	-1.833320141E0
1.290921947E0	4.681837261E-1	2.402171344E-1	-1.872734904E0
1.292213922E0	4.846953154E-1	2.109223604E-1	-1.917476058E0
1.294875730E0	4.953479767E-1	1.773665249E-1	-1.957956076E0
1.297008409E0	5.038700700E-1	1.411475390E-1	-1.999501348E0
1.298845730E0	5.038700700E-1	1.043959185E-1	-2.043177128E0
1.300550537E0	4.953479767E-1	6.764429063E-2	-2.078330994E0
1.303067140E0	4.857605994E-1	2.982740477E-2	-2.106560469E0
1.305027460E0	4.713795185E-1	-5.858954508E-3	-2.126800537E0
1.307098255E0	4.511395097E-1	-3.994741663E-2	-2.139050961E0
1.308501999E0	4.356931746E-1	-6.125270575E-2	-2.147040606E0
1.311155101E0	4.175836742E-1	-7.137271762E-2	-2.151834249E0
1.313184216E0	4.010720551E-1	-6.870955974E-2	-2.152899504E0
1.315201563E0	3.872236311E-1	-5.432848632E-2	-2.150768995E0
1.316734730E0	3.776362538E-1	-4.154531285E-2	-2.147040606E0
1.319208563E0	3.808320463E-1	-2.396845073E-2	-2.145442724E0
1.321192845E0	3.866910040E-1	-1.810949668E-2	-2.142779350E0
1.323204101E0	4.042678475E-1	-1.544633508E-2	-2.136920452E0
1.324860191E0	4.351605177E-1	-1.384843793E-2	-2.132659435E0
1.327261486E0	4.905542731E-1	-2.130528912E-3	-2.131061554E0
1.329290563E0	5.283711553E-1	1.225054078E-2	-2.128398418E0
1.331292870E0	5.566006899E-1	2.130528912E-2	-2.122539520E0
1.332796460E0	5.869607329E-1	1.864212751E-2	-2.105495214E0
1.335273153E0	6.279733777E-1	5.326322280E-4	-2.082592010E0
1.337378486E0	6.732471585E-1	-3.195793182E-2	-2.053829908E0
1.339396101E0	7.307714224E-1	-8.522115648E-2	-2.028263569E0
1.340735576E0	7.861651778E-1	-1.257012039E-1	-2.003229856E0
1.343452947E0	8.341020942E-1	-1.400822699E-1	-1.977663517E0
1.345422883E0	8.793758154E-1	-1.395496428E-1	-1.955292940E0
1.347484101E0	9.390306473E-1	-1.438107044E-1	-1.943575025E0
1.348860037E0	9.981527925E-1	-1.374191195E-1	-1.927596092E0
1.351542024E0	1.055677056E0	-1.193096191E-1	-1.894572854E0
1.353571255E0	1.117462397E0	-1.033306494E-1	-1.845570683E0
1.355573409E0	1.186172009E0	-9.587380290E-2	-1.789644241E0
1.357065230E0	1.263403654E0	-1.006674916E-1	-1.732652664E0
1.359570678E0	1.348624825E0	-1.118527651E-1	-1.679922104E0
1.361564793E0	1.437041759E0	-1.251685768E-1	-1.628789306E0
1.363581755E0	1.527056575E0	-1.347559541E-1	-1.586711407E0
1.364977499E0	1.612810373E0	-1.118527651E-1	-1.551025033E0
1.367639678E0	1.686313629E0	-2.183792181E-2	-1.520132422E0
1.369621845E0	1.768339038E0	5.912217870E-2	-1.487641811E0
1.371671870E0	1.855690718E0	1.198422536E-1	-1.463140726E0
1.373050922E0	1.947836041E0	1.794970632E-1	-1.442368031E0
1.375729562E0	2.041046619E0	2.402171344E-1	-1.427454352E0
1.377758985E0	2.146507978E0	3.057309091E-1	-1.427986979E0
1.379761601E0	2.247708082E0	3.771036267E-1	-1.431715488E0
1.381042460E0	2.345712423E0	4.538026452E-1	-1.441835403E0
1.383818678E0	2.443716764E0	5.251753926E-1	-1.451955438E0
1.385847755E0	2.533731461E0	5.938849449E-1	-1.455151200E0
1.387864485E0	2.621083260E0	6.396912932E-1	-1.468466997E0
1.389225883E0	2.696184397E0	6.753776670E-1	-1.488707066E0
1.391922101E0	2.766491890E0	6.918892860E-1	-1.512142897E0
1.393951447E0	2.822950840E0	6.881608367E-1	-1.532382965E0
1.395952908E0	2.867691994E0	6.801713705E-1	-1.561145067E0
1.397445499E0	2.900715113E0	6.583334208E-1	-1.587244034E0
1.399949639E0	2.928944588E0	6.173207760E-1	-1.606951475E0
1.401943870E0	2.944391012E0	5.736449361E-1	-1.628789306E0
1.403945639E0	2.957706690E0	5.225121975E-1	-1.647964120E0
1.405556691E0	2.958771944E0	4.665858448E-1	-1.663410425E0
1.408002947E0	2.951847792E0	4.181163013E-1	-1.685781002E0
1.409947076E0	2.936401367E0	3.755057156E-1	-1.706021070E0
1.412048755E0	2.912965536E0	3.360909224E-1	-1.719869494E0
1.413426691E0	2.875148773E0	3.105245829E-1	-1.725728393E0
1.416014999E0	2.824548721E0	2.977414131E-1	-1.729989529E0
1.418135331E0	2.752643347E0	2.822950780E-1	-1.726793647E0
1.420137255E0	2.653041124E0	2.407497615E-1	-1.712945223E0
1.421424114E0	2.532133579E0	1.949433982E-1	-1.696966290E0
1.424194601E0	2.393116713E0	1.427454352E-1	-1.679389358E0
1.426142730E0	2.145975351E0	6.604639441E-2	-1.654355645E0
1.428226178E0	1.951564431E0	3.036003746E-2	-1.633583069E0
1.429576768E0	1.741174698E0	-1.491370238E-2	-1.614940882E0
1.432283793E0	1.529187083E0	-6.551376730E-2	-1.591505051E0
1.434258614E0	1.320395350E0	-1.219727769E-1	-1.573928237E0
1.436329793E0	1.119060278E0	-1.725728363E-1	-1.561145067E0
1.437993422E0	9.251821637E-1	-2.119876295E-1	-1.562210321E0
1.440338678E0	7.408914566E-1	-2.418150306E-1	-1.568601966E0
1.442332908E0	5.640575290E-1	-2.540655732E-1	-1.588841915E0
1.444335562E0	4.021373391E-1	-2.482066154E-1	-1.624528289E0
1.445728153E0	2.450108230E-1	-2.343581766E-1	-1.661279917E0
1.448393408E0	9.747169912E-2	-2.279665917E-1	-1.711879969E0
1.450359460E0	-3.408846259E-2	-2.242381722E-1	-1.776861072E0
1.452425331E0	-1.555286050E-1	-2.300971150E-1	-1.849831700E0
1.453743614E0	-2.663161159E-1	-2.551308274E-1	-1.932922363E0
1.456416729E0	-3.717772961E-1	-2.977414131E-1	-2.019741297E0
1.458511370E0	-4.644553065E-1	-3.451456726E-1	-2.103897333E0
1.460527716E0	-5.502091050E-1	-4.026699662E-1	-2.186455250E0
1.461922076E0	-6.210491657E-1	-4.564658105E-1	-2.267947912E0
1.464585024E0	-6.902913451E-1	-5.182511806E-1	-2.347842932E0
1.466614216E0	-7.366303802E-1	-5.885586143E-1	-2.429335594E0
1.468616947E0	-7.813714743E-1	-6.498113275E-1	-2.508165121E0
1.469923576E0	-8.133293986E-1	-6.886934638E-1	-2.585929394E0
1.472674524E0	-8.346347213E-1	-7.153250575E-1	-2.654106379E0
1.474667922E0	-8.511462808E-1	-7.137271762E-1	-2.719620228E0
1.476705254E0	-8.532768488E-1	-7.307714224E-1	-2.795786619E0
1.478504537E0	-8.383631110E-1	-7.499461770E-1	-2.862898111E0
1.480702870E0	-8.207862377E-1	-7.728493810E-1	-2.934803486E0
1.482697139E0	-7.920241356E-1	-7.739146352E-1	-3.006708860E0
1.484714254E0	-7.659251690E-1	-7.819041014E-1	-3.084473133E0
1.486130191E0	-7.302387953E-1	-7.819041014E-1	-3.148921728E0
1.488772100E0	-6.695187092E-1	-7.398261428E-1	-3.202184916E0
1.490776499E0	-5.890912414E-1	-6.780408025E-1	-3.236806154E0
1.492804023E0	-4.985437691E-1	-5.981460214E-1	-3.265568256E0
1.494123037E0	-3.898867965E-1	-5.081311464E-1	-3.289004087E0
1.496743383E0	-2.753708661E-1	-4.133225977E-1	-3.294862986E0
1.498891408E0	-1.512675583E-1	-3.142530024E-1	-3.292732477E0
1.500893947E0	-2.290318534E-2	-2.135855258E-1	-3.281014442E0
1.502219883E0	1.065264493E-1	-1.129180342E-1	-3.259709120E0
1.504951831E0	2.375539690E-1	-9.054748341E-3	-3.229349136E0
1.506924922E0	3.691141307E-1	9.321063757E-2	-3.192065001E0
1.508998254E0	4.985437691E-1	1.954760253E-1	-3.149454355E0
1.510439653E0	6.295713186E-1	2.918824553E-1	-3.103115320E0
1.513056293E0	7.504788041E-1	3.781688809E-1	-3.054113150E0
1.515085831E0	8.713863492E-1	4.532700181E-1	-2.998186827E0
1.517089946E0	9.821738005E-1	5.273059011E-1	-2.944923639E0
1.518622191E0	1.073786616E0	5.858954787E-1	-2.884736061E0
1.521098946E0	1.149953008E0	6.157228351E-1	-2.815494061E0
1.523039037E0	1.218129873E0	6.109291911E-1	-2.742523432E0
1.525095639E0	1.280447841E0	5.874933600E-1	-2.669020176E0
1.526361999E0	1.325188994E0	5.677859783E-1	-2.603506327E0
1.529154139E0	1.349157453E0	5.235774517E-1	-2.537992477E0
1.531183485E0	1.349157453E0	4.729774296E-1	-2.456499815E0
1.533246023E0	1.300687909E0	4.021373391E-1	-2.364886999E0
1.534621306E0	1.237304688E0	3.344930410E-1	-2.313754320E0
1.537229191E0	1.154746652E0	2.322276533E-1	-2.262089014E0
1.539289369E0	1.053546548E0	8.362326026E-2	-2.199238539E0
1.541208076E0	9.379653335E-1	-7.829693705E-2	-2.147573233E0
1.542688960E0	8.021441102E-1	-2.316950262E-1	-2.108690977E0
1.545349562E0	6.514092088E-1	-3.659183383E-1	-2.084722519E0
1.547306229E0	4.990763962E-1	-5.001416802E-1	-2.058090925E0
1.549380677E0	3.451456726E-1	-6.135923266E-1	-2.054362535E0
1.550698191E0	1.986718178E-1	-6.625944972E-1	-2.071939468E0
1.553437985E0	5.592638254E-2	-7.009440064E-1	-2.084722519E0
1.555466985E0	-6.817692518E-2	-7.249124646E-1	-2.090048790E0
1.557483831E0	-1.693770438E-1	-7.179882526E-1	-2.106560469E0
1.558902999E0	-2.530003190E-1	-6.796387434E-1	-2.126800537E0
1.561491446E0	-3.147856593E-1	-6.103965044E-1	-2.145442724E0
1.563412268E0	-3.637878001E-1	-5.246427655E-1	-2.161954165E0
1.565486831E0	-3.978762627E-1	-4.213120937E-1	-2.176867962E0
1.566696037E0	-4.138552547E-1	-3.057309091E-1	-2.190716267E0
1.569543485E0	-4.159857631E-1	-1.885518134E-1	-2.202434301E0
1.571429922E0	-4.063983858E-1	-6.231797114E-2	-2.217880487E0
1.573574023E0	-3.781688809E-1	6.444849819E-2	-2.238120556E0
1.574789345E0	-3.403519988E-1	2.087918371E-1	-2.262089014E0
1.577483537E0	-2.956108749E-1	3.515372574E-1	-2.285524845E0
1.579652499E0	-2.407497615E-1	4.953479767E-1	-2.308960676E0
1.581646191E0	-1.821602285E-1	6.471481323E-1	-2.342516422E0
1.582925037E0	-1.134506613E-1	7.989483476E-1	-2.381398678E0
1.585734062E0	-4.420847446E-2	9.411611557E-1	-2.424009323E0
1.587644383E0	2.876213938E-2	1.073786616E0	-2.463423967E0
1.589764715E0	1.001348570E-1	1.187769890E0	-2.499643087E0
1.591019691E0	1.715075821E-1	1.292165756E0	-2.531068325E0
1.593821946E0	2.279665917E-1	1.383778572E0	-2.575276852E0
1.595726883E0	2.727077007E-1	1.465271235E0	-2.622148514E0
1.597853138E0	3.121224940E-1	1.523328185E0	-2.654106379E0
1.599262037E0	3.659183383E-1	1.554220796E0	-2.675944328E0
1.601850446E0	4.287689328E-1	1.574993491E0	-2.690325499E0
1.603743229E0	4.900216460E-1	1.602690339E0	-2.703641176E0
1.605860677E0	5.741775632E-1	1.658616781E0	-2.718022346E0
1.607102614E0	6.679208279E-1	1.729989529E0	-2.730272770E0
1.609917831E0	7.590008974E-1	1.820004344E0	-2.735066414E0
1.611837614E0	8.335694075E-1	1.923867583E0	-2.740392923E0
1.613948946E0	8.735168576E-1	2.001631975E0	-2.740925550E0
1.615196537E0	8.729842305E-1	2.024535179E0	-2.739860296E0
1.617865729E0	8.602010608E-1	1.992577195E0	-2.728142262E0
1.620018806E0	8.330367804E-1	1.867941260E0	-2.710032701E0
1.621787691E0	7.962851524E-1	1.669269443E0	-2.682335854E0
1.623295960E0	7.472830415E-1	1.418932199E0	-2.646649599E0
1.626095831E0	6.993461251E-1	1.120125532E0	-2.610963106E0
1.628041922E0	6.663229465E-1	7.946872711E-1	-2.575809479E0
1.630142677E0	6.609966159E-1	4.330300093E-1	-2.543318987E0
1.631410191E0	6.854977012E-1	5.006742850E-2	-2.509230375E0
1.634200600E0	7.574030161E-1	-5.518069863E-1	-2.462891340E0
1.636230023E0	8.207862377E-1	-9.123989940E-1	-2.439455509E0
1.638233561E0	8.847021461E-1	-1.207477212E0	-2.425607204E0
1.639618614E0	9.299758673E-1	-1.368332148E0	-2.424541950E0
1.642232869E0	9.060074091E-1	-1.331047893E0	-2.451173544E0
1.644148306E0	7.968178391E-1	-1.063133955E0	-2.494849443E0
1.646230061E0	6.231797338E-1	-6.205165386E-1	-2.548112631E0
1.647601383E0	4.559331834E-1	-1.347559541E-1	-2.581135750E0
1.650287754E0	3.430151641E-1	2.950782478E-1	-2.586462021E0
1.652238114E0	3.020024598E-1	6.434197426E-1	-2.568352699E0
1.654334638E0	3.174487948E-1	9.225190282E-1	-2.536927223E0
1.655585845E0	3.659183383E-1	1.141963482E0	-2.494316816E0
1.658318614E0	4.447479248E-1	1.314536333E0	-2.445847273E0
1.660421869E0	5.422195792E-1	1.427986979E0	-2.394714594E0
1.662424215E0	6.562029123E-1	1.485511303E0	-2.329733372E0
1.663715768E0	7.755125165E-1	1.487109184E0	-2.269013405E0
1.666481715E0	8.815063238E-1	1.429584861E0	-2.202434301E0
1.668482576E0	9.731190801E-1	1.343831062E0	-2.149703741E0
1.670513254E0	1.033306479E0	1.244761467E0	-2.102299452E0
1.671824614E0	1.069525480E0	1.138235092E0	-2.059688807E0
1.674571061E0	1.076982379E0	1.032773852E0	-2.026665688E0
1.676535575E0	1.073253989E0	9.230516553E-1	-1.994707704E0
1.678617177E0	1.056742311E0	7.984157205E-1	-1.968608737E0
1.680047191E0	1.064199209E0	6.854977012E-1	-1.915878177E0
1.682624523E0	1.053013921E0	5.539374948E-1	-1.849831700E0
1.684530652E0	1.043426514E0	4.170510471E-1	-1.802427411E0
1.686621100E0	1.044491768E0	2.929477394E-1	-1.783252716E0
1.688020191E0	1.069525480E0	2.071939409E-1	-1.803492665E0
1.690678600E0	1.108407617E0	1.555286050E-1	-1.840244293E0
1.692707369E0	1.156344533E0	1.315601617E-1	-1.868473887E0
1.694709715E0	1.220260382E0	1.310275346E-1	-1.872734904E0
1.695997345E0	1.301220536E0	1.390170157E-1	-1.859419107E0
1.698670652E0	1.405616403E0	1.603222936E-1	-1.850896955E0
1.700796907E0	1.520132422E0	1.858886480E-1	-1.846635938E0
1.702568729E0	1.636778831E0	2.071939409E-1	-1.840776920E0
1.704098229E0	1.747033715E0	2.178465873E-1	-1.845038056E0
1.706872330E0	1.857288599E0	2.103897333E-1	-1.841842294E0
1.708825191E0	1.961151838E0	1.837581247E-1	-1.821602225E0
1.710905253E0	2.060754061E0	1.214401498E-1	-1.790176868E0
1.712170460E0	2.135322571E0	7.456851192E-3	-1.768871665E0
1.714962600E0	2.197640657E0	-1.491370201E-1	-1.765675783E0
1.716970845E0	2.254632235E0	-3.408846259E-1	-1.775795817E0
1.718994523E0	2.314819574E0	-5.645901561E-1	-1.795503259E0
1.720547960E0	2.383529186E0	-8.133293986E-1	-1.807221174E0
1.722993061E0	2.465021849E0	-1.075384498E0	-1.802427411E0
1.724949306E0	2.554504156E0	-1.371528029E0	-1.800829530E0
1.727005292E0	2.651443243E0	-1.687911510E0	-1.805623293E0
1.728374383E0	2.753175974E0	-2.006425619E0	-1.831722260E0
1.731063792E0	2.858104467E0	-2.315884829E0	-1.869006515E0
1.733042999E0	2.957706690E0	-2.613093615E0	-1.910551786E0
1.735097176E0	3.043460608E0	-2.892193079E0	-1.959021330E0
1.736417460E0	3.112170219E0	-3.149454355E0	-2.024002552E0
1.739109422E0	3.172357559E0	-3.375823021E0	-2.099636316E0
1.741185369E0	3.241599798E0	-3.661846638E0	-2.227468014E0
1.743188253E0	3.271959782E0	-3.801928759E0	-2.324407101E0
1.744437229E0	3.292199850E0	-3.916444778E0	-2.426672459E0
1.747246215E0	3.303917646E0	-4.011253357E0	-2.543318987E0
1.749275638E0	3.302852392E0	-4.094344139E0	-2.670085430E0
1.751326907E0	3.286873579E0	-4.182760715E0	-2.813363314E0
1.752778729E0	3.261307240E0	-4.263188362E0	-2.973685741E0
1.755341407E0	3.232012272E0	-4.320179939E0	-3.140932322E0
1.757268229E0	3.196858644E0	-4.357464314E0	-3.317233562E0
1.759372830E0	3.154247999E0	-4.385693550E0	-3.498328447E0
1.760862345E0	3.110572100E0	-4.391020298E0	-3.677292824E0
1.763380869E0	3.058906794E0	-4.393683434E0	-3.854659319E0
1.765283152E0	2.992860556E0	-4.387291431E0	-4.030427933E0
1.767377561E0	2.902845621E0	-4.380899906E0	-4.201403141E0
1.768621883E0	2.788329601E0	-4.382497787E0	-4.368649483E0
1.771434984E0	2.648780107E0	-4.401672840E0	-4.521514893E0
1.773392652E0	2.476739883E0	-4.449609756E0	-4.657868862E0
1.775480561E0	2.283926964E0	-4.494883537E0	-4.786766052E0
1.776747075E0	2.057025671E0	-4.500742435E0	-4.876780510E0
1.779481306E0	1.810949564E0	-4.476241112E0	-4.936968327E0
1.781566945E0	1.563808203E0	-4.438424587E0	-4.971056461E0
1.783379152E0	1.313471079E0	-4.394216061E0	-4.981709003E0
1.784832383E0	1.070058107E0	-4.314321041E0	-4.964664936E0
1.787627830E0	8.330367804E-1	-4.191815853E0	-4.900216579E0
1.789561191E0	6.109291911E-1	-4.022971153E0	-4.797951221E0
1.791659561E0	3.904194236E-1	-3.817907810E0	-4.681304455E0
1.792937345E0	1.688444167E-1	-3.563309669E0	-4.561462402E0
1.795716715E0	-5.912217870E-2	-3.250654459E0	-4.449609756E0
1.797739075E0	-3.020024598E-1	-2.899117231E0	-4.354268551E0
1.799763484E0	-5.555354357E-1	-2.527339935E0	-4.297276974E0
1.801261922E0	-8.074704409E-1	-2.154497385E0	-4.287689209E0
1.803772176E0	-1.038100243E0	-1.805090666E0	-4.364388466E0
1.805739114E0	-1.227184653E0	-1.529719710E0	-4.550809860E0
1.807768522E0	-1.360342741E0	-1.352353215E0	-4.856540680E0
1.809029806E0	-1.448759675E0	-1.257012010E0	-5.235242367E0
1.811826561E0	-1.524393439E0	-1.154746652E0	-5.591040611E0
1.813755191E0	-1.598961949E0	-1.014664412E0	-5.907423973E0
1.815859099E0	-1.658084154E0	-8.788431883E-1	-6.186523438E0
1.817122152E0	-1.684183121E0	-7.419567108E-1	-6.432066917E0
1.819799460E0	-1.692705274E0	-5.960154533E-1	-6.640858650E0
1.821945599E0	-1.677258849E0	-4.410194755E-1	-6.826747417E0
1.823954191E0	-1.652225137E0	-2.865561247E-1	-6.997722149E0
1.825234729E0	-1.618136764E0	-1.454086006E-1	-7.151120186E0
1.828019599E0	-1.557416677E0	-1.544633508E-2	-7.288539410E0
1.829951075E0	-1.492435455E0	8.628641814E-2	-7.416903973E0
1.832051099E0	-1.423193336E0	1.709749401E-1	-7.531952381E0
1.833328075E0	-1.339037418E0	2.359560728E-1	-7.643805027E0
1.836109214E0	-1.247424722E0	2.764361203E-1	-7.761517048E0
1.838064960E0	-1.143561363E0	3.014698327E-1	-7.876032829E0
1.840141099E0	-1.033306479E0	3.233077526E-1	-7.995874882E0
1.841542729E0	-9.209211469E-1	3.504720032E-1	-8.111989021E0
1.844140638E0	-7.440872192E-1	3.856257200E-1	-8.268050194E0
1.846123268E0	-6.823018789E-1	3.946804702E-1	-8.317051888E0
1.848154599E0	-4.857605994E-1	4.245078862E-1	-8.439024925E0
1.849433422E0	-4.106594622E-1	4.495415986E-1	-8.469385147E0
1.852212714E0	-1.677791476E-1	5.613943934E-1	-8.516789436E0
1.854144922E0	5.326322280E-4	6.530070901E-1	-8.533833504E0
1.856244522E0	1.858886480E-1	7.627293468E-1	-8.531702995E0
1.857516075E0	3.744404614E-1	8.910937309E-1	-8.515191078E0
1.860303445E0	5.731122494E-1	1.029578090E0	-8.486429214E0
1.862333330E0	7.755125165E-1	1.191498280E0	-8.441688538E0
1.864118383E0	9.869675040E-1	1.363005877E0	-8.384696960E0
1.865614883E0	1.195759296E0	1.543568254E0	-8.310128212E0
1.868393676E0	1.400822759E0	1.717206359E0	-8.226504326E0
1.870336152E0	1.590972424E0	1.867941260E0	-8.137022972E0
1.872440099E0	1.773665309E0	2.004827738E0	-8.035822868E0
1.873708537E0	1.945172906E0	2.130528927E0	-7.928230762E0
1.876497984E0	2.114017248E0	2.265817404E0	-7.803061962E0
1.878527484E0	2.274339676E0	2.392584085E0	-7.678958893E0
1.880529753E0	2.422411442E0	2.508697748E0	-7.538876534E0
1.882168537E0	2.568885326E0	2.627474785E0	-7.380152225E0
1.884528330E0	2.703108549E0	2.736131668E0	-7.200122356E0
1.886522791E0	2.827744484E0	2.836266518E0	-7.021158218E0
1.888525253E0	2.936933994E0	2.932140350E0	-6.836867332E0
1.889789114E0	3.030144691E0	3.017361641E0	-6.649380684E0
1.892583291E0	3.113235474E0	3.080212116E0	-6.458165646E0
1.894515614E0	3.184607983E0	3.137736559E0	-6.216350555E0
1.896629945E0	3.242132425E0	3.189934492E0	-5.954828262E0
1.897902229E0	3.277818680E0	3.242132425E0	-5.682653427E0
1.900598075E0	3.293797731E0	3.291667223E0	-5.403021336E0
1.902717368E0	3.289536715E0	3.336408377E0	-5.099953651E0
1.904719368E0	3.261307240E0	3.379018784E0	-4.775580406E0
1.906028537E0	3.210707188E0	3.428020954E0	-4.430967331E0
1.908776676E0	3.135605812E0	3.475425243E0	-4.055461884E0
1.910717037E0	3.033340454E0	3.519101143E0	-3.664509773E0
1.912807599E0	2.901247740E0	3.551059008E0	-3.247458696E0
1.914066421E0	2.740392923E0	3.563309669E0	-2.811765432E0
1.916864637E0	2.547047377E0	3.534014940E0	-2.359028101E0
1.918893945E0	2.320678711E0	3.458913803E0	-1.900431752E0
1.920957253E0	2.063949823E0	3.339604139E0	-1.429052234E0
1.922387498E0	1.776861072E0	3.176085949E0	-9.640643597E-1
1.924929560E0	1.462608099E0	2.974750996E0	-5.054680109E-1
1.926923676E0	1.138767719E0	2.741458178E0	-5.965480953E-2
1.928926406E0	8.064051867E-1	2.477805138E0	3.691141307E-1
1.930341383E0	4.756405652E-1	2.194444895E0	7.739146352E-1
1.932983637E0	1.528654546E-1	1.886583328E0	1.144626617E0
1.934905306E0	-1.512675583E-1	1.560079813E0	1.480717540E0
1.937014906E0	-4.351605177E-1	1.219195127E0	1.779524326E0
1.938284383E0	-6.982808709E-1	8.591358066E-1	2.038383484E0
1.941010075E0	-9.294432402E-1	4.910869002E-1	2.264752150E0
1.943101983E0	-1.134506702E0	1.129180342E-1	2.452238798E0
1.944892652E0	-1.311340570E0	-2.689792812E-1	2.607767344E0
1.946445345E0	-1.454618573E0	-6.514092088E-1	2.730805397E0
1.949176483E0	-1.618136764E0	-1.213336229E0	2.863430977E0
1.951154768E0	-1.690574646E0	-1.573928237E0	2.916694164E0
1.953209060E0	-1.731587410E0	-1.920671821E0	2.950782537E0
1.954620652E0	-1.744903207E0	-2.250903845E0	2.972087860E0
1.957266599E0	-1.732120037E0	-2.560895681E0	2.977414131E0
1.959224768E0	-1.693770528E0	-2.848517179E0	2.963565826E0
1.961297676E0	-1.634648323E0	-3.108441591E0	2.942793131E0
1.962709806E0	-1.553688169E0	-3.340136766E0	2.907106638E0
1.965296560E0	-1.453553319E0	-3.545200109E0	2.863963604E0
1.967208229E0	-1.341700554E0	-3.720436096E0	2.814428806E0
1.969307560E0	-1.218662500E0	-3.869573116E0	2.759034872E0
1.970586575E0	-1.085504532E0	-3.990480661E0	2.702575922E0
1.973365060E0	-9.491506219E-1	-4.078897476E0	2.640257835E0
1.975304614E0	-8.090683818E-1	-4.140150070E0	2.576874733E0
1.977397522E0	-6.588660479E-1	-4.174238682E0	2.508697748E0
1.978672998E0	-5.118595958E-1	-4.186489105E0	2.440520763E0
1.981398460E0	-3.632551730E-1	-4.173173428E0	2.367550135E0
1.983484829E0	-2.151834220E-1	-4.142813683E0	2.288720608E0
1.985461691E0	-6.870955974E-2	-4.091681004E0	2.212554216E0
1.986742537E0	7.669904083E-2	-4.022971153E0	2.133192062E0
1.989544675E0	2.119876295E-1	-3.934554338E0	2.051166773E0
1.991483421E0	3.408846259E-1	-3.837082624E0	1.970206618E0
1.993590291E0	4.612595141E-1	-3.727360249E0	1.890844464E0
1.994971806E0	5.779059529E-1	-3.602724314E0	1.817341208E0
1.997648637E0	6.838997602E-1	-3.471696854E0	1.750229478E0
1.999678252E0	7.792409658E-1	-3.335343122E0	1.690574646E0
2.001680522E0	8.628641963E-1	-3.194728136E0	1.634115696E0
2.003112652E0	9.278453588E-1	-3.059972048E0	1.578189254E0
2.005689445E0	9.869675040E-1	-2.920422554E0	1.528654456E0
2.007584844E0	1.031175971E0	-2.778209686E0	1.476989150E0
2.009686291E0	1.066329718E0	-2.634931564E0	1.420530200E0
2.010969575E0	1.089232922E0	-2.491120815E0	1.368332148E0
2.013744252E0	1.110005617E0	-2.343581915E0	1.320395350E0
2.015681421E0	1.115331888E0	-2.192846775E0	1.269795179E0
2.017790445E0	1.114799261E0	-2.042111874E0	1.222391009E0
2.019131998E0	1.104679227E0	-1.891909719E0	1.177117229E0
2.021848252E0	1.088700294E0	-1.743837953E0	1.133973956E0
2.023875806E0	1.063666582E0	-1.596298814E0	1.094026566E0
2.025653806E0	1.032241225E0	-1.449824929E0	1.050883412E0
2.027206152E0	9.901633263E-1	-1.304416299E0	1.012533903E0
2.029937637E0	9.443569183E-1	-1.163268805E0	9.763149023E-1
2.031872806E0	8.900284767E-1	-1.023186564E0	9.347695708E-1
2.033969714E0	8.303736448E-1	-8.788431883E-1	8.953547478E-1
2.035473998E0	7.653924823E-1	-7.360977530E-1	8.580704927E-1
2.038027560E0	7.004113793E-1	-5.912217498E-1	8.255799413E-1
2.039974075E0	6.348975897E-1	-4.447479248E-1	7.957525253E-1
2.042074444E0	5.640575290E-1	-3.078614175E-1	7.675230503E-1
2.043530883E0	4.900216460E-1	-1.778991669E-1	7.387608886E-1
2.046082598E0	4.149205089E-1	-5.965480953E-2	7.131945491E-1
2.047990729E0	3.355582952E-1	4.580637068E-2	6.817692518E-1
2.050078906E0	2.508697808E-1	1.395496428E-1	6.492787004E-1
2.051349460E0	1.672465205E-1	2.205097377E-1	6.157228351E-1
2.054136060E0	3.408846259E-2	3.126551211E-1	5.651227832E-1
2.056018191E0	-5.379585549E-2	3.536677957E-1	5.267732739E-1
2.058167714E0	-1.406149119E-1	3.850930929E-1	4.814995229E-1
2.059377037E0	-2.226402760E-1	4.069310129E-1	4.372910559E-1
2.062063614E0	-2.961435318E-1	4.250405133E-1	3.936152160E-1
2.064224537E0	-3.589941263E-1	4.372910559E-1	3.520699143E-1
2.066199614E0	-4.143878818E-1	4.468784332E-1	3.153182864E-1
2.067591652E0	-4.601942301E-1	4.511395097E-1	2.732403278E-1
2.070328752E0	-5.022721887E-1	4.522047639E-1	2.332929224E-1
2.072234768E0	-5.315669775E-1	4.458131790E-1	1.981391907E-1
2.074359675E0	-5.544701219E-1	4.324973822E-1	1.603222936E-1
2.075627229E0	-5.715143681E-1	4.170510471E-1	1.198422536E-1
2.078418021E0	-5.816344023E-1	3.866910040E-1	8.255799860E-2
2.080447483E0	-5.832322836E-1	3.542004228E-1	5.060006306E-2
2.082449867E0	-5.757754445E-1	3.121224940E-1	2.077265643E-2
2.083890998E0	-5.608617067E-1	2.668487430E-1	2.130528912E-3
2.086448598E0	-5.352953672E-1	2.226402760E-1	-1.917476021E-2
2.088443021E0	-5.049353242E-1	1.821602285E-1	-2.343581803E-2
2.090459521E0	-4.687163532E-1	1.454086006E-1	-2.822950855E-2
2.091704575E0	-4.314320982E-1	1.187769845E-1	-3.036003746E-2
2.094517213E0	-3.882888854E-1	9.534116834E-2	-3.195793182E-2
2.096449691E0	-3.382214606E-1	8.042746782E-2	-2.609897964E-2
2.098549290E0	-2.908172011E-1	7.297061384E-2	-2.396845073E-2
2.099811883E0	-2.396845073E-1	6.657902896E-2	-2.183792181E-2
2.102478537E0	-1.880191714E-1	6.072007492E-2	-1.171790902E-2
2.104620075E0	-1.390170157E-1	6.285060197E-2	-2.130528912E-3
2.106387652E0	-8.841694891E-2	6.444849819E-2	4.793690052E-3
2.107894960E0	-4.314320907E-2	6.764429063E-2	1.704423130E-2
2.110695406E0	-3.728425596E-3	7.350324839E-2	2.503371425E-2
2.112644498E0	3.462109342E-2	7.829693705E-2	3.249056637E-2
2.114741060E0	7.030745596E-2	7.723167539E-2	4.367584363E-2
2.115998998E0	9.853696078E-2	8.042746782E-2	4.953479767E-2
2.118798713E0	1.230380461E-1	7.669904083E-2	5.379585549E-2
2.120781691E0	1.406149119E-1	7.030745596E-2	5.858954415E-2
2.122830098E0	1.533980817E-1	6.178534031E-2	6.178534031E-2
2.124244498E0	1.624528319E-1	5.166532472E-2	6.125270575E-2
2.126830021E0	1.613875628E-1	4.101268202E-2	6.604639441E-2
2.128824444E0	1.613875628E-1	2.663161233E-2	6.817692518E-2
2.130827444E0	1.539307088E-1	1.384843793E-2	6.924218684E-2
2.132097075E0	1.443433315E-1	3.195793368E-3	7.084008306E-2
2.134885213E0	1.336906850E-1	-7.989482954E-3	7.456851006E-2
2.136860152E0	1.161138266E-1	-1.757686399E-2	7.669904083E-2
2.138931867E0	9.480853379E-2	-2.769687586E-2	8.202536404E-2
2.140202075E0	7.456851006E-2	-3.249056637E-2	8.894958347E-2
2.142915806E0	5.539375171E-2	-3.781688958E-2	9.427590668E-2
2.145000498E0	3.408846259E-2	-4.154531285E-2	1.006674916E-1
2.147012421E0	1.384843793E-2	-4.314320907E-2	1.081243455E-1
2.148400498E0	-6.391586736E-3	-4.101268202E-2	1.161138266E-1
2.151080521E0	-2.822950855E-2	-3.994741663E-2	1.225054115E-1
2.153012114E0	-4.580637068E-2	-3.408846259E-2	1.304948926E-1
2.155112252E0	-6.391586363E-2	-2.716424316E-2	1.363538504E-1
2.156517575E0	-7.723167539E-2	-1.970739290E-2	1.384843737E-1
2.159169675E0	-9.534116834E-2	-9.054748341E-3	1.475391239E-1
2.161198752E0	-1.059938148E-1	-1.597896684E-3	1.533980817E-1
2.163215290E0	-1.102548689E-1	5.326322280E-3	1.560612470E-1
2.164702575E0	-1.150485575E-1	1.171790902E-2	1.587243974E-1
2.167225906E0	-1.161138266E-1	1.810949668E-2	1.576591432E-1
2.169220213E0	-1.171790883E-1	2.077265643E-2	1.592570394E-1
2.171222636E0	-1.155811921E-1	2.396845073E-2	1.555286050E-1
2.172608421E0	-1.086569726E-1	2.609897964E-2	1.549959779E-1
2.175281136E0	-1.049285457E-1	2.822950855E-2	1.528654546E-1
2.177195075E0	-9.534116834E-2	2.769687586E-2	1.502022892E-1
2.179313252E0	-8.788431436E-2	3.089267015E-2	1.464738697E-1
2.180557537E0	-7.829693705E-2	3.036003746E-2	1.411475390E-1
2.183370521E0	-6.977482140E-2	2.982740477E-2	1.368864775E-1
2.185399521E0	-5.699164793E-2	3.036003746E-2	1.315601617E-1
2.187190383E0	-4.633900523E-2	2.982740477E-2	1.262338310E-1
2.188675767E0	-3.781688958E-2	3.036003746E-2	1.257012039E-1
2.191472752E0	-2.982740477E-2	2.876213938E-2	1.230380461E-1
2.193451998E0	-2.343581803E-2	2.876213938E-2	1.219727769E-1
2.195504213E0	-1.917476021E-2	2.556634694E-2	1.272991002E-1
2.196896691E0	-1.757686399E-2	2.343581803E-2	1.299622655E-1
2.199560790E0	-2.077265643E-2	2.130528912E-2	1.331580579E-1
2.201586691E0	-2.130528912E-2	1.704423130E-2	1.363538504E-1
2.203591482E0	-2.769687586E-2	8.522115648E-3	1.379517466E-1
2.205028921E0	-3.515372798E-2	3.195793368E-3	1.395496428E-1
2.207587752E0	-4.314320907E-2	-6.924218964E-3	1.379517466E-1
2.209519190E0	-5.166532472E-2	-1.225054078E-2	1.304948926E-1
2.211597905E0	-6.125270575E-2	-1.917476021E-2	1.320927888E-1
2.212874652E0	-6.657902896E-2	-2.450108156E-2	1.267664731E-1
2.215655213E0	-7.084008306E-2	-2.396845073E-2	1.251685768E-1
2.217646075E0	-7.776430249E-2	-2.982740477E-2	1.225054115E-1
2.219686021E0	-8.894958347E-2	-3.355583176E-2	1.187769845E-1
2.221019229E0	-9.374327213E-2	-3.675162420E-2	1.123853996E-1
2.223632537E0	-9.960222989E-2	-4.261057824E-2	1.102548689E-1
2.225772944E0	-1.049285457E-1	-4.740426689E-2	1.091896072E-1
2.227765575E0	-1.091896072E-1	-5.006742850E-2	1.107875034E-1
2.229045537E0	-1.139832959E-1	-5.113269389E-2	1.107875034E-1
2.231832136E0	-1.150485575E-1	-4.846953228E-2	1.139832959E-1
2.233776998E0	-1.150485575E-1	-4.420847446E-2	1.171790883E-1
2.235877328E0	-1.102548689E-1	-3.515372798E-2	1.171790883E-1
2.237152037E0	-1.129180342E-1	-2.503371425E-2	1.203748807E-1
2.239934905E0	-1.075917110E-1	-1.278317347E-2	1.198422536E-1
2.241866767E0	-1.070590764E-1	-6.391586736E-3	1.166464612E-1
2.243966328E0	-1.086569726E-1	-5.326322280E-4	1.161138266E-1
2.245393883E0	-1.107875034E-1	2.130528912E-3	1.123853996E-1
2.247974751E0	-1.139832959E-1	5.326322280E-4	1.118527651E-1
2.249969021E0	-1.118527651E-1	5.326322280E-4	1.091896072E-1
2.251971136E0	-1.118527651E-1	-2.130528912E-3	1.118527651E-1
2.253201190E0	-1.129180342E-1	-6.391586736E-3	1.113201380E-1
2.256028021E0	-1.107875034E-1	-8.522115648E-3	1.123853996E-1
2.257957498E0	-1.097222418E-1	-1.278317347E-2	1.145159304E-1
2.260073367E0	-1.043959185E-1	-2.024002373E-2	1.155811921E-1
2.261338075E0	-1.012001261E-1	-2.450108156E-2	1.198422536E-1
2.264030037E0	-9.321063757E-2	-3.994741663E-2	1.257012039E-1
2.266158713E0	-8.522115648E-2	-4.740426689E-2	1.315601617E-1
2.268020037E0	-7.776430249E-2	-6.072007492E-2	1.374191195E-1
2.269423114E0	-7.137271762E-2	-7.084008306E-2	1.379517466E-1
2.272218136E0	-6.391586363E-2	-8.468852192E-2	1.427454352E-1
2.274214037E0	-5.486112088E-2	-9.534116834E-2	1.464738697E-1
2.276249097E0	-5.060006306E-2	-1.059938148E-1	1.475391239E-1
2.277505921E0	-4.048004746E-2	-1.203748807E-1	1.502022892E-1
2.280306405E0	-3.355583176E-2	-1.336906850E-1	1.518001854E-1
2.282285767E0	-2.663161233E-2	-1.459412277E-1	1.502022892E-1
2.284352713E0	-2.077265643E-2	-1.576591432E-1	1.523328125E-1
2.285790614E0	-1.810949668E-2	-1.688444167E-1	1.496696621E-1
2.288359020E0	-1.544633508E-2	-1.832254827E-1	1.486043930E-1
2.290259152E0	-1.331580617E-2	-1.938781291E-1	1.507349163E-1
2.292354982E0	-1.331580617E-2	-2.050634027E-1	1.496696621E-1
2.293718652E0	-1.278317347E-2	-2.157160491E-1	1.528654546E-1
2.296411828E0	-1.491370238E-2	-2.247707993E-1	1.507349163E-1
2.298352267E0	-1.438106969E-2	-2.370213419E-1	1.518001854E-1
2.300442290E0	-1.970739290E-2	-2.460760921E-1	1.544633508E-1
2.301777883E0	-2.183792181E-2	-2.530003190E-1	1.555286050E-1
2.304454690E0	-2.503371425E-2	-2.604571581E-1	1.571265012E-1
2.306527828E0	-3.195793182E-2	-2.657834888E-1	1.597896665E-1
2.308476075E0	-3.462109342E-2	-2.673813701E-1	1.581917703E-1
2.309829421E0	-3.781688958E-2	-2.631203234E-1	1.619201899E-1
2.312599982E0	-3.994741663E-2	-2.540655732E-1	1.613875628E-1
2.314628059E0	-4.101268202E-2	-2.428802997E-1	1.613875628E-1
2.316629443E0	-4.474110901E-2	-2.242381722E-1	1.635181010E-1
2.317933690E0	-4.687163606E-2	-2.008023560E-1	1.709749401E-1
2.320685790E0	-5.113269389E-2	-1.752360016E-1	1.757686287E-1
2.322697883E0	-5.326322466E-2	-1.480717659E-1	1.794970632E-1
2.324715866E0	-5.752427876E-2	-1.193096191E-1	1.858886480E-1
2.326212113E0	-6.125270575E-2	-9.054747969E-2	1.917476058E-1
2.328713982E0	-6.817692518E-2	-6.285060197E-2	1.970739216E-1
2.330708059E0	-7.297061384E-2	-3.568635881E-2	2.008023560E-1
2.332724866E0	-7.936219871E-2	-1.278317347E-2	2.024002522E-1
2.334050844E0	-8.628641814E-2	7.989482954E-3	2.050634027E-1
2.336781789E0	-9.587380290E-2	2.503371425E-2	2.093244642E-1
2.338810943E0	-1.006674916E-1	3.994741663E-2	2.098570913E-1
2.340812674E0	-1.091896072E-1	5.166532472E-2	2.098570913E-1
2.342106229E0	-1.171790883E-1	5.965480953E-2	2.103897333E-1
2.344784960E0	-1.257012039E-1	6.231797114E-2	2.087918371E-1
2.346899136E0	-1.320927888E-1	6.391586363E-2	2.071939409E-1
2.348756383E0	-1.374191195E-1	6.125270575E-2	2.024002522E-1
2.350386190E0	-1.427454352E-1	5.592638254E-2	1.981391907E-1
2.352958289E0	-1.459412277E-1	5.006742850E-2	1.901497096E-1
2.354966613E0	-1.491370201E-1	4.207794741E-2	1.874865443E-1
2.357003328E0	-1.502022892E-1	3.515372798E-2	1.816275865E-1
2.358301344E0	-1.533980817E-1	2.503371425E-2	1.800296903E-1
2.361060097E0	-1.523328125E-1	1.544633508E-2	1.805623323E-1
2.363088982E0	-1.523328125E-1	2.130528912E-3	1.784317940E-1
2.365090866E0	-1.486043930E-1	-1.118527725E-2	1.794970632E-1
2.366829883E0	-1.507349163E-1	-2.290318534E-2	1.789644361E-1
2.369088636E0	-1.411475390E-1	-4.367584363E-2	1.832254827E-1
2.371082289E0	-1.406149119E-1	-5.006742850E-2	1.816275865E-1
2.373083635E0	-1.390170157E-1	-6.498113275E-2	1.912149638E-1
2.374656844E0	-1.347559541E-1	-7.616640627E-2	1.981391907E-1
2.377139943E0	-1.257012039E-1	-9.374327213E-2	2.098570913E-1
2.379158844E0	-1.214401498E-1	-1.059938148E-1	2.173139453E-1
2.381185866E0	-1.171790883E-1	-1.187769845E-1	2.242381722E-1
2.382493421E0	-1.081243455E-1	-1.299622655E-1	2.279665917E-1
2.385242943E0	-1.022653878E-1	-1.443433315E-1	2.322276533E-1
2.387271789E0	-9.534116834E-2	-1.565938741E-1	2.354234457E-1
2.389274289E0	-8.948221803E-2	-1.683117896E-1	2.343581766E-1
2.390736652E0	-8.255799860E-2	-1.800296903E-1	2.332929224E-1
2.393331674E0	-7.723167539E-2	-1.912149638E-1	2.306297570E-1
2.395205921E0	-7.084008306E-2	-2.045307755E-1	2.284992188E-1
2.397363866E0	-6.498113275E-2	-2.167813182E-1	2.221076339E-1
2.398597998E0	-5.912217870E-2	-2.338255495E-1	2.157160491E-1
2.401421328E0	-5.858954415E-2	-2.551308274E-1	2.098570913E-1
2.403373075E0	-5.858954415E-2	-2.764361203E-1	2.008023560E-1
2.405468443E0	-6.178534031E-2	-3.046656251E-1	1.938781291E-1
2.406832767E0	-6.338323653E-2	-3.318298757E-1	1.842907518E-1
2.409476943E0	-6.604639441E-2	-3.637878001E-1	1.747033745E-1
2.411388844E0	-6.817692518E-2	-3.994741738E-1	1.608549356E-1
2.413473058E0	-6.764429063E-2	-4.404868484E-1	1.507349163E-1
2.414682344E0	-6.551376730E-2	-4.852279723E-1	1.358212233E-1
2.417531174E0	-6.444849819E-2	-5.358279943E-1	1.219727769E-1
2.419482767E0	-6.125270575E-2	-5.864281058E-1	1.070590764E-1
2.421562597E0	-5.965480953E-2	-6.407565475E-1	9.480853379E-2
2.422856767E0	-5.699164793E-2	-6.961503029E-1	8.255799860E-2
2.425539690E0	-5.326322466E-2	-7.558051348E-1	7.510114461E-2
2.427648866E0	-4.953479767E-2	-8.181231022E-1	6.231797114E-2
2.429520267E0	-4.740426689E-2	-8.756473660E-1	5.805691332E-2
2.430953267E0	-4.740426689E-2	-9.321063757E-1	5.432848632E-2
2.433724174E0	-4.314320907E-2	-9.827064872E-1	5.006742850E-2
2.435642613E0	-4.314320907E-2	-1.029578090E0	4.580637068E-2
2.437755866E0	-4.101268202E-2	-1.068460226E0	4.261057824E-2
2.439052267E0	-3.888215125E-2	-1.105744481E0	3.994741663E-2
2.441813097E0	-4.048004746E-2	-1.136637211E0	3.089267015E-2
2.443766883E0	-4.261057824E-2	-1.164334059E0	2.609897964E-2
2.445845481E0	-4.314320907E-2	-1.186704636E0	2.290318534E-2
2.447235498E0	-4.633900523E-2	-1.203216195E0	1.757686399E-2
2.449843866E0	-4.740426689E-2	-1.208009839E0	1.491370238E-2
2.451774306E0	-4.953479767E-2	-1.206944585E0	1.012001187E-2
2.453855712E0	-4.580637068E-2	-1.193096161E0	6.391586736E-3
2.455204190E0	-3.994741663E-2	-1.174986720E0	4.793690052E-3
2.457912827E0	-3.249056637E-2	-1.149953008E0	3.728425596E-3
2.459941751E0	-2.609897964E-2	-1.120125532E0	0.000000000E0
2.461943597E0	-1.917476021E-2	-1.092428684E0	-3.195793368E-3
2.463195421E0	-2.663161140E-3	-1.067927599E0	-3.728425596E-3
2.465851767E0	1.065264456E-2	-1.043426514E0	5.326322280E-4
2.467998575E0	2.556634694E-2	-1.013599157E0	-1.597896684E-3
2.469973383E0	3.675162420E-2	-9.683253765E-1	1.065264456E-3
2.471287883E0	4.367584363E-2	-9.150621891E-1	-5.326322280E-4
2.474089097E0	4.580637068E-2	-8.436894417E-1	-2.130528912E-3
2.476117981E0	4.687163606E-2	-7.137271762E-1	-1.118527725E-2
2.478135289E0	4.154531285E-2	-6.162554622E-1	-1.278317347E-2
2.479413690E0	3.941478580E-2	-5.118595958E-1	-2.183792181E-2
2.482192481E0	3.249056637E-2	-4.058657587E-1	-2.769687586E-2
2.484185690E0	2.556634694E-2	-2.998719513E-1	-3.302319720E-2
2.486224327E0	1.810949668E-2	-1.997370869E-1	-3.728425503E-2
2.487627613E0	1.225054078E-2	-1.017327532E-1	-4.580637068E-2
2.490233097E0	3.195793368E-3	-1.491370238E-2	-4.740426689E-2
2.492131267E0	-6.924218964E-3	6.764429063E-2	-5.060006306E-2
2.494229866E0	-1.491370238E-2	1.454086006E-1	-5.752427876E-2
2.495549729E0	-2.556634694E-2	2.114549875E-1	-6.444849819E-2
2.498287558E0	-3.621899337E-2	2.716424465E-1	-7.297061384E-2
2.500221152E0	-4.580637068E-2	3.211772442E-1	-8.309062570E-2
2.502333789E0	-5.486112088E-2	3.653857112E-1	-9.161274135E-2
2.503637767E0	-6.817692518E-2	3.962783813E-1	-1.027980223E-1
2.506268536E0	-7.776430249E-2	4.207794666E-1	-1.177117229E-1
2.508420135E0	-8.948221803E-2	4.330300093E-1	-1.315601617E-1
2.510268190E0	-1.001348570E-1	4.431500137E-1	-1.470064968E-1
2.511671113E0	-1.086569726E-1	4.404868484E-1	-1.581917703E-1
2.514479596E0	-1.177117229E-1	4.388889670E-1	-1.763012707E-1
2.516416960E0	-1.257012039E-1	4.287689328E-1	-1.896170676E-1
2.518510558E0	-1.347559541E-1	4.143878818E-1	-2.066612989E-1
2.519885267E0	-1.422128081E-1	3.941478431E-1	-2.194444835E-1
2.522567750E0	-1.496696621E-1	3.717772961E-1	-2.348908186E-1
2.524596520E0	-1.565938741E-1	3.435477912E-1	-2.514024079E-1
2.526613096E0	-1.629854590E-1	3.078614175E-1	-2.620550692E-1
2.528465036E0	-1.672465205E-1	2.684466541E-1	-2.748382390E-1
2.530620712E0	-1.736381054E-1	2.269013226E-1	-2.908172011E-1
2.532536883E0	-1.778991669E-1	1.778991669E-1	-3.067961633E-1
2.534615789E0	-1.837581247E-1	1.278317273E-1	-3.259709179E-1
2.535877652E0	-1.837581247E-1	7.616640627E-2	-3.419498801E-1
2.538673250E0	-1.880191714E-1	2.556634694E-2	-3.664509654E-1
2.540606844E0	-1.885518134E-1	-2.503371425E-2	-3.861583769E-1
2.542704250E0	-1.874865443E-1	-6.977482140E-2	-4.079962969E-1
2.544064921E0	-1.874865443E-1	-1.086569726E-1	-4.261057973E-1
2.546737652E0	-1.832254827E-1	-1.395496428E-1	-4.452805519E-1
2.548790096E0	-1.778991669E-1	-1.629854590E-1	-4.612595141E-1
2.550807212E0	-1.747033745E-1	-1.741707325E-1	-4.767058492E-1
2.552218306E0	-1.656486243E-1	-1.832254827E-1	-4.900216460E-1
2.554863058E0	-1.592570394E-1	-1.960086524E-1	-4.932174385E-1
2.556794652E0	-1.533980817E-1	-2.098570913E-1	-4.905542731E-1
2.558893596E0	-1.480717659E-1	-2.391518652E-1	-4.772384763E-1
2.560569152E0	-1.475391239E-1	-2.860234976E-1	-4.575310946E-1
2.562950635E0	-1.512675583E-1	-3.467435837E-1	-4.277036786E-1
2.564979558E0	-1.571265012E-1	-4.127899706E-1	-3.946804702E-1
2.566981135E0	-1.645833552E-1	-4.820321798E-1	-3.605920076E-1
2.568463536E0	-1.741707325E-1	-5.464806557E-1	-3.265035450E-1
2.570978942E0	-1.869539171E-1	-6.056028605E-1	-2.977414131E-1
2.572972942E0	-1.997370869E-1	-6.535397172E-1	-2.732403278E-1
2.574989558E0	-2.146507949E-1	-6.924219131E-1	-2.567287385E-1
2.576238152E0	-2.274339646E-1	-7.179882526E-1	-2.439455539E-1
2.579046904E0	-2.364887148E-1	-7.334345579E-1	-2.364887148E-1
2.580976421E0	-2.460760921E-1	-7.323693037E-1	-2.338255495E-1
2.583077519E0	-2.514024079E-1	-7.222493291E-1	-2.338255495E-1
2.584440998E0	-2.572613657E-1	-7.046724558E-1	-2.391518652E-1
2.587080921E0	-2.583266199E-1	-6.695187092E-1	-2.466087192E-1
2.589163827E0	-2.583266199E-1	-6.439523697E-1	-2.508697808E-1
2.591055690E0	-2.615224123E-1	-6.221144199E-1	-2.577939928E-1
2.592563267E0	-2.641855776E-1	-5.997439027E-1	-2.636529505E-1
2.595223096E0	-2.663161159E-1	-5.874933600E-1	-2.705771625E-1
2.597173075E0	-2.673813701E-1	-5.805691481E-1	-2.769687474E-1
2.599268365E0	-2.716424465E-1	-5.805691481E-1	-2.854908705E-1
2.600540344E0	-2.759034932E-1	-5.880259871E-1	-2.886866629E-1
2.603325442E0	-2.806971967E-1	-6.045376062E-1	-2.956108749E-1
2.605354250E0	-2.865561247E-1	-6.269081235E-1	-2.982740402E-1
2.607356327E0	-2.950782478E-1	-6.546050310E-1	-3.009372056E-1
2.608816152E0	-2.982740402E-1	-6.849650741E-1	-3.030677438E-1
2.611354365E0	-3.014698327E-1	-7.110640407E-1	-3.025351167E-1
2.613283729E0	-3.014698327E-1	-7.344998717E-1	-3.009372056E-1
2.615349904E0	-3.036003709E-1	-7.558051348E-1	-3.014698327E-1
2.616815459E0	-2.977414131E-1	-7.813714743E-1	-2.988066673E-1
2.619407288E0	-2.913498282E-1	-8.058725595E-1	-2.988066673E-1
2.621318459E0	-2.892192900E-1	-8.319715261E-1	-2.972087860E-1
2.623452981E0	-2.849582434E-1	-8.665926456E-1	-2.929477394E-1
2.624746229E0	-2.759034932E-1	-9.097358584E-1	-2.876214087E-1
2.627392075E0	-2.753708661E-1	-9.645969868E-1	-2.796319127E-1
2.629539558E0	-2.769687474E-1	-1.030643344E0	-2.759034932E-1
2.631503998E0	-2.780340314E-1	-1.097755075E0	-2.695119083E-1
2.632828613E0	-2.753708661E-1	-1.162203550E0	-2.663161159E-1
2.635599288E0	-2.721750736E-1	-1.217597246E0	-2.620550692E-1
2.637563075E0	-2.657834888E-1	-1.269795179E0	-2.625876963E-1
2.639630365E0	-2.631203234E-1	-1.317732096E0	-2.609897852E-1
2.641081382E0	-2.561961114E-1	-1.355548978E0	-2.695119083E-1
2.643687250E0	-2.514024079E-1	-1.390170097E0	-2.812298238E-1
2.645715634E0	-2.471413612E-1	-1.413605928E0	-2.913498282E-1
2.647731904E0	-2.364887148E-1	-1.425323844E0	-3.110572100E-1
2.649396036E0	-2.226402760E-1	-1.422660708E0	-3.312972486E-1
2.651738288E0	-2.093244642E-1	-1.405083776E0	-3.542004228E-1
2.653688421E0	-1.928128600E-1	-1.391235352E0	-3.712446690E-1
2.655733750E0	-1.944107562E-1	-1.401888013E0	-3.925499618E-1
2.657042421E0	-1.906823367E-1	-1.403485894E0	-4.122573435E-1
2.659790865E0	-1.752360016E-1	-1.386974335E0	-4.106594622E-1
2.661734190E0	-1.635181010E-1	-1.359277487E0	-4.042678475E-1
2.663821750E0	-1.427454352E-1	-1.304948926E0	-3.909520507E-1
2.665162613E0	-1.155811921E-1	-1.230913043E0	-3.675162494E-1
2.667830729E0	-9.374327213E-2	-1.163801432E0	-3.408846259E-1
2.669909942E0	-6.498113275E-2	-1.090298176E0	-3.163835406E-1
2.671886806E0	-3.888215125E-2	-1.019458055E0	-2.838929892E-1
2.673224844E0	-1.917476021E-2	-9.614011645E-1	-2.524676621E-1
2.675985096E0	3.728425596E-3	-9.038769007E-1	-2.141181529E-1
2.678014096E0	2.024002373E-2	-8.538094759E-1	-1.773665249E-1
2.680015365E0	3.195793182E-2	-8.117315173E-1	-1.390170157E-1
2.681587306E0	5.060006306E-2	-7.755125165E-1	-1.075917110E-1
2.684072942E0	5.965480953E-2	-7.323693037E-1	-7.084008306E-2
2.686094459E0	6.125270575E-2	-7.185208797E-1	-5.166532472E-2
2.688104173E0	6.072007492E-2	-7.073355913E-1	-3.568635881E-2
2.689720921E0	5.752427876E-2	-7.062703371E-1	-2.822950855E-2
2.692105711E0	5.060006306E-2	-7.062703371E-1	-1.917476021E-2
2.694071882E0	4.420847446E-2	-7.025418878E-1	-1.544633508E-2
2.696116480E0	3.675162420E-2	-6.966829300E-1	-6.924218964E-3
2.697404998E0	2.929477207E-2	-6.849650741E-1	-2.130528912E-3
2.700174327E0	2.130528912E-2	-6.689860821E-1	4.261057824E-3
2.702138190E0	1.704423130E-2	-6.466155052E-1	2.663161140E-3
2.704205750E0	9.054748341E-3	-6.263754964E-1	7.456851192E-3
2.705488844E0	0.000000000E0	-6.050702333E-1	9.054748341E-3
2.708251536E0	-1.118527725E-2	-5.805691481E-1	9.054748341E-3
2.710293250E0	-2.024002373E-2	-5.581985712E-1	9.587380104E-3
2.712238806E0	-2.769687586E-2	-5.331648588E-1	8.522115648E-3
2.713665036E0	-3.888215125E-2	-5.134574771E-1	7.456851192E-3
2.716354250E0	-4.474110901E-2	-4.921521842E-1	4.261057824E-3
2.718383788E0	-5.432848632E-2	-4.681837261E-1	3.195793368E-3
2.720401865E0	-6.231797114E-2	-4.452805519E-1	-1.065264456E-3
2.722016690E0	-6.657902896E-2	-4.234426320E-1	-1.597896684E-3
2.724460096E0	-6.924218684E-2	-3.989415467E-1	-7.456851192E-3
2.726391267E0	-7.403588295E-2	-3.776362538E-1	-7.989482954E-3
2.728491711E0	-7.456851006E-2	-3.504720032E-1	-1.171790902E-2
2.729880652E0	-7.243798673E-2	-3.254382908E-1	-1.651159860E-2
2.732500942E0	-6.817692518E-2	-2.956108749E-1	-2.396845073E-2
2.734373344E0	-5.912217870E-2	-2.647182047E-1	-3.089267015E-2
2.736498365E0	-5.006742850E-2	-2.348908186E-1	-4.207794741E-2
2.737866152E0	-4.101268202E-2	-2.114549875E-1	-5.273059011E-2
2.740556596E0	-3.142530099E-2	-1.912149638E-1	-6.977482140E-2
2.742585826E0	-2.183792181E-2	-1.715075821E-1	-7.723167539E-2
2.744602865E0	-1.065264456E-2	-1.539307088E-1	-8.522115648E-2
2.745961421E0	1.597896684E-3	-1.379517466E-1	-8.894958347E-2
2.748660442E0	1.544633508E-2	-1.193096191E-1	-9.001484513E-2
2.750689749E0	3.408846259E-2	-1.022653878E-1	-8.362326026E-2
2.752673498E0	5.219795927E-2	-8.309062570E-2	-7.297061384E-2
2.753984767E0	7.030745596E-2	-6.018744037E-2	-6.018744037E-2
2.756749249E0	9.054747969E-2	-3.195793182E-2	-5.166532472E-2
2.758681536E0	1.155811921E-1	-3.728425596E-3	-3.142530099E-2
2.760779865E0	1.368864775E-1	2.876213938E-2	-1.651159860E-2
2.762170575E0	1.539307088E-1	5.539375171E-2	3.728425596E-3
2.764837596E0	1.709749401E-1	7.563377917E-2	2.450108156E-2
2.766811652E0	1.826928556E-1	8.735168725E-2	4.314320907E-2
2.768884211E0	1.906823367E-1	9.267801046E-2	6.231797114E-2
2.770311421E0	1.938781291E-1	9.427590668E-2	7.989483327E-2
2.772893096E0	1.976065636E-1	9.374327213E-2	9.267801046E-2
2.774792344E0	1.986718178E-1	9.374327213E-2	1.054611802E-1
2.776889249E0	2.002697140E-1	9.800432622E-2	1.166464612E-1
2.778195498E0	2.008023560E-1	1.038632840E-1	1.182443574E-1
2.780946634E0	1.997370869E-1	1.043959185E-1	1.241033077E-1
2.782900305E0	1.986718178E-1	1.012001261E-1	1.320927888E-1
2.784978057E0	1.890844405E-1	9.640643001E-2	1.368864775E-1
2.786301844E0	1.848233789E-1	9.640643001E-2	1.438107044E-1
2.788944575E0	1.826928556E-1	9.640643001E-2	1.448759735E-1
2.791064595E0	1.763012707E-1	1.145159304E-1	1.374191195E-1
2.793082365E0	1.720402092E-1	1.225054115E-1	1.278317273E-1
2.794370075E0	1.645833552E-1	1.235706806E-1	1.214401498E-1
2.797140095E0	1.518001854E-1	1.198422536E-1	1.129180342E-1
2.799168749E0	1.432780623E-1	1.134506613E-1	1.070590764E-1
2.801169980E0	1.283643693E-1	9.427590668E-2	1.075917110E-1
2.802608305E0	1.161138266E-1	7.297061384E-2	1.038632840E-1
2.805226942E0	1.017327532E-1	5.965480953E-2	1.022653878E-1
2.807255518E0	9.054747969E-2	5.006742850E-2	8.948221803E-2
2.809256903E0	7.723167539E-2	4.101268202E-2	7.936219871E-2
2.810704113E0	6.072007492E-2	2.183792181E-2	7.190535218E-2
2.813254442E0	4.527373984E-2	-9.587380104E-3	6.604639441E-2
2.815248672E0	2.450108156E-2	-4.687163606E-2	7.030745596E-2
2.817266326E0	3.195793368E-3	-9.108011425E-2	7.829693705E-2
2.818596613E0	-1.757686399E-2	-1.384843737E-1	8.788431436E-2
2.821323826E0	-3.675162420E-2	-1.880191714E-1	1.065264493E-1
2.823253344E0	-5.645901710E-2	-2.364887148E-1	1.246359423E-1
2.825354557E0	-7.137271762E-2	-2.764361203E-1	1.502022892E-1
2.826617113E0	-8.468852192E-2	-3.115898669E-1	1.699096859E-1
2.829363382E0	-9.374327213E-2	-3.435477912E-1	2.008023560E-1
2.831440249E0	-9.747169912E-2	-3.728425503E-1	2.253034264E-1
2.833253882E0	-1.006674916E-1	-4.106594622E-1	2.444781959E-1
2.834711536E0	-1.091896072E-1	-4.596616030E-1	2.684466541E-1
2.837498788E0	-1.171790883E-1	-5.134574771E-1	2.924150825E-1
2.839521882E0	-1.203748807E-1	-5.507417321E-1	3.025351167E-1
2.841544441E0	-1.134506613E-1	-5.699164867E-1	3.009372056E-1
2.842856805E0	-1.081243455E-1	-5.837649107E-1	2.838929892E-1
2.845601672E0	-9.587380290E-2	-5.858954787E-1	2.519350350E-1
2.847630711E0	-7.403588295E-2	-5.715143681E-1	2.066612989E-1
2.849632057E0	-4.580637068E-2	-5.491438508E-1	1.427454352E-1
2.851180690E0	-1.331580617E-2	-5.203816891E-1	6.977482140E-2
2.853628134E0	1.544633508E-2	-4.894890189E-1	-1.331580617E-2
2.855622480E0	4.367584363E-2	-4.676510990E-1	-1.043959185E-1
2.857624403E0	6.125270575E-2	-4.500742257E-1	-1.938781291E-1
2.858985652E0	7.297061384E-2	-4.426173866E-1	-2.780340314E-1
2.861681211E0	8.042746782E-2	-4.447479248E-1	-3.462109566E-1
2.863710211E0	7.510114461E-2	-4.495415986E-1	-4.074636400E-1
2.865727787E0	6.178534031E-2	-4.676510990E-1	-4.516721368E-1
2.867015152E0	4.580637068E-2	-4.905542731E-1	-4.793690145E-1
2.869684459E0	1.864212751E-2	-5.070658922E-1	-4.980111420E-1
2.871813787E0	-1.171790902E-2	-5.107942820E-1	-5.203816891E-1
2.873799459E0	-4.953479767E-2	-5.102616549E-1	-5.379585624E-1
2.875129882E0	-9.267801046E-2	-5.075985193E-1	-5.560680628E-1
2.877872172E0	-1.406149119E-1	-5.038700700E-1	-5.709817410E-1
2.879900980E0	-1.922802329E-1	-4.964132309E-1	-5.885586143E-1
2.881903018E0	-2.444781959E-1	-4.852279723E-1	-6.045376062E-1
2.883247113E0	-2.956108749E-1	-4.649879336E-1	-6.226470470E-1
2.885960134E0	-3.403519988E-1	-4.420847595E-1	-6.476807594E-1
2.887944575E0	-3.850930929E-1	-4.042678475E-1	-6.711165905E-1
2.890004749E0	-4.218447208E-1	-3.605920076E-1	-6.998787522E-1
2.891476421E0	-4.500742257E-1	-3.105245829E-1	-7.169229984E-1
2.894012672E0	-4.756405652E-1	-2.657834888E-1	-7.387608886E-1
2.896006518E0	-4.953479767E-1	-2.199771106E-1	-7.600662112E-1
2.898008864E0	-5.123922229E-1	-1.794970632E-1	-7.744472623E-1
2.899388075E0	-5.198490620E-1	-1.411475390E-1	-7.781757116E-1
2.902065710E0	-5.310343504E-1	-1.070590764E-1	-7.739146352E-1
2.904065921E0	-5.347627401E-1	-9.321063757E-2	-7.723167539E-1
2.906097287E0	-5.305017233E-1	-8.202536404E-2	-7.707188129E-1
2.907374267E0	-5.251753926E-1	-7.936219871E-2	-7.653924823E-1
2.910032728E0	-5.166532397E-1	-8.309062570E-2	-7.584682703E-1
2.912182749E0	-5.022721887E-1	-9.374327213E-2	-7.504788041E-1
2.913988344E0	-4.878911078E-1	-1.161138266E-1	-7.355651259E-1
2.915491305E0	-4.751079381E-1	-1.448759735E-1	-7.158577442E-1
2.918256133E0	-4.585963488E-1	-1.848233789E-1	-6.886934638E-1
2.920191728E0	-4.436826408E-1	-2.338255495E-1	-6.609966159E-1
2.922286903E0	-4.229099751E-1	-2.892192900E-1	-6.210491657E-1
2.923588267E0	-4.069310129E-1	-3.478088379E-1	-5.800365210E-1
2.926343749E0	-3.872236311E-1	-4.032025933E-1	-5.320996046E-1
2.928372826E0	-3.648530841E-1	-4.617921412E-1	-4.836300611E-1
2.930375556E0	-3.435477912E-1	-5.193164349E-1	-4.367584288E-1
2.931920152E0	-3.174487948E-1	-5.715143681E-1	-3.904194236E-1
2.934374018E0	-2.966761589E-1	-6.231797338E-1	-3.478088379E-1
2.936368518E0	-2.737729549E-1	-6.732471585E-1	-3.030677438E-1
2.938385095E0	-2.492718846E-1	-7.169229984E-1	-2.556634545E-1
2.939698652E0	-2.263686955E-1	-7.558051348E-1	-2.077265680E-1
2.942443095E0	-2.045307755E-1	-7.888283134E-1	-1.635181010E-1
2.944472287E0	-1.805623323E-1	-8.175904751E-1	-1.166464612E-1
2.946473941E0	-1.571265012E-1	-8.399610519E-1	-7.350324839E-2
2.947819421E0	-1.363538504E-1	-8.527442217E-1	-3.462109342E-2
2.950467113E0	-1.139832959E-1	-8.628641963E-1	1.597896684E-3
2.952560595E0	-9.747169912E-2	-8.692557812E-1	3.408846259E-2
2.954552767E0	-8.096009493E-2	-8.671252728E-1	5.858954415E-2
2.955854613E0	-6.870955974E-2	-8.639294505E-1	7.882957160E-2
2.958619826E0	-6.072007492E-2	-8.564726114E-1	1.038632840E-1
2.960609036E0	-5.592638254E-2	-8.426241875E-1	1.198422536E-1
2.962666210E0	-5.432848632E-2	-8.271778226E-1	1.358212233E-1
2.963934805E0	-5.645901710E-2	-8.053399324E-1	1.533980817E-1
2.966723864E0	-6.285060197E-2	-7.792409658E-1	1.688444167E-1
2.968752979E0	-7.084008306E-2	-7.451524734E-1	1.869539171E-1
2.970754633E0	-8.255799860E-2	-7.068029642E-1	2.055960447E-1
2.972279651E0	-9.480853379E-2	-6.583334208E-1	2.215750068E-1
2.974763056E0	-1.113201380E-1	-6.018744111E-1	2.375539690E-1
2.976757556E0	-1.251685768E-1	-5.363606811E-1	2.503371537E-1
2.978760018E0	-1.395496428E-1	-4.628573954E-1	2.604571581E-1
2.980209959E0	-1.539307088E-1	-3.813646734E-1	2.732403278E-1
2.982817018E0	-1.709749401E-1	-2.993393242E-1	2.822950780E-1
2.984845479E0	-1.837581247E-1	-2.125202566E-1	2.897519469E-1
2.986861902E0	-1.938781291E-1	-1.214401498E-1	3.020024598E-1
2.988179690E0	-2.055960447E-1	-3.036003746E-2	3.153182864E-1
2.990798805E0	-2.082591951E-1	6.125270575E-2	3.275688291E-1
2.992897844E0	-2.157160491E-1	1.454086006E-1	3.419498801E-1
2.994819459E0	-2.183792144E-1	2.311623842E-1	3.552657068E-1
2.996232882E0	-2.178465873E-1	3.110572100E-1	3.707120419E-1
2.999005056E0	-2.199771106E-1	3.845604658E-1	3.829625845E-1
3.000963651E0	-2.199771106E-1	4.548679292E-1	3.909520507E-1
3.003035056E0	-2.167813182E-1	5.150553584E-1	4.053331316E-1
3.004779113E0	-2.119876295E-1	5.645901561E-1	4.282363057E-1
3.007092056E0	-1.949433982E-1	6.269081235E-1	4.868258536E-1
3.009086305E0	-1.757686287E-1	6.668555737E-1	5.411543250E-1
3.011137364E0	-1.592570394E-1	6.956176758E-1	5.896238685E-1
3.012568421E0	-1.496696621E-1	7.094660997E-1	6.348975897E-1
3.015143979E0	-1.411475390E-1	7.137271762E-1	6.599313021E-1
3.017046190E0	-1.347559541E-1	7.195861340E-1	6.711165905E-1
3.019141095E0	-1.246359423E-1	7.163903713E-1	6.668555737E-1
3.020536651E0	-1.118527651E-1	7.084008455E-1	6.519418359E-1
3.023197402E0	-8.894958347E-2	6.977482438E-1	6.295713186E-1
3.025185190E0	-6.551376730E-2	6.780408025E-1	5.997439027E-1
3.027228095E0	-3.781688958E-2	6.508765817E-1	5.656554103E-1
3.028833882E0	-3.195793368E-3	6.354302764E-1	5.310343504E-1
3.031189113E0	4.474110901E-2	6.391586661E-1	4.937500656E-1
3.033312864E0	9.640643001E-2	6.567355394E-1	4.591289759E-1
3.035328671E0	1.502022892E-1	6.823018789E-1	4.207794666E-1
3.036703190E0	2.082591951E-1	7.030745149E-1	3.850930929E-1
3.039384864E0	2.615224123E-1	7.163903713E-1	3.467435837E-1
3.041394651E0	3.089267015E-1	7.238472104E-1	3.142530024E-1
3.043414594E0	3.584614992E-1	7.265103459E-1	2.769687474E-1
3.044814959E0	4.005394280E-1	7.302387953E-1	2.418150306E-1
3.047470825E0	4.431500137E-1	7.339671850E-1	2.109223604E-1
3.049499364E0	4.814995229E-1	7.392935157E-1	1.789644361E-1
3.051500864E0	5.166532397E-1	7.424893379E-1	1.507349163E-1
3.053166228E0	5.480785370E-1	7.403587699E-1	1.241033077E-1
3.055498094E0	5.731122494E-1	7.456851006E-1	9.853696078E-2
3.057491402E0	5.986786485E-1	7.605988383E-1	6.977482140E-2
3.059508248E0	6.231797338E-1	7.824367285E-1	4.367584363E-2
3.060765998E0	6.428871155E-1	8.090683818E-1	2.663161233E-2
3.063564633E0	6.625944972E-1	8.388957381E-1	7.989482954E-3
3.065562113E0	6.828345060E-1	8.729842305E-1	-5.326322280E-3
3.067595325E0	6.988134980E-1	9.123989940E-1	-2.450108156E-2
3.068876498E0	7.105314136E-1	9.550095797E-1	-4.207794741E-2
3.071543574E0	7.233145833E-1	9.933590889E-1	-5.912217870E-2
3.073680325E0	7.281082273E-1	1.021588564E0	-7.350324839E-2
3.075503421E0	7.270429730E-1	1.040230751E0	-8.681905270E-2
3.076971767E0	7.233145833E-1	1.051948667E0	-9.853696078E-2
3.079738594E0	7.179882526E-1	1.062601328E0	-1.070590764E-1
3.081710998E0	7.089334726E-1	1.067394972E0	-1.182443574E-1
3.083783825E0	7.020092607E-1	1.067927599E0	-1.246359423E-1
3.085330805E0	6.924219131E-1	1.063133955E0	-1.315601617E-1
3.087841287E0	6.812366247E-1	1.055677056E0	-1.406149119E-1
3.089870056E0	6.663229465E-1	1.038100243E0	-1.512675583E-1
3.091871364E0	6.503439546E-1	1.008805394E0	-1.587243974E-1
3.093498613E0	6.279733777E-1	9.677927494E-1	-1.683117896E-1
3.095868940E0	6.045376062E-1	9.108011127E-1	-1.805623323E-1
3.097862594E0	5.741775632E-1	8.410263062E-1	-1.938781291E-1
3.099865825E0	5.422195792E-1	7.616640925E-1	-2.061286718E-1
3.101214728E0	5.049353242E-1	6.705839634E-1	-2.183792144E-1
3.103922402E0	4.639226794E-1	5.763080716E-1	-2.300971150E-1
3.105898228E0	4.255731404E-1	4.836300611E-1	-2.450108230E-1
3.107967710E0	3.856257200E-1	3.850930929E-1	-2.577939928E-1
3.109302613E0	3.387540877E-1	2.796319127E-1	-2.716424465E-1
3.111963921E0	2.972087860E-1	1.763012707E-1	-2.833603323E-1
3.114053402E0	2.359560728E-1	2.343581803E-2	-2.993393242E-1
3.116011690E0	1.965412945E-1	-7.776430249E-2	-3.089267015E-1
3.117423382E0	1.560612470E-1	-1.800296903E-1	-3.169161677E-1
3.120112056E0	1.214401498E-1	-2.833603323E-1	-3.233077526E-1
3.122070074E0	9.214537591E-2	-3.829625845E-1	-3.275688291E-1
3.124143286E0	6.231797114E-2	-4.804342687E-1	-3.312972486E-1
3.125469959E0	3.302319720E-2	-5.811017752E-1	-3.312972486E-1
3.128200786E0	9.587380104E-3	-6.753776670E-1	-3.296993375E-1
3.130229863E0	-9.054748341E-3	-7.653924823E-1	-3.270362020E-1
3.132247517E0	-3.089267015E-2	-8.532768488E-1	-3.254382908E-1
3.133804459E0	-4.633900523E-2	-9.374327064E-1	-3.211772442E-1
3.136254748E0	-6.231797114E-2	-1.016262293E0	-3.142530024E-1
3.138200844E0	-7.456851006E-2	-1.087635040E0	-3.057309091E-1
3.140250479E0	-8.309062570E-2	-1.151550889E0	-2.940129936E-1
3.141536421E0	-8.735168725E-2	-1.203216195E0	-2.822950780E-1
3.144307902E0	-8.522115648E-2	-1.243696213E0	-2.652508616E-1
3.146254113E0	-7.616640627E-2	-1.273523688E0	-2.498045117E-1
3.148338633E0	-6.391586363E-2	-1.291100502E0	-2.269013226E-1
3.149725574E0	-4.420847446E-2	-1.294296265E0	-2.061286718E-1
3.152395902E0	-2.024002373E-2	-1.286839485E0	-1.885518134E-1
3.154424940E0	5.326322280E-3	-1.271393180E0	-1.677791476E-1
3.156264382E0	3.675162420E-2	-1.247424722E0	-1.518001854E-1
3.157716382E0	6.977482140E-2	-1.216531992E0	-1.315601617E-1
3.160498748E0	1.022653878E-1	-1.182443500E0	-1.166464612E-1
3.162428305E0	1.347559541E-1	-1.144093990E0	-1.022653878E-1
3.164529902E0	1.704423130E-1	-1.100950837E0	-9.001484513E-2
3.165832421E0	2.066612989E-1	-1.057807565E0	-7.456851006E-2
3.168587017E0	2.407497615E-1	-1.009870648E0	-6.285060197E-2
3.170616132E0	2.711097896E-1	-9.640643597E-1	-5.326322466E-2
3.172618248E0	3.014698327E-1	-9.086706042E-1	-4.527373984E-2
3.174326151E0	3.339604139E-1	-8.543421030E-1	-3.568635881E-2
3.176627440E0	3.621899188E-1	-8.005462289E-1	-3.036003746E-2
3.178621517E0	3.904194236E-1	-7.494135499E-1	-2.396845073E-2
3.180637517E0	4.143878818E-1	-6.977482438E-1	-1.651159860E-2
3.181964728E0	4.404868484E-1	-6.492787004E-1	-6.924218964E-3
3.184694363E0	4.649879336E-1	-6.034722924E-1	0.000000000E0
3.186635074E0	4.862932265E-1	-5.571333170E-1	4.261057824E-3
3.188725055E0	5.028048158E-1	-5.145227313E-1	9.054748341E-3
3.190078613E0	5.145227313E-1	-4.745753109E-1	1.438106969E-2
3.192780671E0	5.257080197E-1	-4.426173866E-1	1.544633508E-2
3.194808979E0	5.320996046E-1	-4.149205089E-1	1.438106969E-2
3.196810517E0	5.368933082E-1	-3.925499618E-1	1.438106969E-2
3.198093921E0	5.384911895E-1	-3.733751774E-1	9.587380104E-3
3.200866825E0	5.384911895E-1	-3.595267534E-1	3.728425596E-3
3.202895440E0	5.347627401E-1	-3.462109566E-1	-3.728425596E-3
3.204911863E0	5.310343504E-1	-3.371562064E-1	-1.012001187E-2
3.206267459E0	5.283711553E-1	-3.339604139E-1	-1.864212751E-2
3.208968555E0	5.241101384E-1	-3.291667104E-1	-1.917476021E-2
3.210997863E0	5.161206126E-1	-3.281014562E-1	-2.450108156E-2
3.213000325E0	5.123922229E-1	-3.302319944E-1	-3.089267015E-2
3.214642036E0	5.038700700E-1	-3.328951299E-1	-3.675162420E-2
3.217007594E0	4.921521842E-1	-3.424825370E-1	-4.314320907E-2
3.219001171E0	4.884237647E-1	-3.451456726E-1	-4.474110901E-2
3.221002286E0	4.740426838E-1	-3.531351686E-1	-5.060006306E-2
3.222420113E0	4.644553065E-1	-3.616572917E-1	-5.858954415E-2
3.225058517E0	4.442152679E-1	-3.744404614E-1	-6.870955974E-2
3.227087440E0	4.308994710E-1	-3.818973005E-1	-7.510114461E-2
3.229103286E0	4.213120937E-1	-3.861583769E-1	-7.616640627E-2
3.230432228E0	4.138552547E-1	-3.909520507E-1	-6.711166352E-2
3.233044959E0	4.133225977E-1	-3.952131271E-1	-4.580637068E-2
3.235167921E0	4.101268053E-1	-3.989415467E-1	-1.331580617E-2
3.237085036E0	4.053331316E-1	-4.053331316E-1	2.024002373E-2
3.238583190E0	3.962783813E-1	-4.186489284E-1	5.592638254E-2
3.241246748E0	3.888215125E-1	-4.383563101E-1	8.894958347E-2
3.243254074E0	3.771036267E-1	-4.628573954E-1	1.161138266E-1
3.245277363E0	3.680488765E-1	-4.857605994E-1	1.336906850E-1
3.246610190E0	3.659183383E-1	-5.033374429E-1	1.491370201E-1
3.249333786E0	3.621899188E-1	-5.241101384E-1	1.608549356E-1
3.251362248E0	3.573962152E-1	-5.390238166E-1	1.720402092E-1
3.253424286E0	3.547330499E-1	-5.555354357E-1	1.768338978E-1
3.255195074E0	3.531351686E-1	-5.741775632E-1	1.709749401E-1
3.257388440E0	3.478088379E-1	-5.981460214E-1	1.725728363E-1
3.259382517E0	3.403519988E-1	-6.258428693E-1	1.635181010E-1
3.261384632E0	3.371562064E-1	-6.578007936E-1	1.523328125E-1
3.262778805E0	3.270362020E-1	-6.902913451E-1	1.400822699E-1
3.265441324E0	3.174487948E-1	-7.313040495E-1	1.251685768E-1
3.267470709E0	3.110572100E-1	-7.669904232E-1	1.075917110E-1
3.269472440E0	3.014698327E-1	-8.042746782E-1	8.735168725E-2
3.270796036E0	2.940129936E-1	-8.415589333E-1	6.498113275E-2
3.273440074E0	2.833603323E-1	-8.751147389E-1	3.728425503E-2
3.275558824E0	2.785666585E-1	-9.081379771E-1	7.989482954E-3
3.277576247E0	2.727077007E-1	-9.384979606E-1	-2.343581803E-2
3.278823382E0	2.663161159E-1	-9.640643597E-1	-4.900216311E-2
3.281633324E0	2.615224123E-1	-9.890980721E-1	-7.616640627E-2
3.283611882E0	2.524676621E-1	-1.010403395E0	-1.043959185E-1
3.285662978E0	2.423476577E-1	-1.030643344E0	-1.267664731E-1
3.286894574E0	2.311623842E-1	-1.050350785E0	-1.512675583E-1
3.289720594E0	2.210423797E-1	-1.067927599E0	-1.763012707E-1
3.291653536E0	2.141181529E-1	-1.081243396E0	-1.976065636E-1
3.293752286E0	2.082591951E-1	-1.091363430E0	-2.242381722E-1
3.295172920E0	2.029328793E-1	-1.096157074E0	-2.498045117E-1
3.297751363E0	1.960086524E-1	-1.099885583E0	-2.721750736E-1
3.299745670E0	1.885518134E-1	-1.096689701E0	-2.998719513E-1
3.301763017E0	1.789644361E-1	-1.091896057E0	-3.206445873E-1
3.303028767E0	1.704423130E-1	-1.085504532E0	-3.414172530E-1
3.305821324E0	1.613875628E-1	-1.079645514E0	-3.632551730E-1
3.307762959E0	1.491370201E-1	-1.071655989E0	-3.797667921E-1
3.309851978E0	1.384843737E-1	-1.068460226E0	-4.021373391E-1
3.311129228E0	1.272991002E-1	-1.066862345E0	-4.149205089E-1
3.313910132E0	1.182443574E-1	-1.065797091E0	-4.303668439E-1
3.315939632E0	1.086569726E-1	-1.062068701E0	-4.420847595E-1
3.317929267E0	9.960222989E-2	-1.061003447E0	-4.548679292E-1
3.319218305E0	9.108011425E-2	-1.057274938E0	-4.655205607E-1
3.321999978E0	7.989483327E-2	-1.050350785E0	-4.740426838E-1
3.323980151E0	6.711166352E-2	-1.037034988E0	-4.783037305E-1
3.326046709E0	5.645901710E-2	-1.029045463E0	-4.793690145E-1
3.327617497E0	5.060006306E-2	-1.019458055E0	-4.783037305E-1
3.330104440E0	4.048004746E-2	-1.012533903E0	-4.740426838E-1
3.332133786E0	3.142530099E-2	-1.009338021E0	-4.713795185E-1
3.334134824E0	2.396845073E-2	-1.003479123E0	-4.660531878E-1
3.335632536E0	1.704423130E-2	-9.976201653E-1	-4.628573954E-1
3.338132440E0	7.989482954E-3	-9.960222840E-1	-4.591289759E-1
3.340126709E0	3.728425596E-3	-9.917612076E-1	-4.468784332E-1
3.342128286E0	-1.065264456E-3	-9.922938347E-1	-4.362258017E-1
3.343420767E0	-3.728425596E-3	-9.933590889E-1	-4.271710515E-1
3.346185055E0	-7.456851192E-3	-9.944243431E-1	-4.213120937E-1
3.348212113E0	-6.924218964E-3	-9.997506738E-1	-4.170510471E-1
3.350230401E0	-6.924218964E-3	-1.002946496E0	-4.095941782E-1
3.351480536E0	-5.326322280E-4	-1.011468649E0	-4.037352204E-1
3.354222613E0	2.663161140E-3	-1.020523310E0	-3.994741738E-1
3.356316478E0	8.522115648E-3	-1.025317073E0	-3.898867965E-1
3.358307382E0	1.917476021E-2	-1.031175971E0	-3.840278387E-1
3.359587651E0	3.249056637E-2	-1.036502361E0	-3.765709996E-1
3.362375478E0	4.420847446E-2	-1.043426514E0	-3.669835925E-1
3.364355267E0	5.539375171E-2	-1.048220277E0	-3.595267534E-1
3.366405439E0	7.137271762E-2	-1.054079175E0	-3.467435837E-1
3.367719459E0	8.681905270E-2	-1.060470819E0	-3.323625028E-1
3.370461747E0	1.022653878E-1	-1.065797091E0	-3.179814517E-1
3.372420267E0	1.171790883E-1	-1.068460226E0	-3.046656251E-1
3.374506709E0	1.315601617E-1	-1.070590734E0	-2.897519469E-1
3.376042920E0	1.470064968E-1	-1.074319243E0	-2.764361203E-1
3.378513170E0	1.581917703E-1	-1.075384498E0	-2.625876963E-1
3.380507555E0	1.725728363E-1	-1.076982379E0	-2.455434501E-1
3.382509709E0	1.864212751E-1	-1.076449752E0	-2.338255495E-1
3.383760651E0	1.992044598E-1	-1.073253989E0	-2.146507949E-1
3.386566901E0	2.125202566E-1	-1.066329718E0	-2.024002522E-1
3.388480805E0	2.221076339E-1	-1.064199209E0	-1.901497096E-1
3.390598093E0	2.311623842E-1	-1.055144429E0	-1.768338978E-1
3.391898344E0	2.412824035E-1	-1.042361259E0	-1.661812514E-1
3.394586843E0	2.514024079E-1	-1.030110717E0	-1.544633508E-1
3.396683324E0	2.567287385E-1	-1.014131784E0	-1.486043930E-1
3.398527767E0	2.609897852E-1	-9.944243431E-1	-1.390170157E-1
3.399987228E0	2.641855776E-1	-9.763149023E-1	-1.331580579E-1
3.402756670E0	2.631203234E-1	-9.566074610E-1	-1.272991002E-1
3.404703536E0	2.625876963E-1	-9.406285286E-1	-1.198422536E-1
3.406786208E0	2.636529505E-1	-9.182579517E-1	-1.150485575E-1
3.408055343E0	2.572613657E-1	-9.006810784E-1	-1.129180342E-1
3.410843093E0	2.519350350E-1	-8.841695189E-1	-1.118527651E-1
3.412872055E0	2.460760921E-1	-8.617989421E-1	-1.097222418E-1
3.414873555E0	2.354234457E-1	-8.447546959E-1	-1.081243455E-1
3.416508613E0	2.247707993E-1	-8.293083906E-1	-1.081243455E-1
3.418870901E0	2.141181529E-1	-8.159925938E-1	-1.049285457E-1
3.420825574E0	1.986718178E-1	-8.037420511E-1	-1.043959185E-1
3.422881785E0	1.848233789E-1	-7.978830934E-1	-1.017327532E-1
3.424172613E0	1.683117896E-1	-7.914915085E-1	-9.693906456E-2
3.426938478E0	1.539307088E-1	-7.850999236E-1	-9.214537591E-2
3.428930613E0	1.400822699E-1	-7.840346098E-1	-8.202536404E-2
3.430969631E0	1.219727769E-1	-7.760451436E-1	-7.190535218E-2
3.432236882E0	1.022653878E-1	-7.707188129E-1	-6.338323653E-2
3.434913767E0	8.149272949E-2	-7.584682703E-1	-4.687163606E-2
3.437055247E0	6.285060197E-2	-7.456851006E-1	-4.207794741E-2
3.439057631E0	4.314320907E-2	-7.275756001E-1	-3.568635881E-2
3.440469382E0	1.917476021E-2	-7.041398287E-1	-3.089267015E-2
3.443115247E0	-4.793690052E-3	-6.838997602E-1	-2.450108156E-2
3.445075382E0	-2.609897964E-2	-6.668555737E-1	-2.290318534E-2
3.447160631E0	-4.261057824E-2	-6.508765817E-1	-2.130528912E-2
3.448515574E0	-5.752427876E-2	-6.391586661E-1	-1.704423130E-2
3.451217670E0	-6.870955974E-2	-6.311691999E-1	-1.225054078E-2
3.453211382E0	-7.616640627E-2	-6.210491657E-1	-9.587380104E-3
3.455249401E0	-8.415589482E-2	-6.119944453E-1	-9.054748341E-3
3.456788843E0	-8.522115648E-2	-6.024070382E-1	-9.054748341E-3
3.459256631E0	-9.374327213E-2	-5.949501991E-1	-6.391586736E-3
3.461245267E0	-1.065264493E-1	-6.066681147E-1	-5.326322280E-3
3.463253131E0	-1.267664731E-1	-6.247776151E-1	-4.793690052E-3
3.464637113E0	-1.384843737E-1	-6.402239203E-1	3.195793368E-3
3.467309824E0	-1.587243974E-1	-6.599313021E-1	1.065264456E-2
3.469246843E0	-1.864212751E-1	-6.838997602E-1	2.769687586E-2
3.471354554E0	-2.210423797E-1	-7.163903713E-1	4.314320907E-2
3.472621959E0	-2.636529505E-1	-7.558051348E-1	6.391586363E-2
3.475301420E0	-3.131877482E-1	-7.962851524E-1	7.882957160E-2
3.477440593E0	-3.659183383E-1	-8.346347213E-1	7.882957160E-2
3.479244805E0	-4.149205089E-1	-8.602010608E-1	5.645901710E-2
3.480707805E0	-4.681837261E-1	-8.847021461E-1	2.769687586E-2
3.483499862E0	-5.139901042E-1	-9.038769007E-1	7.456851192E-3
3.485471959E0	-5.315669775E-1	-8.932242393E-1	2.663161140E-3
3.487530824E0	-5.379585624E-1	-8.649947643E-1	2.130528912E-3
3.488923767E0	-5.336974859E-1	-8.378304839E-1	1.065264456E-2
3.491587593E0	-5.214469433E-1	-8.218515515E-1	2.024002373E-2
3.493616785E0	-5.139901042E-1	-8.170578480E-1	3.036003746E-2
3.495634054E0	-5.097290277E-1	-8.133293986E-1	3.355583176E-2
3.497525343E0	-5.028048158E-1	-8.133293986E-1	3.781688958E-2
3.499640593E0	-5.038700700E-1	-8.250473142E-1	4.101268202E-2
3.501634400E0	-5.049353242E-1	-8.575378656E-1	5.113269389E-2
3.503635900E0	-5.166532397E-1	-9.092032313E-1	6.924218684E-2
3.505014382E0	-5.358279943E-1	-9.757822156E-1	9.001484513E-2
3.507692785E0	-5.581985712E-1	-1.039698124E0	9.960222989E-2
3.509721516E0	-5.800365210E-1	-1.095624447E0	1.065264493E-1
3.511722862E0	-6.034722924E-1	-1.145159245E0	1.012001261E-1
3.513045997E0	-6.183860302E-1	-1.188302517E0	7.243798673E-2
3.515750843E0	-6.231797338E-1	-1.222391009E0	3.142530099E-2
3.517807977E0	-6.151902080E-1	-1.243163586E0	-2.876213938E-2
3.519703228E0	-6.024070382E-1	-1.254881501E0	-9.427590668E-2
3.521112959E0	-5.784385800E-1	-1.250087857E0	-1.667138934E-1
3.523881016E0	-5.507417321E-1	-1.228782535E0	-2.391518652E-1
3.525910016E0	-5.075985193E-1	-1.184041500E0	-3.153182864E-1
3.527911823E0	-4.559331834E-1	-1.115331888E0	-3.909520507E-1
3.529209536E0	-3.946804702E-1	-1.019990683E0	-4.612595141E-1
3.531969131E0	-3.238403797E-1	-8.980179429E-1	-5.246427655E-1
3.533997977E0	-2.130528986E-1	-6.807039976E-1	-6.082659960E-1
3.536000170E0	-1.363538504E-1	-5.171858668E-1	-6.551376581E-1
3.537692805E0	-5.699164793E-2	-3.478088379E-1	-6.913566589E-1
3.539997862E0	1.651159860E-2	-1.763012707E-1	-7.222493291E-1
3.541974190E0	8.894958347E-2	-4.261057824E-3	-7.446198463E-1
3.544008093E0	1.560612470E-1	1.624528319E-1	-7.659251690E-1
3.545415882E0	2.178465873E-1	3.233077526E-1	-7.803062201E-1
3.548064362E0	2.743056118E-1	4.772384763E-1	-7.957525253E-1
3.550008959E0	3.275688291E-1	6.221144199E-1	-8.106662631E-1
3.552094323E0	3.723099232E-1	7.558051348E-1	-8.239820600E-1
3.553514613E0	4.122573435E-1	8.799084425E-1	-8.346347213E-1
3.556127420E0	4.452805519E-1	9.938917160E-1	-8.484831452E-1
3.558179131E0	4.772384763E-1	1.098287702E0	-8.554073572E-1
3.559966690E0	5.017395616E-1	1.193628788E0	-8.660600185E-1
3.561588382E0	5.198490620E-1	1.278849959E0	-8.724516034E-1
3.564238939E0	5.363606811E-1	1.357146859E0	-8.783105612E-1
3.566201766E0	5.480785370E-1	1.425323844E0	-8.820389509E-1
3.568285439E0	5.560680628E-1	1.484978676E0	-8.772453070E-1
3.569617382E0	5.619270205E-1	1.535578728E0	-8.697884083E-1
3.572342900E0	5.656554103E-1	1.570199847E0	-8.607336879E-1
3.574288151E0	5.635249019E-1	1.597896695E0	-8.468852639E-1
3.576374208E0	5.576659441E-1	1.607484102E0	-8.277105093E-1
3.577817574E0	5.491438508E-1	1.606951475E0	-8.042746782E-1
3.580373669E0	5.358279943E-1	1.593635678E0	-7.829693556E-1
3.582331766E0	5.177185535E-1	1.568069220E0	-7.515440583E-1
3.584370977E0	4.937500656E-1	1.527589202E0	-7.254450917E-1
3.585649613E0	4.649879336E-1	1.472195506E0	-6.961503029E-1
3.588429092E0	4.298342168E-1	1.402953267E0	-6.604639888E-1
3.590366343E0	3.888215125E-1	1.316666842E0	-6.295713186E-1
3.592475823E0	3.504720032E-1	1.224521518E0	-5.981460214E-1
3.593884882E0	3.094593287E-1	1.120658159E0	-5.693838596E-1
3.596517959E0	2.695119083E-1	1.017327547E0	-5.390238166E-1
3.598562823E0	2.322276533E-1	9.134642482E-1	-5.123922229E-1
3.600464536E0	1.933455020E-1	8.138620257E-1	-4.857605994E-1
3.601901920E0	1.597896665E-1	7.121292949E-1	-4.575310946E-1
3.604623400E0	1.257012039E-1	6.167881489E-1	-4.319647253E-1
3.606576959E0	9.693906456E-2	5.251753926E-1	-4.090615511E-1
3.608654785E0	7.137271762E-2	4.383563101E-1	-3.834952116E-1
3.610006343E0	4.793690145E-2	3.531351686E-1	-3.589941263E-1
3.612712400E0	3.036003746E-2	2.780340314E-1	-3.387540877E-1
3.614723574E0	1.651159860E-2	2.055960447E-1	-3.201119602E-1
3.616757708E0	2.663161140E-3	1.390170157E-1	-3.036003709E-1
3.618249805E0	-6.924218964E-3	7.456851006E-2	-2.934803665E-1
3.620766631E0	-1.651159860E-2	1.704423130E-2	-2.913498282E-1
3.622716266E0	-2.609897964E-2	-3.089267015E-2	-2.876214087E-1
3.624763361E0	-3.408846259E-2	-6.977482140E-2	-2.860234976E-1
3.626000728E0	-3.888215125E-2	-9.534116834E-2	-2.892192900E-1
3.628820746E0	-4.314320907E-2	-1.107875034E-1	-2.897519469E-1
3.630793497E0	-3.941478580E-2	-1.214401498E-1	-2.908172011E-1
3.632851054E0	-3.621899337E-2	-1.235706806E-1	-2.929477394E-1
3.634256497E0	-2.929477207E-2	-1.235706806E-1	-2.972087860E-1
3.636902805E0	-2.077265643E-2	-1.198422536E-1	-3.036003709E-1
3.638937092E0	-1.118527725E-2	-1.118527651E-1	-3.067961633E-1
3.640954169E0	-2.663161140E-3	-1.001348570E-1	-3.126551211E-1
3.642259151E0	7.456851192E-3	-8.628641814E-2	-3.163835406E-1
3.645010900E0	2.503371425E-2	-5.858954415E-2	-3.211772442E-1
3.647039592E0	3.462109342E-2	-3.675162420E-2	-3.233077526E-1
3.649041169E0	4.474110901E-2	-1.438106969E-2	-3.227751255E-1
3.650388536E0	5.379585549E-2	5.326322280E-3	-3.222424984E-1
3.653097823E0	6.125270575E-2	2.024002373E-2	-3.206445873E-1
3.655126708E0	7.137271762E-2	3.302319720E-2	-3.153182864E-1
3.657128554E0	7.669904083E-2	4.474110901E-2	-3.153182864E-1
3.658610959E0	8.468852192E-2	5.432848632E-2	-3.094593287E-1
3.661123938E0	8.362326026E-2	6.604639441E-2	-3.057309091E-1
3.663118092E0	8.468852192E-2	7.137271762E-2	-2.972087860E-1
3.665135092E0	8.415589482E-2	7.616640627E-2	-2.833603323E-1
3.666456420E0	8.042746782E-2	7.936219871E-2	-2.689792812E-1
3.669192015E0	7.297061384E-2	7.723167539E-2	-2.508697808E-1
3.671181113E0	6.924218684E-2	7.563377917E-2	-2.311623842E-1
3.673223477E0	6.125270575E-2	7.403588295E-2	-2.146507949E-1
3.674630613E0	4.900216311E-2	6.977482140E-2	-1.970739216E-1
3.677186997E0	3.834952042E-2	6.711166352E-2	-1.816275865E-1
3.679308515E0	2.503371425E-2	6.444849819E-2	-1.656486243E-1
3.681310707E0	9.054748341E-3	5.858954415E-2	-1.533980817E-1
3.682736151E0	-5.858954508E-3	5.273059011E-2	-1.395496428E-1
3.685367438E0	-2.822950855E-2	3.834952042E-2	-1.182443574E-1
3.687396246E0	-4.580637068E-2	1.810949668E-2	-9.960222989E-2
3.689413438E0	-6.870955974E-2	-1.065264456E-2	-7.297061384E-2
3.690709728E0	-8.788431436E-2	-4.740426689E-2	-4.953479767E-2
3.693470554E0	-1.118527651E-1	-8.202536404E-2	-2.556634694E-2
3.695442766E0	-1.368864775E-1	-1.246359423E-1	-1.597896684E-3
3.697500669E0	-1.624528319E-1	-1.613875628E-1	2.077265643E-2
3.698983766E0	-1.890844405E-1	-1.981391907E-1	4.207794741E-2
3.701508784E0	-2.183792144E-1	-2.306297570E-1	6.018744037E-2
3.703502477E0	-2.439455539E-1	-2.652508616E-1	7.989483327E-2
3.705503938E0	-2.732403278E-1	-2.918824553E-1	9.906959534E-2
3.706806074E0	-3.009372056E-1	-3.158509135E-1	1.145159304E-1
3.709560400E0	-3.281014562E-1	-3.403519988E-1	1.342233270E-1
3.711521959E0	-3.563309610E-1	-3.664509654E-1	1.454086006E-1
3.713605169E0	-3.824299276E-1	-3.925499618E-1	1.619201899E-1
3.714910112E0	-4.106594622E-1	-4.181163013E-1	1.715075821E-1
3.717609612E0	-4.388889670E-1	-4.458131790E-1	1.816275865E-1
3.719689746E0	-4.612595141E-1	-4.777711034E-1	1.906823367E-1
3.721485728E0	-4.846953154E-1	-5.113269091E-1	1.986718178E-1
3.722975843E0	-5.086637735E-1	-5.432848930E-1	2.034655064E-1
3.725747592E0	-5.305017233E-1	-5.779059529E-1	2.093244642E-1
3.727723805E0	-5.491438508E-1	-6.146575809E-1	2.173139453E-1
3.729778592E0	-5.688512325E-1	-6.498113275E-1	2.205097377E-1
3.731108728E0	-5.890912414E-1	-6.892260909E-1	2.242381722E-1
3.733834784E0	-6.050702333E-1	-7.286409140E-1	2.269013226E-1
3.735863746E0	-6.231797338E-1	-7.701861858E-1	2.300971150E-1
3.737880476E0	-6.380934119E-1	-8.127967715E-1	2.332929224E-1
3.739462651E0	-6.530070901E-1	-8.596684337E-1	2.407497615E-1
3.741886476E0	-6.668555737E-1	-9.060074091E-1	2.439455539E-1
3.743879976E0	-6.823018789E-1	-9.523464441E-1	2.503371537E-1
3.745881823E0	-6.934871674E-1	-1.005077004E0	2.551308274E-1
3.747491843E0	-7.036072016E-1	-1.055677056E0	2.636529505E-1
3.749938361E0	-7.153250575E-1	-1.107342362E0	2.684466541E-1
3.751879920E0	-7.307714224E-1	-1.187237263E0	2.775014043E-1
3.753968899E0	-7.398261428E-1	-1.243696213E0	2.849582434E-1
3.755243843E0	-7.435545921E-1	-1.272991061E0	2.865561247E-1
3.757932920E0	-7.542072535E-1	-1.353951097E0	2.934803665E-1
3.760052976E0	-7.605988383E-1	-1.409344912E0	3.004045784E-1
3.762068784E0	-7.675230503E-1	-1.462075472E0	3.014698327E-1
3.763492843E0	-7.744472623E-1	-1.519067168E0	3.009372056E-1
3.766123822E0	-7.792409658E-1	-1.570732474E0	3.036003709E-1
3.768136612E0	-7.824367285E-1	-1.620799899E0	3.020024598E-1
3.770152092E0	-7.829693556E-1	-1.666073561E0	2.998719513E-1
3.771653074E0	-7.824367285E-1	-1.708151579E0	2.982740402E-1
3.774206630E0	-7.840346098E-1	-1.751294732E0	2.913498282E-1
3.776234476E0	-7.861651778E-1	-1.792840123E0	2.844256163E-1
3.778235669E0	-7.845672965E-1	-1.829591751E0	2.748382390E-1
3.780017497E0	-7.845672965E-1	-1.867408633E0	2.615224123E-1
3.782231976E0	-7.882956862E-1	-1.900964379E0	2.519350350E-1
3.784225399E0	-7.882956862E-1	-1.933987617E0	2.370213419E-1
3.786240976E0	-7.909588814E-1	-1.963814974E0	2.242381722E-1
3.787570651E0	-7.984157205E-1	-1.993642449E0	2.082591951E-1
3.790297361E0	-7.994809747E-1	-2.021872044E0	1.917476058E-1
3.792325515E0	-8.021441102E-1	-2.046373129E0	1.741707325E-1
3.794326822E0	-8.053399324E-1	-2.068743467E0	1.555286050E-1
3.795600920E0	-8.074704409E-1	-2.090581417E0	1.347559541E-1
3.798293536E0	-8.111988902E-1	-2.107625723E0	1.187769845E-1
3.800411053E0	-8.170578480E-1	-2.123604774E0	9.906959534E-2
3.802264920E0	-8.170578480E-1	-2.137985706E0	7.829693705E-2
3.803719112E0	-8.245146871E-1	-2.140116215E0	5.539375171E-2
3.806468092E0	-8.335694075E-1	-2.127865791E0	3.621899337E-2
3.808496130E0	-8.442220688E-1	-2.103364706E0	1.065264456E-2
3.810512361E0	-8.554073572E-1	-2.070874214E0	-1.384843793E-2
3.811996574E0	-8.623315692E-1	-2.036785603E0	-4.314320907E-2
3.814567668E0	-8.825715780E-1	-1.967010856E0	-7.350324839E-2
3.816595861E0	-9.012137055E-1	-1.910551786E0	-9.853696078E-2
3.818597130E0	-9.720538259E-1	-1.937183380E0	-1.161138266E-1
3.820123997E0	-1.665008307E0	-2.950782537E0	-1.704423130E-2
3.822593284E0	-2.583266258E0	-4.482632637E0	2.055960447E-1
3.824586207E0	-3.274090290E0	-5.585181713E0	4.010720551E-1
3.826587168E0	-3.694869757E0	-6.218481064E0	5.448827744E-1
3.827875151E0	-3.925499439E0	-6.583867073E0	6.492787004E-1
3.830642091E0	-4.037352085E0	-6.769223213E0	7.265103459E-1
3.832670245E0	-4.044809341E0	-6.804376602E0	7.574030161E-1
3.834686591E0	-3.959588051E0	-6.689328194E0	7.472830415E-1
3.835954574E0	-3.813114166E0	-6.461894035E0	6.961503029E-1
3.838677843E0	-3.627758026E0	-6.159358978E0	6.109291911E-1
3.840769899E0	-3.416303158E0	-5.812082767E0	4.942827225E-1
3.842731689E0	-3.180879593E0	-5.420065403E0	3.600593805E-1
3.844167035E0	-2.914031029E0	-4.967328072E0	2.247707993E-1
3.846826745E0	-2.609897852E0	-4.465588570E0	8.362326026E-2
3.848796574E0	-2.296710253E0	-3.927629948E0	-5.219795927E-2
3.850856361E0	-1.980859280E0	-3.393932581E0	-1.693770438E-1
3.852179228E0	-1.679389358E0	-2.892725706E0	-2.673813701E-1
3.854912168E0	-1.401888013E0	-2.419748306E0	-3.499393761E-1
3.856940322E0	-1.151550889E0	-1.987250805E0	-4.218447208E-1
3.859001899E0	-8.564726114E-1	-1.472195506E0	-5.145227313E-1
3.860500112E0	-7.456851006E-1	-1.291100502E0	-5.480785370E-1
3.862964553E0	-7.084008455E-1	-1.253816247E0	-5.581985712E-1
3.864957822E0	-7.265103459E-1	-1.324656367E0	-5.619270205E-1
3.866959630E0	-7.765777707E-1	-1.473793387E0	-5.683186054E-1
3.868258151E0	-8.117315173E-1	-1.569134593E0	-5.651227832E-1
3.871014437E0	-9.177253246E-1	-1.884985447E0	-5.645901561E-1
3.873041899E0	-9.784454107E-1	-2.080994129E0	-5.613943934E-1
3.875042976E0	-1.024784446E0	-2.235990047E0	-5.741775632E-1
3.876528382E0	-1.046089649E0	-2.330265999E0	-6.002765298E-1
3.879069843E0	-1.036502361E0	-2.353169203E0	-6.269081235E-1
3.881125899E0	-9.906959534E-1	-2.280731201E0	-6.567355394E-1
3.882944805E0	-9.155948162E-1	-2.123604774E0	-6.695187092E-1
3.884578497E0	-8.143946528E-1	-1.882854939E0	-6.604639888E-1
3.887197014E0	-7.036072016E-1	-1.598961949E0	-6.343649626E-1
3.889220689E0	-5.992112756E-1	-1.301220536E0	-5.992112756E-1
3.891226091E0	-4.873584807E-1	-9.795106649E-1	-5.629922748E-1
3.892605612E0	-4.063983858E-1	-6.876282096E-1	-5.262406468E-1
3.895282053E0	-3.339604139E-1	-4.458131790E-1	-4.889563918E-1
3.897310476E0	-2.780340314E-1	-2.322276533E-1	-4.639226794E-1
3.899311822E0	-2.354234457E-1	-4.580637068E-2	-4.585963488E-1
3.900858843E0	-1.986718178E-1	1.283643693E-1	-4.665858448E-1
3.903308322E0	-1.672465205E-1	2.897519469E-1	-4.910869002E-1
3.905301899E0	-1.459412277E-1	4.293015897E-1	-5.246427655E-1
3.907318514E0	-1.299622655E-1	5.384911895E-1	-5.672533512E-1
3.908675035E0	-1.182443574E-1	6.306365728E-1	-6.103965044E-1
3.911374283E0	-1.075917110E-1	7.014766335E-1	-6.551376581E-1
3.913402668E0	-9.480853379E-2	7.488809228E-1	-6.966829300E-1
3.915404514E0	-7.616640627E-2	8.010788560E-1	-7.403587699E-1
3.916766997E0	-4.900216311E-2	8.468852639E-1	-7.808388472E-1
3.919453228E0	-3.675162420E-2	8.548747301E-1	-8.074704409E-1
3.921490745E0	-3.728425503E-2	8.207862377E-1	-8.096010089E-1
3.923463766E0	-4.048004746E-2	7.621967196E-1	-7.984157205E-1
3.924870920E0	-4.154531285E-2	6.870955825E-1	-7.808388472E-1
3.927551014E0	-4.580637068E-2	6.050702333E-1	-7.542072535E-1
3.929488843E0	-5.219795927E-2	5.171858668E-1	-7.233145833E-1
3.931595783E0	-5.805691332E-2	4.255731404E-1	-6.918892860E-1
3.932810343E0	-7.030745596E-2	3.259709179E-1	-6.609966159E-1
3.935652206E0	-8.575379103E-2	2.125202566E-1	-6.301039457E-1
3.937534382E0	-1.033306494E-1	9.214537591E-2	-6.018744111E-1
3.939683360E0	-1.203748807E-1	-2.982740477E-2	-5.699164867E-1
3.941046958E0	-1.406149119E-1	-1.491370201E-1	-5.411543250E-1
3.943691053E0	-1.624528319E-1	-2.620550692E-1	-5.203816891E-1
3.945630458E0	-1.885518134E-1	-3.717772961E-1	-4.985437691E-1
3.947686668E0	-2.231729031E-1	-4.900216460E-1	-4.751079381E-1
3.948919382E0	-2.609897852E-1	-6.061354876E-1	-4.506068528E-1
3.951742629E0	-3.020024598E-1	-7.153250575E-1	-4.250405133E-1
3.953693728E0	-3.312972486E-1	-8.069378138E-1	-4.063983858E-1
3.955788091E0	-3.664509654E-1	-8.857674003E-1	-3.866910040E-1
3.957055266E0	-3.989415467E-1	-9.518138170E-1	-3.701793849E-1
3.959698074E0	-4.271710515E-1	-9.997506738E-1	-3.643204570E-1
3.961846420E0	-4.527373910E-1	-1.033306479E0	-3.510046303E-1
3.963640497E0	-4.740426838E-1	-1.048752904E0	-3.456783295E-1
3.965148574E0	-4.878911078E-1	-1.045557022E0	-3.392867148E-1
3.967929552E0	-4.932174385E-1	-1.017860174E0	-3.339604139E-1
3.969957822E0	-4.926848114E-1	-9.454222322E-1	-3.344930410E-1
3.971959514E0	-4.857605994E-1	-8.868326545E-1	-3.312972486E-1
3.973294728E0	-4.767058492E-1	-8.218515515E-1	-3.339604139E-1
3.976015591E0	-4.639226794E-1	-7.456851006E-1	-3.371562064E-1
3.978043822E0	-4.516721368E-1	-6.647250056E-1	-3.371562064E-1
3.980060745E0	-4.378236830E-1	-5.858954787E-1	-3.446130455E-1
3.981729343E0	-4.218447208E-1	-5.022721887E-1	-3.440804183E-1
3.984067976E0	-4.058657587E-1	-4.197141826E-1	-3.478088379E-1
3.986007382E0	-3.861583769E-1	-3.382214606E-1	-3.547330499E-1
3.988063399E0	-3.643204570E-1	-2.572613657E-1	-3.563309610E-1
3.989319689E0	-3.494067490E-1	-1.858886480E-1	-3.579288721E-1
3.992119745E0	-3.398193717E-1	-1.326254308E-1	-3.499393761E-1
3.994034958E0	-3.371562064E-1	-1.012001261E-1	-3.344930410E-1
3.996150399E0	-3.419498801E-1	-9.054747969E-2	-3.105245829E-1
3.997394882E0	-3.510046303E-1	-9.534116834E-2	-2.817624509E-1
4.000113420E0	-3.653857112E-1	-1.097222418E-1	-2.508697808E-1
4.002235514E0	-3.787015080E-1	-1.235706806E-1	-2.231729031E-1
4.004149920E0	-3.893541694E-1	-1.406149119E-1	-1.997370869E-1
4.005534689E0	-4.042678475E-1	-1.619201899E-1	-1.816275865E-1
4.008308783E0	-4.159857631E-1	-1.837581247E-1	-1.640507281E-1
4.010257035E0	-4.271710515E-1	-2.071939409E-1	-1.523328125E-1
4.012338437E0	-4.394215941E-1	-2.332929224E-1	-1.422128081E-1
4.013663305E0	-4.500742257E-1	-2.593919039E-1	-1.411475390E-1
