"Time (s)"	"Linear Acceleration x (m/s^2)"	"Linear Acceleration y (m/s^2)"	"Linear Acceleration z (m/s^2)"
2.301506800E-2	-1.781535149E-2	-5.731940269E-2	-2.311887741E-1
3.104556800E-2	9.240835905E-2	9.863376617E-2	2.023925781E-1
3.913537500E-2	3.747040033E-2	7.255911827E-2	9.913825989E-2
4.722526000E-2	1.540517807E-2	4.614353180E-3	-7.458496094E-2
5.532868300E-2	1.214430928E-1	-1.784620285E-1	-1.593961716E-1
6.341764400E-2	1.121127605E-1	-1.990704536E-1	-6.878662109E-2
7.142352900E-2	-3.646796942E-2	-1.778638363E-1	-4.378890991E-2
7.952818300E-2	-4.468965530E-2	-1.636996269E-1	-4.172668457E-1
8.737692300E-2	4.814976454E-2	-1.664643288E-1	-7.934408188E-1
9.570779800E-2	1.243535280E-1	-1.294620037E-1	-1.030346870E0
1.038124520E-1	8.131384850E-2	-7.415390015E-2	-1.151888847E0
1.118183360E-1	2.646070719E-2	-5.013036728E-2	-1.058626175E0
1.199084520E-1	-1.861673594E-2	-1.850247383E-2	-8.609037399E-1
1.280127210E-1	-5.742383003E-2	-4.036164284E-2	-6.595687866E-1
1.361025670E-1	-2.614092827E-2	-1.484816074E-1	-4.049177170E-1
1.441921440E-1	3.158611059E-2	-2.636687756E-1	-2.514467239E-1
1.522056060E-1	1.305194497E-1	-2.673399448E-1	-1.004381180E-1
1.602953750E-1	1.264538765E-1	-2.636015415E-1	-1.426219940E-1
1.681797690E-1	9.642612934E-2	-1.636738777E-1	-1.740245819E-1
1.764903750E-1	2.521377802E-2	-6.825089455E-2	-2.927303314E-1
1.845807980E-1	5.661857128E-2	4.227924347E-2	-3.674678802E-1
1.925774130E-1	8.437323570E-2	9.077715874E-2	-3.054466248E-1
2.006813360E-1	8.972179890E-2	4.553031921E-2	-2.310352325E-1
2.087710280E-1	7.913362980E-2	-3.826332092E-2	-3.036623001E-1
2.168605670E-1	8.381080627E-2	-7.059931755E-2	-3.137826920E-1
2.249651440E-1	2.778983116E-2	-3.554582596E-2	-3.390922546E-1
2.329702590E-1	2.106165886E-2	-6.799864769E-2	-2.756938934E-1
2.410583740E-1	6.852233410E-2	-9.544992447E-2	-2.371988297E-1
2.489339230E-1	1.104536057E-1	-7.607388496E-2	-2.025489807E-1
2.572499130E-1	8.301103115E-2	-1.802420616E-2	-2.442636490E-1
2.653376050E-1	7.612705231E-2	5.612826347E-2	-2.326889038E-1
2.733450670E-1	9.129261971E-2	1.020848751E-1	-6.916236877E-2
2.814330670E-1	3.706014156E-2	8.544468880E-2	-1.120195389E-1
2.895170380E-1	1.037093401E-1	3.880167007E-2	-1.331520081E-1
2.976220280E-1	1.492763758E-1	2.089476585E-2	-2.284278870E-1
3.057105660E-1	1.396995783E-1	6.925368309E-2	-2.446708679E-1
3.137166820E-1	2.558745146E-1	1.030974388E-1	-2.765684128E-1
3.218215280E-1	4.613507986E-1	2.020022869E-1	-3.173980713E-1
3.297390000E-1	5.695347786E-1	4.284489155E-1	-2.838220596E-1
3.379988360E-1	4.416998625E-1	5.268354416E-1	-3.261947632E-1
3.461019890E-1	4.172742367E-1	4.874405861E-1	-3.314800262E-1
3.541058360E-1	5.155133009E-1	3.570189476E-1	-4.240865707E-1
3.621938740E-1	5.573382378E-1	2.589633465E-1	-4.578962326E-1
3.702973350E-1	4.551403522E-1	1.047048569E-1	-4.196252823E-1
3.783852970E-1	5.373991728E-1	-8.756041527E-2	-3.072586060E-1
3.864731050E-1	7.747557163E-1	-2.736155987E-1	-1.761951447E-1
3.944829120E-1	7.699353695E-1	-3.997087479E-1	-1.251831055E-1
4.025700280E-1	6.795083284E-1	-4.605872631E-1	-1.876697540E-1
4.104270380E-1	6.451908350E-1	-4.982211590E-1	-3.300905228E-1
4.187636040E-1	5.821210146E-1	-4.420907497E-1	-4.562387466E-1
4.268532200E-1	5.661711693E-1	-3.904597759E-1	-3.144569397E-1
4.348461810E-1	5.925323963E-1	-3.789737225E-1	-2.326269150E-1
4.429489890E-1	6.771759987E-1	-4.226553440E-1	-2.343568802E-1
4.509926150E-1	6.677584648E-1	-4.393818378E-1	-1.624403000E-1
4.591262970E-1	3.327634335E-1	-5.172232389E-1	-2.572097778E-1
4.672293350E-1	1.772387028E-1	-6.159451008E-1	-2.863206863E-1
4.833246430E-1	2.385175228E-1	-1.149741173E0	-3.905763626E-1
4.911638840E-1	9.434413910E-2	-1.275827527E0	-5.074453354E-1
4.995152580E-1	-1.155884266E-1	-1.234800816E0	-3.458003998E-1
5.076023730E-1	-2.803506851E-1	-1.212668657E0	-1.490850449E-1
5.156104500E-1	-1.114990711E-1	-1.333187699E0	-7.168006897E-2
5.236976040E-1	8.385300636E-2	-1.486278534E0	7.150363922E-2
5.317403840E-1	-1.633379459E-1	-1.541464567E0	2.359867096E-2
5.398864890E-1	-3.476030827E-1	-1.432939649E0	8.714866638E-2
5.479739890E-1	-3.164937496E-1	-1.197775602E0	6.213502884E-1
5.559766040E-1	-3.716185093E-1	-1.093448162E0	7.905902863E-1
5.640792190E-1	-4.822669029E-1	-1.196262240E0	7.015924454E-1
5.719272690E-1	-7.677752972E-1	-1.378876686E0	3.308925629E-1
5.802576420E-1	-8.608596325E-1	-1.558893442E0	3.409671783E-2
5.883604880E-1	-9.059600830E-1	-1.537979841E0	2.803773880E-1
5.963639500E-1	-1.017778873E0	-1.169659376E0	2.139644623E-1
6.044527580E-1	-9.381158352E-1	-7.814575434E-1	3.168048859E-1
6.125338450E-1	-6.966137886E-1	-4.931077957E-1	3.197050095E-1
6.206420650E-1	-6.757564545E-1	-2.777240574E-1	3.593006134E-1
6.287306810E-1	-6.746253967E-1	-7.827717066E-2	2.885856628E-1
6.367394500E-1	-3.859195709E-1	1.550605297E-1	4.032125473E-1
6.448274500E-1	-1.777303219E-1	5.400081277E-1	6.444807053E-1
6.527098070E-1	-1.873407364E-1	1.263194084E0	2.615270615E-1
6.610189500E-1	-5.210804939E-1	1.620989442E0	1.531028748E-2
6.691069110E-1	-8.952810764E-1	1.417858362E0	1.974544525E-1
6.771026040E-1	-1.550001383E0	1.159831047E0	3.231859207E-1
6.852517960E-1	-1.572961569E0	7.647130489E-1	8.317565918E-1
6.932761530E-1	-1.142688274E0	9.637506008E-1	1.459897041E0
7.013854500E-1	-4.481637478E-1	8.959449530E-1	1.144235611E0
7.094906800E-1	7.692813873E-3	8.550409675E-1	7.362718582E-1
7.174970650E-1	7.681512833E-2	5.837370157E-1	6.242017746E-1
7.255859880E-1	1.006903648E-1	2.396914959E-1	5.034093857E-1
7.334163070E-1	4.104800224E-1	-1.935403347E-1	3.216304779E-1
7.417821030E-1	8.475141525E-1	-1.737757921E-1	1.253385544E-1
7.498718720E-1	1.116737843E0	-1.697686911E-1	-7.750892639E-2
7.578811030E-1	7.981858253E-1	1.411237717E-1	4.414720535E-1
7.659705260E-1	1.239116669E0	-1.540324688E-1	9.069995880E-1
7.740594110E-1	1.068343639E0	4.721994400E-1	4.858245850E-1
7.821631030E-1	1.824922562E0	1.916912675E0	-8.554291725E-1
7.902522570E-1	2.188568115E0	5.251172781E-1	-1.402605534E0
7.982581420E-1	1.998387814E0	3.716895580E-1	1.388845444E-1
8.063622950E-1	7.896232605E-1	2.780787945E-1	3.756618500E-1
8.142581150E-1	1.668437481E0	4.953382015E-1	3.167562485E-1
8.225389110E-1	1.409143925E0	3.110468388E-1	2.229337692E-1
8.306422570E-1	9.733304977E-1	1.977689266E-1	-3.342771530E-2
8.386462180E-1	9.164929390E-1	-2.229552269E-1	3.493642807E-1
8.467341030E-1	7.256441116E-1	-3.412795067E-1	1.800432205E-1
8.548265380E-1	9.953565598E-1	-3.706820011E-1	-2.908067703E-1
8.710184870E-1	4.607481956E-1	-1.154312849E0	-1.554310322E0
8.790275640E-1	7.679972649E-1	-8.931872845E-1	-1.957474232E0
8.871172180E-1	1.755353451E0	-1.230999470E0	-2.113005161E0
8.950192680E-1	1.739337444E0	-1.570904016E0	-2.258039951E0
9.033102560E-1	1.396898746E0	-1.588032722E0	-1.709162712E0
9.113988330E-1	1.329222679E0	-1.769041300E0	-4.607739449E-1
9.193927560E-1	1.729181290E0	-1.644811392E0	7.565879822E-2
9.274969100E-1	1.725121021E0	-1.203318119E0	3.317422867E-1
9.355872180E-1	1.750094414E0	-6.079258919E-1	1.181912422E-1
9.436766790E-1	1.304211140E0	-3.071904182E-2	-5.078783035E-1
9.517811410E-1	1.070797920E0	1.559104919E-1	-9.676561356E-1
9.597869490E-1	1.066269875E0	-3.009924889E-1	-9.915580750E-1
9.678759100E-1	1.719591141E0	-1.163439989E0	-1.064673424E0
9.757725380E-1	6.598000526E-1	-7.354497910E-1	-1.539147854E0
9.840666410E-1	4.832158089E-1	-1.374527693E0	-1.843498230E0
9.921567180E-1	8.774132729E-1	-1.975449562E0	-1.019116402E0
1.000166410E0	1.042362213E0	-1.983689308E0	-6.069521904E-1
1.008256602E0	1.448465824E0	-1.758959293E0	-3.118824959E-1
1.016346256E0	1.553661346E0	-1.286738396E0	6.821470261E-1
1.024450487E0	1.603221893E0	-1.410281181E0	3.973806858E0
1.032539641E0	1.201172829E0	-1.107734680E0	2.120605469E0
1.040544064E0	1.340380669E0	7.351951599E-1	-9.753665924E-1
1.048648333E0	2.642936707E-1	1.980802774E0	-1.939968586E0
1.056434845E0	2.099552155E-1	1.964084864E0	-2.992084742E0
1.064826833E0	-1.950217724E0	1.640670061E0	-1.118454933E0
1.080937371E0	-6.840577126E-1	-5.389704704E-1	-3.794583797E0
1.089024294E0	-2.487902641E-1	-2.367921352E0	-4.185265541E0
1.097127179E0	5.969109535E-1	-2.903778076E0	-1.532913208E0
1.105215986E0	2.379775047E-1	-1.765273094E0	-2.367615700E-1
1.113303986E0	-8.069562912E-2	-1.229373932E0	-1.313408852E0
1.121313525E0	1.425080299E-1	-1.460574150E0	-2.083094358E0
1.129402486E0	2.194096088E0	-1.667912006E0	-1.470486164E0
1.137201730E0	1.819376945E-1	-3.698372841E-1	-8.300580978E-1
1.145596486E0	1.191124916E-1	3.374242783E-2	-6.071367264E-1
1.153684602E0	6.539669037E-1	2.832794189E-1	-5.345253944E-1
1.161680486E0	1.134542942E0	4.482116699E-1	-2.282762527E-1
1.169783179E0	1.646917343E0	5.140204430E-1	-6.508541107E-2
1.177832614E0	1.749753475E0	2.268085480E-1	1.005892754E-1
1.185958332E0	1.477279663E0	2.494788170E-1	-2.414975166E-1
1.194061794E0	8.162860870E-1	3.348269463E-1	-4.137411118E-1
1.202066409E0	-2.486801147E-2	3.416013718E-1	-2.626957893E-1
1.210155178E0	-6.118216515E-1	2.840995789E-2	7.323026657E-2
1.217987422E0	-1.334604740E0	5.231714249E-2	-1.814684868E-1
1.226349871E0	-1.494883537E0	-1.141548157E-1	-4.534416199E-1
1.234439024E0	7.363224030E-2	-2.959823608E-2	1.544399261E-1
1.242447832E0	-2.462887764E-1	2.594470978E-2	3.501634598E-1
1.250536024E0	-1.815772057E-1	1.193337440E-1	1.993989944E-2
1.258623755E0	-2.194924355E-1	2.868328094E-1	3.457212448E-2
1.266726447E0	-6.452999115E-1	3.304986954E-1	-1.644029617E-1
1.274814332E0	-1.136503696E0	2.148246765E-1	-4.583444595E-1
1.282818601E0	-1.193036556E0	2.346739769E-1	-1.457142830E-1
1.290921947E0	-1.075396061E0	1.734399796E-1	-4.294672012E-1
1.298789345E0	-5.848379135E-1	-8.878564835E-2	-7.414999008E-1
1.307098255E0	-6.656732559E-1	-3.666877747E-2	-1.434462070E0
1.315201563E0	-8.575158119E-1	2.465448380E-1	-2.054524899E0
1.323204101E0	-4.909663200E-1	-6.921625137E-2	-1.953973770E0
1.331292870E0	3.565073013E-2	-1.025368214E0	-1.299471378E0
1.339396101E0	-1.464018822E-1	-1.743789434E0	-8.907103539E-1
1.347484101E0	7.087597847E-1	-1.723217249E0	-7.877206802E-1
1.355573409E0	1.847567558E-1	-1.435092449E0	-4.305429459E-1
1.363581755E0	-3.016519547E-2	-1.127644539E0	7.715597153E-1
1.371671870E0	9.340896606E-1	-1.403564930E0	6.788859367E-1
1.379644037E0	1.251219749E0	-2.147390366E0	1.551538944E0
1.387864485E0	1.410940170E0	-2.792904615E0	1.433395863E0
1.395952908E0	1.745655537E0	-3.528955936E0	1.273867130E0
1.403945639E0	1.974121094E0	-4.089205742E0	1.157638550E0
1.412048755E0	2.286592484E0	-4.464692116E0	1.076060295E0
1.420137255E0	2.508485317E0	-4.170044422E0	6.137247086E-1
1.428226178E0	2.782650471E0	-3.135493279E0	9.281001091E-1
1.436329793E0	3.201334953E0	-1.562431812E0	1.571747780E0
1.444335562E0	2.907711029E0	-8.315917253E-1	1.501667500E0
1.452425331E0	3.262444973E0	-1.210249305E0	5.846023560E-1
1.460527716E0	2.663983822E0	-1.900464892E0	9.612703323E-2
1.468616947E0	1.747075081E0	-2.013082027E0	-5.220327377E-1
1.476705254E0	1.346809864E0	-1.876273632E0	-8.970742226E-1
1.484714254E0	1.571501255E0	-2.322810650E0	-1.019842148E0
1.492804023E0	9.746713638E-1	-2.194845200E0	-1.051586151E0
1.500893947E0	1.075623512E0	-1.696460009E0	-5.206074715E-1
1.508998254E0	1.100719452E0	-2.187088728E0	-3.577270508E-1
1.517089946E0	5.255022049E-1	-2.920188427E0	-7.547769547E-1
1.525095639E0	-2.548012733E-1	-2.651518106E0	-1.570707321E0
1.533246023E0	-7.468681335E-1	-1.798817396E0	-1.723483086E0
1.541159268E0	-1.183959484E0	-1.003789783E0	-2.385600328E0
1.549380677E0	-1.573441982E0	-4.383581281E-1	-2.366257906E0
1.557483831E0	-1.265007496E0	-5.955854058E-1	-2.595413923E0
1.565486831E0	-1.498304844E0	-7.573249936E-1	-1.943516731E0
1.573574023E0	-1.544573307E0	-5.645976067E-1	-1.516067505E0
1.581615576E0	-6.456522942E-1	-6.881690025E-1	-8.991508484E-1
1.589764715E0	-1.626510620E-1	-1.363671541E0	-3.270082474E-1
1.597853138E0	-4.868426323E-1	-1.415706158E0	-2.775330544E-1
1.605860677E0	-1.035358429E0	-8.159548640E-1	1.099033356E0
1.613948946E0	-8.403005600E-1	-5.767304897E-1	2.766427994E0
1.621754114E0	-1.294368267E0	7.688627243E-1	2.301225662E-1
1.630142677E0	-1.772960186E0	2.679439545E0	4.100480080E-1
1.638233561E0	-1.042723179E0	3.610917568E0	3.667837143E0
1.646230061E0	1.713827610E0	4.141549110E0	-3.526031256E0
1.654334638E0	9.007859230E-1	4.907320023E0	-7.136688709E0
1.662424215E0	-1.008392811E0	3.857093573E0	1.363947392E0
1.670513254E0	-1.818120003E0	3.230099201E0	3.160791874E0
1.678617177E0	-5.689396858E-1	3.364880800E0	-3.322257996E-1
1.686621100E0	7.716617584E-1	-2.071818590E0	1.023006439E-1
1.694709715E0	3.486774445E0	6.947374344E-1	1.184724808E0
1.702527845E0	1.359076500E0	-7.989935875E-1	3.293467999E0
1.710905253E0	5.761675835E-1	-2.543546438E0	3.156754971E0
1.718994523E0	3.492960930E-1	-3.987792730E0	1.940194130E0
1.727005292E0	-4.629073143E-1	-5.641149998E0	3.371862411E0
1.735097176E0	8.734755516E-1	-7.109755516E0	3.500306129E0
1.743165345E0	1.604651928E0	-8.018455505E0	5.528388023E-1
1.751326907E0	2.443803787E0	-9.213278770E0	-1.878908634E0
1.759372830E0	3.251187325E0	-1.122459221E1	-2.964013577E0
1.767377561E0	3.010809422E0	-1.187305069E1	-3.545166016E0
1.775480561E0	1.206113815E0	-1.047964478E1	-5.197237968E0
1.783285922E0	-3.108024597E0	-7.374946594E0	-7.116625786E0
1.791659561E0	-9.165520668E0	-2.533147335E0	-7.305353165E0
1.799763484E0	-1.014797688E1	1.397941113E0	-9.822775841E0
1.807768522E0	3.270945549E-1	-5.491719246E-1	-1.011007214E1
1.815859099E0	9.369900703E0	-2.944643497E0	-4.094548225E0
1.823908691E0	4.106681824E0	-3.048898697E0	-1.193423033E0
1.832051099E0	1.364001751E0	-2.641837597E0	1.726807117E0
1.840141099E0	5.450439453E-2	-2.150800705E0	3.608905554E0
1.848154599E0	-1.318266392E0	-1.709132671E0	4.610125542E0
1.856244522E0	-3.908365250E0	-2.447856426E0	5.490434647E0
1.864070614E0	-5.891514778E0	-2.848716259E0	4.918874741E0
1.872440099E0	-7.086448669E0	-2.840458870E0	2.879725456E0
1.880529753E0	-7.839650154E0	-2.592683792E0	5.332794189E-1
1.888525253E0	-9.204285622E0	-1.807350636E0	-1.229567528E0
1.896629945E0	-1.017625141E1	-8.073511124E-1	-2.997186184E0
1.904719368E0	-1.262615490E1	1.376027107E0	-5.221240997E0
1.912807599E0	-1.557892323E1	4.443619728E0	-7.726657391E0
1.920957253E0	-1.840118027E1	8.062893867E0	-9.714134216E0
1.928926406E0	-1.813922882E1	1.100221252E1	-1.031777668E1
1.937014906E0	-1.398444271E1	1.154748154E1	-8.424356461E0
1.944849537E0	-8.016211510E0	9.883856773E0	-4.652916908E0
1.953209060E0	-2.957455635E0	7.561616898E0	-1.090629458E0
1.961297676E0	5.765437484E-1	5.704890251E0	2.490652323E0
1.969307560E0	2.327639341E0	4.136478424E0	4.451171398E0
1.977397522E0	2.912697315E0	2.390727043E0	4.624726295E0
1.985421421E0	3.123591661E0	8.268890381E-1	3.866040945E0
1.993590291E0	3.021833420E0	-4.546766281E-1	2.555193663E0
2.001680522E0	2.158706903E0	-1.687454224E0	9.628691673E-1
2.009686291E0	1.934749722E0	-2.389450550E0	-9.644354582E-1
2.017790445E0	1.647913575E0	-2.677205086E0	-2.332519770E0
2.025607229E0	1.440076351E0	-2.696576595E0	-3.270678997E0
2.033969714E0	1.470291376E0	-2.471751690E0	-3.987633228E0
2.042074444E0	1.221951246E0	-1.647449493E0	-4.186506748E0
2.047947152E0	1.146026731E0	-1.104080200E0	-4.004944324E0
2.050078906E0	1.251371503E0	-9.293031693E-1	-3.961848736E0
2.058167714E0	1.834077120E0	-3.718671799E-1	-3.728872299E0
2.066170768E0	2.271642208E0	2.972106934E-1	-2.347360611E0
2.074359675E0	2.277254820E0	9.652538300E-1	-8.409737349E-1
2.082449867E0	2.224036694E0	1.168745041E0	3.204138279E-1
2.090459521E0	1.386153817E0	1.089893341E0	1.272240639E0
2.098549290E0	1.009666443E0	9.891643524E-1	1.556498051E0
2.106349075E0	7.246685028E-1	7.631015778E-1	1.242634296E0
2.114741060E0	5.025067329E-1	4.101076126E-1	4.943082333E-1
2.122830098E0	4.114131927E-1	6.883716583E-2	-4.010734558E-1
2.130827444E0	2.493586540E-1	-1.558189392E-1	-1.239673257E0
2.138931867E0	-3.153336048E-2	-2.506122589E-1	-1.789637566E0
2.146968075E0	-2.570670843E-1	-1.857528687E-1	-1.963873863E0
2.155112252E0	-3.992570639E-1	-4.740715027E-2	-1.714563370E0
2.163215290E0	-4.149233103E-1	1.420555115E-1	-1.174920797E0
2.171222636E0	-3.375313282E-1	3.406181335E-1	-5.710587502E-1
2.179313252E0	-2.733967304E-1	5.099391937E-1	-8.510541916E-2
2.187144191E0	-2.789510489E-1	5.516958237E-1	1.068826914E-1
2.195504213E0	-4.318972826E-1	4.325990677E-1	4.684305191E-2
2.203591482E0	-4.296938181E-1	2.443761826E-1	-2.938269377E-1
2.211597905E0	-2.784065008E-1	7.312202454E-2	-5.016704798E-1
2.219686021E0	-3.547761440E-1	-6.960582733E-2	-5.211837292E-1
2.227667575E0	-4.731751680E-1	-2.224540710E-1	-5.842196941E-1
2.235877328E0	-5.847669840E-1	-3.558101654E-1	-4.471739531E-1
2.243966328E0	-3.672040701E-1	-2.558364868E-1	-3.500658274E-1
2.251971136E0	-2.702372074E-1	-2.291889191E-1	-2.971777916E-1
2.260073367E0	-2.883702517E-1	-1.275987625E-1	-2.987349033E-2
2.267973421E0	-3.779534101E-1	-1.730136871E-1	2.583969831E-1
2.276249097E0	-2.868299484E-1	-1.643047333E-1	4.231301546E-1
2.284352713E0	-1.332339048E-1	-1.951284409E-1	3.685988188E-1
2.292354982E0	-3.549754620E-2	-1.823644638E-1	1.639928818E-1
2.300442290E0	-7.419943810E-3	-1.046285629E-1	-5.870366096E-2
2.308426460E0	8.228993416E-2	-5.032539368E-2	-2.114300728E-1
2.316629443E0	2.749717236E-1	-2.178192139E-2	-2.592496872E-1
2.324715866E0	1.272339821E-1	-1.869268417E-1	-4.155186415E-1
2.332724866E0	3.041805029E-1	-1.362171173E-1	-4.864560366E-1
2.340812674E0	3.767186403E-1	-1.833076477E-1	-5.192936659E-1
2.348697113E0	4.260238409E-1	-1.007900238E-1	-4.704048634E-1
2.357003328E0	2.858290672E-1	-3.508472443E-2	-3.200888634E-1
2.365090866E0	-2.214288712E-2	-7.691383362E-3	-1.289714575E-1
2.373083635E0	-2.898070812E-1	-1.837539673E-1	3.339254856E-2
2.381185866E0	-5.742681026E-1	-2.518224716E-1	1.921714544E-1
2.389199498E0	-5.407733917E-1	-2.647819519E-1	3.442208767E-1
2.397363866E0	-4.139503241E-1	-2.136268616E-1	4.629520178E-1
2.405468443E0	-3.276023865E-1	-9.124946594E-2	3.424801826E-1
2.413473058E0	-3.400096893E-1	1.354408264E-2	2.742174864E-1
2.421562597E0	-4.679235220E-1	7.867527008E-2	3.610278368E-1
2.429468883E0	-6.831747293E-1	9.666728973E-2	3.346103430E-1
2.437755866E0	-8.178155422E-1	2.470550537E-1	3.240652084E-1
2.445845481E0	-6.450759172E-1	1.957130432E-1	2.439858913E-1
2.453855712E0	-4.672788382E-1	6.796741486E-2	3.374068737E-1
2.461943597E0	-1.526247263E-1	-6.594848633E-2	4.733879566E-1
2.469939498E0	2.116773129E-1	-2.342853546E-1	5.214983225E-1
2.478135289E0	6.319365501E-1	-1.502790451E-1	2.366089821E-2
2.486224327E0	8.149642944E-1	-1.454114914E-1	-3.724316359E-1
2.494229866E0	8.414697647E-1	-1.550407410E-1	-6.620541811E-1
2.502333789E0	8.831911087E-1	-8.070945740E-3	-7.371711731E-1
2.510184306E0	9.437491894E-1	8.972358704E-2	-6.540385485E-1
2.518510558E0	1.048661947E0	1.617412567E-1	-4.381234646E-1
2.526613096E0	1.106776237E0	2.362623215E-1	-2.693976164E-1
2.534615789E0	1.354316711E0	2.490835190E-1	-1.297982931E-1
2.542704250E0	1.715073109E0	2.623691559E-1	7.056951523E-3
2.550807212E0	1.755668879E0	1.630735397E-1	1.914498806E-1
2.558893596E0	1.182684898E0	-1.777486801E-1	3.536870480E-1
2.566981135E0	-1.970212460E-1	-5.989446640E-1	2.193144560E-1
2.574989558E0	-3.087795973E-1	-4.603290558E-1	1.578977108E-1
2.583077519E0	1.736378670E-2	-6.837558746E-2	3.034180403E-1
2.590952652E0	-1.107678413E-1	1.596002579E-1	4.888552427E-1
2.599268365E0	-1.930773258E-1	2.329235077E-1	3.999152184E-1
2.607356327E0	-4.470851421E-1	1.423521042E-1	3.067001104E-1
2.615349904E0	-5.805336237E-1	1.438617706E-2	3.726501465E-1
2.623452981E0	-6.167120934E-1	-1.999006271E-1	5.478636026E-1
2.631452729E0	-3.723866940E-1	-5.357809067E-1	4.715890884E-1
2.639630365E0	1.916549206E-1	-7.878532410E-1	6.466318369E-1
2.647731904E0	1.337960005E0	-9.322509766E-1	8.279829025E-1
2.655733750E0	1.689026117E0	-6.282520294E-1	1.082250118E0
2.663821750E0	7.356660366E-1	-5.700712204E-1	1.106513023E0
2.671673959E0	-9.893661737E-1	2.275638580E-1	1.341723800E0
2.680015365E0	-1.790731192E0	4.416704178E-1	8.302452564E-1
2.688104173E0	-1.414724588E0	3.244457245E-1	2.340168953E-1
2.696116480E0	-8.200654984E-1	-7.897377014E-2	-2.314448357E-1
2.704205750E0	-6.708846092E-1	-4.418487549E-1	-3.634881973E-1
2.712189306E0	-4.055087566E-1	-6.880254745E-1	-4.452313185E-1
2.720401865E0	-1.311457157E-1	-7.688808441E-1	-4.188380241E-1
2.728491711E0	5.049633980E-2	-6.769180298E-1	-2.009007931E-1
2.736498365E0	2.835826874E-1	-3.644475937E-1	1.273431778E-1
2.744602865E0	5.183267593E-1	-1.662445068E-2	2.410959005E-1
2.752615036E0	1.305458546E-1	5.051612854E-2	4.053473473E-1
2.760779865E0	1.429033279E-2	-2.799606323E-2	5.237280130E-1
2.768884211E0	1.685652733E-1	-1.348276138E-1	3.076663017E-1
2.776889249E0	6.562838554E-1	6.267547607E-3	8.515393734E-2
2.784978057E0	1.035011292E0	1.617240906E-1	2.078533173E-2
2.793042767E0	1.073526144E0	6.826992035E-1	8.630859852E-2
2.801169980E0	8.822789192E-1	1.118115425E0	-7.921051979E-2
2.809256903E0	5.771462917E-1	1.168925285E0	-1.573109627E-1
2.817266326E0	1.175916195E-1	7.804679871E-1	-2.963657379E-1
2.825354557E0	-7.292621136E-1	2.153434753E-1	-2.516975403E-1
2.833185805E0	-1.052994132E0	-4.598360062E-1	1.784560680E-1
2.841544441E0	-8.355151415E-1	-6.218614578E-1	2.987335920E-1
2.849632057E0	4.647157192E-1	1.412219048E0	7.998939753E-1
2.857624403E0	1.200169325E0	3.811530113E0	7.492853403E-1
2.865727787E0	-1.836724281E-1	3.632324219E0	-3.982149363E-1
2.873697844E0	-1.358406901E0	1.698138237E0	-1.356949806E0
2.881903018E0	-5.212154388E-1	6.430053711E-2	-1.943902493E0
2.890004749E0	6.214847565E-1	-8.062496185E-1	-1.603521109E0
2.898008864E0	1.017058134E0	-9.145307541E-1	-8.554583788E-1
2.906097287E0	6.810004711E-1	-1.134638786E0	-1.891916990E-1
2.913936228E0	6.538076401E-1	-8.250398636E-1	5.484521389E-1
2.922286903E0	6.902861595E-2	-1.003209114E0	1.035737991E0
2.930375556E0	-3.092104197E-1	-1.409822941E0	1.442324877E0
2.938385095E0	-9.004127979E-2	-1.479795933E0	1.578226566E0
2.946473941E0	-2.088727951E-1	-2.039124012E0	1.444097281E0
2.954453498E0	5.208396912E-2	-2.851144314E0	1.031299114E0
2.962666210E0	1.382317543E-1	-3.317838669E0	4.818654060E-1
2.970754633E0	-9.120607376E-2	-3.216012001E0	1.808500290E-2
2.978760018E0	-2.482044697E-1	-2.494725227E0	-2.982538939E-1
2.986861902E0	-3.682312965E-1	-1.503400326E0	-3.482887745E-1
2.994770190E0	-8.183367252E-1	-7.787017822E-1	-2.037796974E-1
3.011137364E0	-2.060266495E0	-1.037342072E0	2.202515602E-1
3.019141095E0	-1.379541159E0	3.423690796E-2	-1.521017551E-1
3.027228095E0	8.841943741E-2	1.641662598E0	8.210539818E-2
3.035238267E0	1.333608627E-1	2.351726532E0	5.324192047E-1
3.043414594E0	-1.781113148E-1	2.670001984E0	2.023570538E-1
3.051500864E0	-6.583443880E-1	2.843607903E0	-3.367117643E-1
3.059508248E0	-1.358555436E0	2.947192192E0	-8.065198660E-1
3.067595325E0	-2.200139523E0	2.713453293E0	-8.437613249E-1
3.075406690E0	-2.239356279E0	2.135210991E0	-9.240112305E-1
3.083783825E0	-2.264632940E0	1.125082970E0	-9.475933313E-1
3.091871364E0	-2.037832260E0	3.044614792E-1	-7.123888731E-1
3.099865825E0	-1.468638539E0	-1.632156372E-1	-7.298339605E-1
3.107967710E0	-7.810118198E-1	-3.637409210E-1	-7.348812819E-1
3.115960536E0	-1.936889887E-1	-4.666986465E-1	-6.738117933E-1
3.124143286E0	1.499049664E-1	-4.811849594E-1	-4.105139971E-1
3.132247517E0	3.150112629E-1	-3.442611694E-1	-2.198210955E-1
3.140250479E0	3.390976191E-1	2.013874054E-2	-4.334666729E-1
3.148338633E0	1.315881014E-1	-1.010303497E-1	-4.377044439E-1
3.156217459E0	1.122863293E-1	-6.688308716E-2	-4.479478598E-1
3.164529902E0	2.988461256E-1	-6.826877594E-2	-6.237530708E-1
3.172618248E0	4.446948767E-1	-8.847141266E-2	-8.756939769E-1
3.180637517E0	7.068744898E-1	-6.996917725E-2	-1.137587428E0
3.188725055E0	7.065635920E-1	-4.407501221E-2	-1.246361732E0
3.196810517E0	8.909989595E-1	8.766174316E-2	-1.460118413E0
3.204911863E0	1.021670938E0	-9.507560730E-2	-1.392789245E0
3.213000325E0	9.482290745E-1	-2.832307816E-1	-1.197674990E0
3.221002286E0	7.622385025E-1	-3.955965042E-1	-1.057879448E0
3.229103286E0	6.246886253E-1	-1.239252090E-1	-1.054145575E0
3.236984305E0	-7.539587021E-1	-1.157500267E0	-5.963664651E-1
3.245277363E0	-1.000161648E0	-1.037387848E0	-7.386994958E-1
3.253424286E0	-5.008244514E-1	-5.771503448E-1	-4.074729681E-1
3.261384632E0	-1.787339449E-1	-6.189794540E-1	-4.582079649E-1
3.269472440E0	-2.386649847E-1	-7.089433670E-1	-4.942021072E-1
3.277576247E0	-3.791093826E-3	-8.041706085E-1	-3.573211432E-1
3.285662978E0	-8.439397812E-2	-1.204694748E0	-5.010219216E-1
3.293752286E0	-1.241853237E-1	-1.165824890E0	-4.685451984E-1
3.301763017E0	-4.406070709E-2	-1.082741737E0	-5.411506891E-1
3.309851978E0	-4.343605042E-2	-8.139991760E-1	-6.809753180E-1
3.317885728E0	-8.252811432E-2	-5.413875580E-1	-6.120779514E-1
3.326046709E0	-3.799378872E-2	-6.549549103E-2	-6.158226728E-1
3.334134824E0	-2.434206009E-2	5.230064392E-1	-6.040660143E-1
3.342128286E0	2.437911034E-1	9.807567596E-1	-4.850793481E-1
3.350230401E0	7.517083883E-1	1.419508934E0	-2.162635326E-1
3.358294959E0	1.213558197E0	1.411869049E0	2.308945358E-1
3.366405439E0	1.553780675E0	1.218713760E0	5.207984447E-1
3.374506709E0	1.706226707E0	1.016761780E0	6.301457882E-1
3.382509709E0	1.906080008E0	8.704204559E-1	6.145099401E-1
3.390598093E0	2.113866806E0	6.314754486E-1	4.722176194E-1
3.398477074E0	2.294949293E0	4.050188065E-1	2.306192219E-1
3.406786208E0	2.461946964E0	2.226877213E-1	5.328181386E-2
3.414873555E0	2.645169973E0	7.574081421E-3	-5.297647417E-2
3.422881785E0	2.588633537E0	-1.942768097E-1	-8.005928993E-2
3.430969631E0	2.221285343E0	-3.580808640E-1	-2.348284423E-2
3.438984497E0	1.964812756E0	-4.258365631E-1	-3.533150256E-2
3.447160631E0	1.660443306E0	-6.026229858E-1	-4.173824787E-1
3.455249401E0	1.184708595E0	-4.207715988E-1	1.799797267E-1
3.471354554E0	-3.050746918E-1	-6.489315033E-1	-3.083342910E-1
3.479191997E0	-3.015103340E-1	-8.504962921E-2	-1.172847152E0
3.487530824E0	4.568831921E-1	5.192785263E-1	-6.647897959E-1
3.495634054E0	-4.528772831E-1	7.078723907E-1	8.623871803E-1
3.503635900E0	-6.993207932E-1	-3.977775574E-2	6.439188123E-1
3.511722862E0	-9.909615517E-1	-5.491857529E-1	6.884282827E-2
3.519648190E0	1.378352165E0	-6.116657257E-1	9.243727922E-1
3.527911823E0	2.320648432E0	-3.105134964E-1	1.760887384E0
3.536000170E0	2.086389065E0	-3.507270813E-1	2.124036074E0
3.544008093E0	1.468772173E0	-3.737421036E-1	1.543293953E0
3.552094323E0	1.335418940E0	-3.050851822E-1	6.319884062E-1
3.559908959E0	1.566211462E0	-3.846740723E-1	-6.616991758E-2
3.568285439E0	1.456962347E0	-4.642992020E-1	-5.192271471E-1
3.576374208E0	9.001269341E-1	-4.930849075E-1	-8.027971983E-1
3.584370977E0	2.880551815E-1	-4.235095978E-1	-1.158667922E0
3.592475823E0	-1.691997051E-1	-3.429813385E-1	-1.597437859E0
3.600364613E0	-2.042424679E-1	-3.658781052E-1	-1.510401964E0
3.608654785E0	-2.432374954E-1	-3.722019196E-1	-1.325841188E0
3.616757708E0	-2.630496025E-1	-3.747253418E-1	-9.596794844E-1
3.624763361E0	7.264900208E-2	-5.258827209E-1	-9.535297751E-1
3.632851054E0	-1.432979107E-1	-6.400613785E-1	-8.208130002E-1
3.640902651E0	-9.058451653E-2	-3.794736862E-1	-4.283851385E-1
3.649041169E0	-1.819453239E-1	6.932353973E-2	-2.006610483E-1
3.657128554E0	-4.664175510E-1	4.618549347E-1	-1.705076918E-2
3.665135092E0	-8.711069822E-1	9.098691940E-1	-7.576783746E-2
3.673223477E0	-1.565497994E0	1.283463478E0	-1.375632584E-1
3.681310707E0	-1.836642981E0	1.415783882E0	-2.515881360E-1
3.689413438E0	-2.554722309E0	1.341806412E0	-2.729482353E-1
3.697500669E0	-3.172086239E0	1.384297371E0	-1.384849101E-1
3.705503938E0	-3.496903896E0	1.198430061E0	-1.458710581E-1
3.713605169E0	-3.729091406E0	9.575109482E-1	1.681733318E-2
3.721433959E0	-3.788775444E0	7.237186432E-1	2.205563337E-1
3.729778592E0	-3.932115555E0	4.847269058E-1	4.887025952E-1
3.737880476E0	-3.952244043E0	4.418230057E-1	7.292922139E-1
3.745881823E0	-4.016200066E0	5.628910065E-1	8.585399389E-1
3.753968899E0	-3.947112560E0	7.706079483E-1	8.760721684E-1
3.762036036E0	-3.740268707E0	9.845104218E-1	8.220490217E-1
3.770152092E0	-3.248105526E0	1.211524010E0	7.427662611E-1
3.778235669E0	-2.713345766E0	1.408402443E0	6.490890980E-1
3.786240976E0	-2.287520409E0	1.596229553E0	5.182607174E-1
3.794326822E0	-1.951770067E0	1.705256462E0	4.537733197E-1
3.802206382E0	-1.717257500E0	1.745471954E0	4.812910855E-1
3.810512361E0	-1.517734885E0	1.722730637E0	8.406892419E-2
3.818597130E0	-1.248124361E0	1.572260857E0	-3.878151178E-1
3.826587168E0	-6.758566380E0	-5.660897255E0	-2.180867577E1
3.834686591E0	-2.086763620E0	7.595987320E-1	3.315043211E0
3.842674151E0	2.578078747E0	2.350794792E0	8.388580322E0
3.850856361E0	2.553750753E0	3.057446480E0	9.410623550E0
3.859001899E0	3.494298458E-2	2.675559044E0	6.307278156E0
3.866959630E0	-2.060775280E0	2.744843483E0	-2.409758568E-1
3.875042976E0	-1.801787376E0	1.979969978E0	-1.867962122E0
3.882875728E0	4.395518303E-1	6.273813248E-1	6.910940409E-1
3.891226091E0	-1.836229086E0	-7.222557068E-2	1.737313271E0
3.899311822E0	-1.861116409E0	-2.709293365E-2	3.040544987E-1
3.907318514E0	8.791272640E-1	-1.180710793E0	-3.042480946E-1
3.915404514E0	1.652166009E0	-1.973119259E0	1.787155867E-1
3.923399382E0	7.989395857E-1	-2.260286808E0	7.988120317E-1
3.931595783E0	-4.590032101E-1	-2.221043110E0	1.283256531E0
3.939683360E0	-2.745172977E-1	-2.067152023E0	1.537419915E0
3.947686668E0	8.260428905E-2	-1.700178146E0	1.479940414E0
3.955788091E0	-1.457898617E-1	-1.167918205E0	9.644863605E-1
3.963606420E0	2.175903320E-1	-8.196325302E-1	8.269120455E-1
3.971959514E0	4.143606424E-1	-6.289911270E-1	9.769607782E-1
3.988063399E0	2.977259159E-1	-2.317361832E-1	6.551860571E-1
3.996150399E0	-7.392278314E-1	1.039695740E-2	1.384019852E-4
4.004111920E0	-1.876620173E0	3.172407150E-1	-4.890451431E-1
4.012338437E0	-1.652996063E0	7.754421234E-2	-5.042978525E-1
4.020423668E0	-1.402444839E0	-1.896228790E-1	-4.458866119E-1
4.028431283E0	-8.752634525E-1	-4.637079239E-1	1.323330402E-2
4.036516975E0	-2.345371842E-1	-8.219413757E-1	4.866788387E-1
4.044513689E0	3.086979389E-1	-1.336940765E0	9.122829437E-1
4.052704014E0	-1.488858223E0	-7.342920303E-1	5.301852226E-1
4.060788360E0	-2.072488785E0	-6.211147308E-1	6.439812183E-1
4.068781129E0	-1.693660021E0	-8.097658157E-1	1.036595583E0
4.076882706E0	-7.617173791E-1	-1.249014854E0	1.453471184E0
4.084905805E0	-9.108858109E-1	-8.758726120E-1	1.378941774E0
4.093055552E0	-1.136761785E0	-6.996316910E-1	1.140937090E0
4.101158590E0	-8.237562180E-1	-4.131517410E-1	9.288778305E-1
4.109163513E0	-2.977790833E-1	-3.152236938E-1	8.352315426E-1
4.125114689E0	-1.217213869E-1	-7.009029388E-2	6.663239002E-1
4.133436090E0	2.286475897E-1	-3.274974823E-1	1.560734868E0
4.141521283E0	1.584235311E0	-7.444705963E-1	2.288700104E0
4.149527475E0	2.365429878E0	-9.330291748E-1	1.350255251E0
4.157611629E0	1.652329087E0	-7.577648163E-1	-2.254474163E-1
4.173796859E0	1.861717820E0	-7.595949173E-1	-1.813682318E0
4.181880359E0	2.557989120E0	-8.902673721E-1	-1.873907566E0
4.189881667E0	1.676395297E0	-5.782127380E-1	-1.856263161E0
4.197983244E0	2.829413891E0	-6.641407013E-1	-9.225599766E-1
4.205797574E0	3.029214382E0	-5.087594986E-1	3.066909313E-1
4.214156513E0	8.972812891E-1	2.812557220E-1	2.623033524E-1
4.222257667E0	-1.500162840E0	7.141532898E-1	2.935576439E-2
4.230259821E0	-2.395914078E0	9.721679688E-1	-2.843821049E-1
4.238344782E0	-2.899115562E0	9.360265732E-1	-2.434589863E-1
4.246292766E0	-2.921031713E0	8.144092560E-1	-5.651414394E-2
4.254529474E0	-2.529959202E0	5.598526001E-1	3.320542574E-1
4.262614090E0	-2.031178236E0	2.861356735E-1	7.822535038E-1
4.270618974E0	-1.827478409E0	5.720138550E-3	1.265663028E0
4.278703590E0	-1.621493578E0	-1.516695023E-1	1.644991159E0
4.286492227E0	-1.385681152E0	-2.766580582E-1	1.809173584E0
4.294888244E0	-1.046221495E0	-2.949380875E-1	1.791833162E0
4.302972628E0	-6.181703210E-1	-2.168111801E-1	1.681460261E0
4.310963513E0	-1.141182482E-1	-1.175470352E-1	1.445342779E0
4.319062936E0	3.236916959E-1	2.305412292E-2	1.053050876E0
4.327090189E0	6.465769410E-1	1.082048416E-1	6.010992527E-1
4.335234782E0	8.652896881E-1	9.592723846E-2	1.197445393E-1
4.343335859E0	9.775840640E-1	-3.189659119E-2	-3.318518400E-1
4.351339936E0	9.517997503E-1	-2.672815323E-1	-6.372731924E-1
4.359378397E0	9.362659454E-1	-6.265039444E-1	-8.587228060E-1
4.367340612E0	8.587827682E-1	-1.004628181E0	-1.040869236E0
4.375567512E0	7.229415178E-1	-1.353521347E0	-1.126905203E0
4.383654743E0	5.244039297E-1	-1.578650475E0	-1.134863138E0
4.391661320E0	3.261294961E-1	-1.725340366E0	-9.987233877E-1
4.399749128E0	1.194224954E-1	-1.721387386E0	-6.742916107E-1
4.407721881E0	7.088336349E-2	-1.689208508E0	-3.343963623E-1
4.415938051E0	7.650092244E-2	-1.576931477E0	-2.753114700E-2
4.424024358E0	1.116751134E-1	-1.434624672E0	2.550904751E-1
4.432027243E0	8.136412501E-2	-1.209325790E0	4.957265854E-1
4.440128166E0	-4.248332977E-2	-9.844503403E-1	7.145936489E-1
4.447917035E0	-1.935835630E-1	-7.787752151E-1	7.952749729E-1
4.456299512E0	-3.982474804E-1	-7.231779099E-1	9.765877724E-1
4.464399820E0	-4.532433748E-1	-6.643218994E-1	9.920673370E-1
4.472400512E0	-5.757402182E-1	-5.998582840E-1	9.636788368E-1
4.480485474E0	-5.612501502E-1	-5.465927124E-1	8.386371136E-1
4.488387804E0	-5.264787674E-1	-5.075902939E-1	6.217389107E-1
4.496669974E0	-5.290139318E-1	-4.496307373E-1	4.265832901E-1
4.504755743E0	-5.577874780E-1	-4.336881638E-1	2.169072628E-1
4.512764281E0	-5.487519503E-1	-3.282928467E-1	1.351313591E-1
4.520850935E0	-5.264402628E-1	-2.152471542E-1	8.270192146E-2
4.528687150E0	-4.858873487E-1	-1.265573502E-1	-8.187770844E-3
4.537037704E0	-4.306063354E-1	-6.424808502E-2	-1.455197334E-1
4.545125666E0	-3.444762826E-1	4.996776581E-2	-3.163084984E-1
4.553117704E0	-3.051891029E-1	1.134395599E-1	-4.806309938E-1
4.561219589E0	-3.347901702E-1	1.186904907E-1	-6.078678370E-1
4.569221997E0	-4.044138789E-1	1.050510406E-1	-7.375202179E-1
4.577391666E0	-5.665202141E-1	6.947326660E-2	-8.670151234E-1
4.585493858E0	-8.639799356E-1	-1.154899597E-2	-9.711787701E-1
4.591416689E0	-1.119153261E0	-7.460594177E-2	-9.852996469E-1
4.593495819E0	-1.217315435E0	-8.657646179E-2	-1.011635900E0
4.601580704E0	-1.543336987E0	-3.771114349E-2	-9.917368293E-1
4.609448573E0	-1.868703485E0	1.303462982E-1	-9.002361894E-1
4.617770012E0	-2.063938141E0	2.987384796E-1	-6.902728677E-1
4.625856127E0	-2.204653263E0	4.867353439E-1	-3.734112978E-1
4.633863935E0	-2.171822548E0	6.673154831E-1	-3.508782387E-2
4.641949627E0	-2.137737274E0	7.178649902E-1	2.470104694E-1
4.649876573E0	-1.976183653E0	5.464563370E-1	3.601886034E-1
4.658139896E0	-1.740535259E0	2.274036407E-1	2.354506254E-1
4.666227704E0	-1.538602710E0	-1.511917114E-1	-8.458602428E-2
4.674231896E0	-1.412530899E0	-4.003381729E-1	-4.627958536E-1
4.682332934E0	-1.134041309E0	-7.258319855E-1	-7.487960458E-1
4.690199189E0	-8.723616600E-1	-9.414129257E-1	-8.917974234E-1
4.698504819E0	-7.623364329E-1	-7.959270477E-1	-5.451799035E-1
4.706606588E0	-5.090117455E-1	2.746372223E-1	5.025600195E-1
4.714609473E0	-2.800909281E-1	2.514411926E0	1.436669111E0
4.722695819E0	3.675917983E-1	3.892095566E0	7.537180185E-1
4.730617535E0	1.176938653E0	3.945820808E0	-7.021391392E-1
4.738885242E0	1.981002569E0	3.538738251E0	-1.833856702E0
4.746970665E0	2.601784706E0	3.454726219E0	-2.234748840E0
4.763066126E0	3.613685608E0	3.374613762E0	-1.899252176E0
4.770892573E0	3.568567753E0	1.975468636E0	-1.951667547E0
4.779255742E0	2.960887432E0	7.412118912E-1	-1.817342758E0
4.787343011E0	2.649650812E0	-3.240957260E-1	-1.541119933E0
4.795335395E0	2.602942467E0	-1.228525162E0	-1.158591390E0
4.803437126E0	2.708110809E0	-1.905462742E0	-1.016483545E0
4.811310342E0	2.917177677E0	-2.316776752E0	-1.073450208E0
4.819613049E0	3.278122425E0	-2.568252087E0	-1.183511496E0
4.827716280E0	3.463629961E0	-2.593345165E0	-1.240054131E0
4.835720472E0	3.525957346E0	-2.608727455E0	-1.360897660E0
4.843809434E0	3.649304152E0	-2.669661999E0	-1.459642649E0
4.851692881E0	3.894797325E0	-2.648437500E0	-1.480431795E0
4.859999818E0	4.265974045E0	-2.490891933E0	-1.399784446E0
4.868087318E0	4.609264851E0	-2.132772923E0	-1.226927876E0
4.876094164E0	4.889784336E0	-1.581418991E0	-9.667166471E-1
4.884181357E0	5.110524178E0	-8.749532700E-1	-5.981451273E-1
4.892028342E0	5.236638546E0	-6.889152527E-2	-2.656055689E-1
4.900372203E0	5.055642128E0	7.373228073E-1	-5.436301231E-3
4.908459818E0	4.571836948E0	1.466851234E0	1.581206322E-1
4.916466626E0	4.048269749E0	1.999774933E0	3.064335585E-1
4.924615280E0	3.566125870E0	2.144273758E0	4.811311960E-1
4.932447189E0	3.248526096E0	1.629684448E0	4.777016640E-1
4.940749203E0	3.043872595E0	8.630990982E-1	3.551347256E-1
4.948852241E0	2.723734140E0	1.223220825E-1	1.507108212E-1
4.956856010E0	2.373914719E0	-5.108289719E-1	-1.810470819E-1
4.964945087E0	2.102626562E0	-1.031262398E0	-5.442289710E-1
4.972821342E0	1.929225683E0	-1.407551765E0	-8.608308434E-1
4.981135895E0	1.677135468E0	-1.536786079E0	-9.622319341E-1
4.989222202E0	1.389899492E0	-1.485594749E0	-8.732175827E-1
4.997231664E0	1.027335286E0	-1.307579994E0	-6.603633165E-1
5.005319318E0	6.207000017E-1	-1.078146935E0	-3.895688057E-1
5.013262458E0	2.695467472E-1	-8.816375732E-1	-1.167345643E-1
5.021508856E0	-2.407264709E-2	-7.319908142E-1	1.997157335E-1
5.029595318E0	-2.755435705E-1	-6.201219559E-1	4.969604015E-1
5.037588202E0	-4.212316275E-1	-4.884090424E-1	6.483339071E-1
5.045688856E0	-4.092874527E-1	-3.678646088E-1	5.506666899E-1
5.053564496E0	-1.643778086E-1	-2.775707245E-1	2.544930577E-1
5.061860510E0	3.109956980E-1	-2.982482910E-1	-1.534843445E-1
5.069962318E0	8.473250866E-1	-3.245077133E-1	-5.311936140E-1
5.077962856E0	1.336086988E0	-3.745756149E-1	-7.875858545E-1
5.086047933E0	1.836694717E0	-3.586015701E-1	-9.282482862E-1
5.093854188E0	2.156896591E0	-2.978734970E-1	-9.760946035E-1
5.102235664E0	2.338030815E0	-2.307910919E-1	-8.869578838E-1
5.110322548E0	2.175168753E0	-1.657428741E-1	-6.533583999E-1
5.118328817E0	2.083359718E0	-1.377706528E-1	-3.217208385E-1
5.126414779E0	2.194421291E0	-2.071418762E-1	-4.506081343E-3
5.134262188E0	2.205626726E0	-2.588300705E-1	3.701280355E-1
5.142603048E0	1.813214779E0	-2.866744995E-1	5.546019673E-1
5.150689625E0	1.429321766E0	-3.192977905E-1	5.410434008E-1
5.158692971E0	1.187468767E0	-4.280176163E-1	3.495265245E-1
5.166794356E0	9.785542488E-1	-5.097017288E-1	-2.169308066E-2
5.174641842E0	8.575658798E-1	-6.183671951E-1	-4.041033685E-1
5.182966240E0	7.578864098E-1	-6.855449677E-1	-7.953388095E-1
5.191067856E0	7.037823200E-1	-6.937656403E-1	-1.002330542E0
5.199069817E0	6.891145706E-1	-6.685857773E-1	-9.727952480E-1
5.207154663E0	5.943937302E-1	-5.521326065E-1	-8.116490245E-1
5.215073304E0	4.415202141E-1	-3.781623840E-1	-6.092772484E-1
5.223339548E0	2.970445156E-1	-1.835861206E-1	-3.950438499E-1
5.231426278E0	1.045608521E-1	-1.733493805E-2	-2.311433554E-1
5.239432932E0	-9.383845329E-2	1.112394333E-1	-1.367605925E-1
5.247519317E0	-3.214993477E-1	2.258701324E-1	-7.933452725E-2
5.255369265E0	-5.485036373E-1	3.087453842E-1	-7.037263364E-2
5.263705086E0	-7.219152451E-1	3.748760223E-1	-1.015273631E-1
5.271791548E0	-8.410882950E-1	3.728370667E-1	-1.422057003E-1
5.279783586E0	-9.148761034E-1	3.647022247E-1	-1.817047745E-1
5.287883932E0	-1.024671555E0	3.060426712E-1	-1.876116544E-1
5.295807073E0	-1.121824861E0	2.470207214E-1	-1.985600442E-1
5.304055047E0	-1.175790548E0	2.268800735E-1	-2.291892916E-1
5.312155624E0	-1.210073829E0	2.773714066E-1	-2.087073624E-1
5.320157201E0	-1.252548695E0	4.300861359E-1	-8.568828553E-2
5.328244163E0	-1.184111118E0	7.504806519E-1	1.406165361E-1
5.336101919E0	-9.432916641E-1	1.207070351E0	2.052576393E-1
5.344431086E0	-6.569683552E-1	1.704588890E0	1.042757928E-2
5.360523932E0	-3.083882332E-1	2.519353867E0	-4.392921627E-1
5.368612124E0	-2.002241611E-1	2.859689713E0	-6.930397153E-1
5.376525419E0	-9.398078918E-2	3.150845528E0	-8.307887316E-1
5.384801970E0	-7.111024857E-2	3.385713577E0	-8.950204849E-1
5.392890316E0	-6.316447258E-2	3.523916245E0	-8.341671228E-1
5.400894585E0	-3.893375397E-4	3.498426437E0	-4.977926016E-1
5.408996585E0	2.680931091E-1	3.203351021E0	-9.752368927E-2
5.416785265E0	4.013824463E-2	2.702957153E0	1.799748689E-1
5.425173508E0	-3.843319416E-1	2.150346756E0	3.493823409E-1
5.433276662E0	-9.070044756E-1	1.617398262E0	4.000088274E-1
5.441280124E0	-1.352977157E0	1.135402679E0	2.924978435E-1
5.449367970E0	-1.744607925E0	7.161598206E-1	-8.756011724E-3
5.457257650E0	-2.044711351E0	4.075975418E-1	-3.753051460E-1
5.465558893E0	-2.395083666E0	2.166166306E-1	-6.451444030E-1
5.481656662E0	-3.163507462E0	-1.521577835E-1	-9.500672817E-1
5.489744970E0	-3.476011276E0	-3.215618134E-1	-1.027273536E0
5.497587804E0	-3.700713634E0	-4.233503342E-1	-1.011925101E0
5.505934662E0	-3.847816467E0	-5.067529678E-1	-8.763207197E-1
5.514020700E0	-3.870243311E0	-4.949407578E-1	-7.129579782E-1
5.522014277E0	-3.798526764E0	-4.351654053E-1	-5.785146356E-1
5.530117700E0	-3.721897840E0	-3.957204819E-1	-3.796651959E-1
5.538049419E0	-3.539296627E0	-2.819719315E-1	-1.556925774E-1
5.546292508E0	-3.288493156E0	-1.033525467E-1	8.558499813E-2
5.554393854E0	-3.000061274E0	1.413726807E-1	3.099300861E-1
5.562396008E0	-2.445640564E0	4.124412537E-1	6.070433855E-1
5.570483123E0	-1.712353706E0	7.203321457E-1	8.533676863E-1
5.578290265E0	-8.961968422E-1	9.234037399E-1	9.711747169E-1
5.586673931E0	-2.072188854E-1	1.017578125E0	9.991323948E-1
5.594760662E0	3.321425915E-1	1.002558708E0	8.419137001E-1
5.602768200E0	7.141745090E-1	1.052601814E0	4.835408926E-1
5.610855392E0	9.640437365E-1	1.082245827E0	4.939138889E-2
5.618721688E0	1.088299513E0	1.207520485E0	-3.974506855E-1
5.627046700E0	1.182840586E0	1.083411217E0	-7.187609673E-1
5.635134431E0	1.349752426E0	9.328165054E-1	-1.109579563E0
5.643141508E0	1.492961526E0	4.875526428E-1	-1.313585281E0
5.651245354E0	1.592524171E0	-6.094074249E-2	-1.383710504E0
5.659028380E0	1.540151954E0	-6.527624130E-1	-1.275366068E0
5.667423123E0	1.627817512E0	-1.167562485E0	-1.063124180E0
5.675525200E0	1.572336197E0	-1.593635082E0	-8.403862715E-1
5.683527392E0	1.377061605E0	-1.885188103E0	-6.489986181E-1
5.691616161E0	1.116372108E0	-2.048506260E0	-4.992114305E-1
5.699641265E0	6.850266457E-1	-2.082748890E0	-4.291081429E-1
5.707808430E0	2.032082081E-1	-2.022425175E0	-3.998132944E-1
5.715897507E0	-1.541644335E-1	-1.898668766E0	-3.967509270E-1
5.723907700E0	-3.773009777E-1	-1.749830723E0	-3.371300697E-1
5.731996353E0	-4.721201062E-1	-1.616871357E0	-2.300101519E-1
5.739841957E0	-5.159490108E-1	-1.519102097E0	-9.953570366E-2
5.748188546E0	-5.172212124E-1	-1.470896721E0	6.087923050E-2
5.756277007E0	-5.519488454E-1	-1.455480576E0	2.055176497E-1
5.764272930E0	-5.364227295E-1	-1.503613472E0	3.735067844E-1
5.772376623E0	-5.400567651E-1	-1.584153652E0	5.674464703E-1
5.780391419E0	-5.468018651E-1	-1.720673561E0	8.053567410E-1
5.788555969E0	-5.124652982E-1	-1.826412201E0	1.097207069E0
5.796660046E0	-4.235764742E-1	-1.858065128E0	1.377980709E0
5.804665776E0	-3.594152331E-1	-1.836928368E0	1.675202012E0
5.812752699E0	-1.292387247E-1	-1.650085449E0	1.958313346E0
5.820608726E0	1.432110071E-1	-1.366951942E0	2.228886604E0
5.828942353E0	4.881473780E-1	-9.634819031E-1	2.541835308E0
5.837030968E0	7.344001532E-1	-5.757493973E-1	2.847216368E0
5.845040045E0	1.001259923E0	-2.073116302E-1	3.005347729E0
5.853127507E0	1.223590136E0	1.460494995E-1	2.957441092E0
5.861113996E0	1.429544091E0	4.174985886E-1	2.615099907E0
5.869318199E0	1.652277946E0	5.334663391E-1	2.095812321E0
5.877405507E0	1.954845905E0	5.057764053E-1	1.441872239E0
5.885408968E0	2.031662464E0	3.027219772E-1	7.199889421E-1
5.893509853E0	1.932941079E0	-7.266521454E-2	1.456334591E-1
5.901390265E0	1.551454425E0	-5.225553513E-1	-3.271058798E-1
5.909685160E0	1.076089025E0	-9.845142365E-1	-5.644366741E-1
5.917789237E0	5.871460438E-1	-1.358211517E0	-6.454153061E-1
5.925794122E0	1.565337181E-1	-1.574179649E0	-5.995045900E-1
5.933884583E0	-1.504951715E-1	-1.634102345E0	-4.279780388E-1
5.941824380E0	-4.438488483E-1	-1.364788055E0	-1.977306604E-1
5.950077430E0	-5.930968523E-1	-7.606992722E-1	-1.821887493E-2
5.958165506E0	-7.496917248E-1	1.545381546E-1	8.032751083E-2
5.966174122E0	-9.391762018E-1	1.164320946E0	-1.176776886E-1
5.974262353E0	-1.181194544E0	1.768675804E0	-8.108799458E-1
5.982099919E0	-1.480408669E0	1.989197731E0	-1.632949710E0
5.990452006E0	-1.662854910E0	1.481842995E0	-2.349093914E0
5.998539352E0	-1.692451835E0	1.779719353E0	-2.708885670E0
6.006534160E0	-1.764656425E0	2.127137184E0	-2.844014645E0
6.014635775E0	-1.978585958E0	2.368579865E0	-2.809588194E0
6.022439572E0	-2.409934759E0	2.388685226E0	-2.600176811E0
6.030812198E0	-2.791149616E0	2.082566261E0	-2.112373114E0
6.046928660E0	-1.850122929E0	8.471088409E-1	-3.814754486E-1
6.055015160E0	-1.094320059E0	4.181003571E-1	1.921029091E-1
6.062904919E0	-3.426355720E-1	2.020311356E-1	3.503723145E-1
6.071203929E0	4.566121101E-1	1.241159439E-1	1.862348318E-1
6.079290929E0	1.109231830E0	1.241874695E-1	-2.205829620E-1
6.087297621E0	1.730862856E0	1.546974182E-1	-8.346866369E-1
6.095384967E0	2.234666348E0	2.588214874E-1	-1.502646565E0
6.103181688E0	2.211902618E0	2.260704041E-1	-2.121651173E0
6.111572814E0	1.951788068E0	1.410865784E-1	-2.620914459E0
6.119659544E0	1.584555268E0	-5.323791504E-2	-2.779162407E0
6.127664160E0	1.121550798E0	-2.815198898E-1	-2.591789961E0
6.135765044E0	8.332207203E-1	-5.373640060E-1	-2.164701939E0
6.143638380E0	6.732815504E-1	-7.648277283E-1	-1.653229713E0
6.151938236E0	3.718979359E-1	-9.373216629E-1	-1.129603148E0
6.160039544E0	-3.750026226E-2	-9.328727722E-1	-7.267695069E-1
6.168041659E0	-5.528074503E-1	-7.627162933E-1	-4.851631224E-1
6.176128890E0	-1.067299724E0	-5.212430954E-1	-3.909875751E-1
6.183954111E0	-1.446685076E0	-3.211507797E-1	-4.034795165E-1
6.192317467E0	-1.554755688E0	-1.605892181E-1	-4.764426351E-1
6.200404236E0	-1.382327914E0	-7.025337219E-2	-6.149601340E-1
6.208430275E0	-1.173749924E0	4.825592041E-3	-7.690832615E-1
6.216517621E0	-1.055904269E0	9.820938110E-2	-8.613933921E-1
6.232704005E0	-8.713750839E-1	2.070922852E-1	-7.901335955E-1
6.240790198E0	-7.340797186E-1	2.332391739E-1	-6.267651320E-1
6.248783390E0	-5.945671201E-1	2.291164398E-1	-4.268294275E-1
6.256885544E0	-4.166637063E-1	1.853542328E-1	-1.581600755E-1
6.264732072E0	-2.428354025E-1	1.622066498E-1	1.303662956E-1
6.273060082E0	-1.363432407E-1	2.144041061E-1	3.699997663E-1
6.281159390E0	-6.548422575E-2	2.636861801E-1	5.164356232E-1
6.289160236E0	1.416558027E-2	3.141403198E-1	5.974742174E-1
6.297244428E0	1.435804963E-1	3.701515198E-1	6.376757622E-1
6.305167764E0	3.584876657E-1	4.196882248E-1	6.093164682E-1
6.313432005E0	6.433756948E-1	4.771766663E-1	4.672612548E-1
6.321518044E0	8.754849434E-1	4.492397308E-1	3.017702401E-1
6.329527043E0	1.087633610E0	4.077663422E-1	5.391404033E-2
6.337614274E0	1.212616682E0	2.952880859E-1	-1.684201211E-1
6.345455226E0	1.275531173E0	1.762247086E-1	-3.193856180E-1
6.353806505E0	1.304760695E0	2.701473236E-2	-3.328409195E-1
6.361895082E0	1.309189796E0	-8.792877197E-2	-2.624215484E-1
6.369899851E0	1.242355943E0	-1.710062027E-1	-1.431234777E-1
6.378002159E0	1.144708395E0	-2.580099106E-1	2.200120687E-2
6.385974534E0	9.812382460E-1	-3.492097855E-1	1.764523238E-1
6.394177697E0	8.119229078E-1	-3.799257278E-1	2.731986046E-1
6.402278120E0	6.057548523E-1	-3.914918900E-1	3.091976047E-1
6.410278428E0	3.631092310E-1	-3.867712021E-1	2.681329250E-1
6.418363774E0	1.553213596E-1	-3.617248535E-1	1.916297227E-1
6.426217264E0	-1.941394806E-2	-3.046493530E-1	8.367855847E-2
6.434548543E0	-1.923995018E-1	-2.539396286E-1	-1.970058680E-2
6.442632774E0	-2.952499390E-1	-2.003431320E-1	-1.037238464E-1
6.450639620E0	-3.328891993E-1	-1.574840546E-1	-1.245561987E-1
6.458725158E0	-3.270397186E-1	-9.145355225E-2	-9.709434211E-2
6.466650264E0	-3.077048063E-1	1.709556580E-2	-3.527384251E-2
6.474911812E0	-2.330621481E-1	1.228666306E-1	6.832972169E-2
6.482997735E0	-1.754256487E-1	2.139720917E-1	1.828314364E-1
6.490990543E0	-1.112390757E-1	2.617588043E-1	3.148782849E-1
6.499091427E0	-6.726396084E-2	2.974357605E-1	4.367172122E-1
6.506957880E0	-3.662538528E-2	2.971115112E-1	5.337175131E-1
6.515262158E0	1.748907566E-2	2.227296829E-1	6.322038770E-1
6.523362850E0	6.372678280E-2	1.293392181E-1	6.715378165E-1
6.531363504E0	1.220982075E-1	1.474571228E-2	6.637367606E-1
6.539449235E0	1.872730255E-1	-1.568956375E-1	6.339908838E-1
6.547418380E0	2.920085192E-1	-3.448028564E-1	5.285898447E-1
6.555633581E0	3.854908943E-1	-6.016073227E-1	3.684603870E-1
6.563720658E0	4.493969679E-1	-8.583517075E-1	1.764202416E-1
6.571725273E0	4.413266182E-1	-1.198912621E0	-6.668716669E-4
6.579809081E0	3.973190784E-1	-1.470384598E0	-1.772994399E-1
6.587688226E0	2.829575539E-1	-1.629816055E0	-3.437705338E-1
6.595991581E0	2.069164515E-1	-1.753565311E0	-6.262438297E-1
6.604075273E0	9.706866741E-2	-1.537467957E0	-9.820529222E-1
6.612076927E0	-1.213232279E-1	-1.035893440E0	-1.248207211E0
6.620177235E0	-2.394015789E-1	-2.722473145E-1	-1.291788459E0
6.628039303E0	-2.067666054E-1	4.869813919E-1	-1.122191668E0
6.636350619E0	-3.154535890E-1	1.488963127E0	-9.539337754E-1
6.644450850E0	-4.383626580E-1	2.137494087E0	-8.589451313E-1
6.652457542E0	-6.915848851E-1	2.645507812E0	-5.976074934E-1
6.660544619E0	-1.176701188E0	3.158916473E0	1.307660341E-1
6.668487610E0	-2.057890654E0	3.651331902E0	1.316695690E0
6.674600649E0	-2.678539753E0	3.952777863E0	2.153023005E0
6.676734042E0	-2.870075941E0	3.959959984E0	2.373289585E0
6.684821581E0	-3.067302227E0	3.526601791E0	3.026027203E0
6.692830888E0	-2.709104061E0	2.529912949E0	2.816785574E0
6.700918696E0	-2.143231392E0	1.376325607E0	2.008756638E0
6.708768495E0	-1.523247242E0	3.221378326E-1	1.186664462E0
6.717105311E0	-9.265013933E-1	-4.885482788E-1	6.791089773E-1
6.725190619E0	-1.888594627E-1	-1.081301689E0	4.684454799E-1
6.733181811E0	3.930703402E-1	-1.501235008E0	4.426343441E-1
6.741281888E0	8.493571281E-1	-1.846344948E0	4.732208848E-1
6.749088726E0	1.001086593E0	-2.027993679E0	4.377319515E-1
6.757455734E0	9.697704315E-1	-2.071550846E0	3.027300239E-1
6.765557503E0	8.882025480E-1	-2.064039707E0	1.518218219E-1
6.773560888E0	7.090855837E-1	-1.863825321E0	-3.130654991E-2
6.781645196E0	5.125812292E-1	-1.534371376E0	-2.815788090E-1
6.789620110E0	3.795838356E-1	-1.267634392E0	-6.667490602E-1
6.797828003E0	-1.073169708E-2	-9.730625153E-1	-1.117494345E0
6.805915042E0	-4.714370966E-1	-7.583990097E-1	-1.389574528E0
6.813924388E0	-8.384647369E-1	-5.376176834E-1	-1.532382965E0
6.822010388E0	-9.883366823E-1	-2.654132843E-1	-1.531727791E0
6.829804687E0	-1.109127164E0	2.671241760E-3	-1.347841620E0
6.838197849E0	-1.218737960E0	2.633771896E-1	-1.084989429E0
6.846284503E0	-1.351051211E0	5.478086472E-1	-8.876834512E-1
6.854286618E0	-1.390938163E0	8.299570084E-1	-7.580023408E-1
6.862389888E0	-1.297012091E0	9.812002182E-1	-5.305322409E-1
6.870312610E0	-8.728991747E-1	8.885726929E-1	-2.216169238E-1
6.878563926E0	-2.580478787E-1	6.688003540E-1	1.064674482E-1
6.886663311E0	3.687946796E-1	4.204158783E-1	3.701522946E-1
6.894663311E0	8.881368637E-1	2.297334671E-1	5.070493817E-1
6.902748926E0	1.194809794E0	6.649971008E-2	5.828589201E-1
6.910652726E0	1.093461156E0	-2.342700958E-2	5.590301752E-1
6.914904734E0	9.512465000E-1	-3.947067261E-2	5.252379775E-1
6.916816995E0	8.818147182E-1	-5.623054504E-2	5.084785819E-1
6.918934618E0	8.004118204E-1	-6.341266632E-2	4.845365882E-1
6.927022041E0	5.295754671E-1	-1.593856812E-1	4.472355247E-1
6.935028887E0	2.760832310E-1	-2.471551895E-1	4.355413020E-1
6.943113272E0	-9.269940853E-2	-2.675075531E-1	4.458250999E-1
6.951009379E0	-6.007999182E-1	-1.829195023E-1	4.981028438E-1
6.959301656E0	-1.055024147E0	-8.263683319E-2	5.706723332E-1
6.967389080E0	-1.397681475E0	-4.673004150E-4	6.321073771E-1
6.975381464E0	-1.669693589E0	1.063756943E-1	6.526013613E-1
6.983482387E0	-1.821942568E0	1.491775513E-1	6.359114051E-1
6.991333149E0	-1.910882473E0	2.239913940E-1	5.802245140E-1
6.999655733E0	-1.852117062E0	2.920227051E-1	4.894247949E-1
7.007755964E0	-1.760150671E0	3.551321030E-1	3.977567852E-1
7.015758118E0	-1.602458596E0	4.015274048E-1	3.453273475E-1
7.023844041E0	-1.380021691E0	4.194078445E-1	3.532736301E-1
7.031827841E0	-1.155589342E0	3.755750656E-1	3.887625039E-1
7.040028541E0	-9.390881658E-1	3.153476715E-1	3.632499576E-1
7.048114772E0	-7.436892390E-1	2.007274628E-1	3.183278441E-1
7.056121579E0	-5.575552583E-1	6.760025024E-2	2.465094775E-1
7.064207771E0	-3.112295866E-1	-2.657413483E-2	2.085131407E-1
7.072036572E0	-6.823563576E-2	-7.922267914E-2	1.955863088E-1
7.080397733E0	8.694267273E-2	-5.458545685E-2	2.119227946E-1
7.088484464E0	2.743175626E-1	-1.224517822E-2	2.561149895E-1
7.096488848E0	4.799941778E-1	5.723571777E-2	2.932589948E-1
7.104591194E0	7.421946526E-1	1.079912186E-1	2.976132631E-1
7.112482264E0	9.600476623E-1	1.351499557E-1	1.195334494E-1
7.120766656E0	1.136273742E0	1.892156601E-1	-1.893889010E-1
7.128867617E0	1.280498743E0	2.244787216E-1	-5.608870387E-1
7.136870771E0	1.433033943E0	2.214260101E-1	-8.220721483E-1
7.144955810E0	1.492673159E0	1.920347214E-1	-9.963749647E-1
7.152900610E0	1.473816991E0	1.410799026E-1	-1.018305421E0
7.161143886E0	1.402211666E0	3.271484375E-2	-9.833308458E-1
7.169230810E0	1.251129389E0	-6.117916107E-2	-8.648717403E-1
7.177237733E0	1.069934845E0	-1.835680008E-1	-6.968439221E-1
7.185322848E0	9.411176443E-1	-2.864065170E-1	-5.821798444E-1
7.193212187E0	7.910141349E-1	-4.008293152E-1	-5.091589093E-1
7.201507732E0	5.899894834E-1	-5.530614853E-1	-3.625603914E-1
7.209593579E0	3.715411425E-1	-7.006378174E-1	-2.039304972E-1
7.217586732E0	1.512885094E-1	-8.460750580E-1	-7.703295350E-2
7.225687617E0	-1.806288958E-2	-9.438104630E-1	1.197437048E-1
7.233510533E0	-1.176204681E-1	-1.142310143E0	4.650565982E-1
7.241856155E0	-1.558364630E-1	-1.238044739E0	8.264863491E-1
7.249955078E0	-1.640034318E-1	-1.331430435E0	1.208688140E0
7.257956540E0	-1.263871193E-1	-1.350302696E0	1.544834971E0
7.266041194E0	-9.809255600E-3	-1.280284882E0	1.893507600E0
7.273912379E0	1.105515957E-1	-8.577575684E-1	2.122053623E0
7.282230348E0	2.316714525E-1	-2.644071579E-1	2.174545050E0
7.290315155E0	2.977957726E-1	3.394870758E-1	1.998028040E0
7.298321232E0	2.174681425E-1	8.517932892E-1	1.699210405E0
7.306406694E0	2.050399780E-5	1.169521332E0	1.343513727E0
7.314190418E0	-2.423918843E-1	1.257815361E0	8.968165517E-1
7.322592424E0	-5.355269909E-1	1.217453003E0	4.752194881E-1
7.330679078E0	-7.743912935E-1	1.093967438E0	1.318163872E-1
7.338682040E0	-9.150120020E-1	9.356660843E-1	-1.446158290E-1
7.346782963E0	-1.008015871E0	7.235879898E-1	-3.306219280E-1
7.354711225E0	-9.056426883E-1	4.625835419E-1	-4.595239162E-1
7.362954693E0	-7.303898931E-1	1.261072159E-1	-5.669150949E-1
7.371055116E0	-7.237497568E-1	-1.973838806E-1	-7.269952893E-1
7.379055616E0	-7.769274712E-1	-4.406986237E-1	-8.784551620E-1
7.387141001E0	-7.783409357E-1	-5.893297195E-1	-9.958783388E-1
7.395028571E0	-6.264759898E-1	-6.804227829E-1	-9.823551178E-1
7.403324847E0	-3.141758144E-1	-7.037267685E-1	-8.254251480E-1
7.411409693E0	7.180678844E-2	-6.970949173E-1	-5.088602304E-1
7.419416385E0	5.344499946E-1	-6.243028641E-1	-1.008985639E-1
7.427501155E0	9.637465477E-1	-5.003976822E-1	2.532827258E-1
7.435397725E0	1.290825129E0	-3.684358597E-1	5.569245815E-1
7.443685693E0	1.504957438E0	-2.778959274E-1	8.205724955E-1
7.451770732E0	1.667060971E0	-4.944610596E-2	9.316496849E-1
7.459761231E0	1.772411585E0	1.711587906E-1	8.632433414E-1
7.467863155E0	1.810030341E0	2.885484695E-1	7.887520790E-1
7.475778994E0	1.746401548E0	3.874111176E-1	6.475675106E-1
7.484034808E0	1.573083401E0	3.719959259E-1	4.481311738E-1
7.492136885E0	1.281925678E0	3.038311005E-1	2.171492875E-1
7.500139347E0	9.595227242E-1	2.379589081E-1	-1.752257347E-3
7.508226116E0	5.933648348E-1	1.289205551E-1	-2.600622773E-1
7.516160225E0	2.570879459E-1	1.467037201E-2	-5.920459032E-1
7.524412154E0	-1.246536970E-1	-1.646795273E-1	-9.315286875E-1
7.532497500E0	-4.252433181E-1	-2.758140564E-1	-1.163205266E0
7.540505923E0	-6.950852275E-1	-3.191699982E-1	-1.283458710E0
7.548592770E0	-8.251460791E-1	-2.924051285E-1	-1.262312055E0
7.556422033E0	-8.471212387E-1	-3.050785065E-1	-1.125921845E0
7.564779577E0	-9.597793818E-1	-3.286209106E-1	-8.756284118E-1
7.572865923E0	-7.113659382E-1	-2.304019928E-1	-6.672487259E-1
7.580868308E0	-6.727138758E-1	-2.378673553E-1	-4.068183303E-1
7.588967808E0	-6.027775407E-1	-2.359485626E-1	-1.479326487E-1
7.596890225E0	-5.945459008E-1	-2.866086960E-1	9.667491913E-2
7.605140462E0	-5.196174383E-1	-4.496698380E-1	3.381277621E-1
7.613241269E0	-4.878081083E-1	-7.008705139E-1	5.671737790E-1
7.621243654E0	-4.359430075E-1	-8.796997070E-1	7.226648927E-1
7.629328615E0	-3.814254403E-1	-1.060674667E0	7.777957916E-1
7.637159725E0	-3.469423652E-1	-1.117059708E0	7.042126656E-1
7.645512000E0	-3.028429747E-1	-1.168607712E0	5.459975004E-1
7.653511071E0	-2.806552649E-1	-1.251193047E0	2.961782813E-1
7.661601192E0	-2.608425617E-1	-1.407866478E0	-1.698613167E-3
7.669657764E0	-2.548696995E-1	-1.681658745E0	-2.997610867E-1
7.677770654E0	-2.723626494E-1	-2.151633739E0	-6.084492803E-1
7.685886808E0	-4.223059416E-1	-2.614081383E0	-8.347760439E-1
7.693971846E0	-5.670248270E-1	-3.116613865E0	-9.082702994E-1
7.701962115E0	-6.908417344E-1	-3.603872299E0	-8.765823841E-1
7.710063423E0	-8.008677959E-1	-4.056239605E0	-8.858004212E-1
7.717990456E0	-9.806269407E-1	-4.477994919E0	-9.110755324E-1
7.726206263E0	-1.111905575E0	-4.873603344E0	-9.519180059E-1
7.734264110E0	-1.091281891E0	-5.156177521E0	-1.102960587E0
7.742338500E0	-1.120719075E0	-5.528641224E0	-1.137792706E0
7.750378071E0	-1.079975486E0	-5.875149727E0	-1.189698100E0
7.758525000E0	-9.948519468E-1	-6.360945702E0	-1.079919457E0
7.766624538E0	-9.432786107E-1	-6.636268616E0	-1.076272488E0
7.774709615E0	-9.086313844E-1	-6.959579468E0	-9.662761092E-1
7.782714884E0	-8.626154661E-1	-6.834853172E0	-1.011439800E0
7.790799538E0	-9.437032938E-1	-6.712665081E0	-7.241147757E-1
7.798835187E0	-1.234069586E0	-6.364544868E0	-4.360954762E-1
7.806910186E0	-1.664931774E0	-5.756877899E0	-9.191358089E-2
7.815064110E0	-2.124855518E0	-4.788352966E0	3.710427284E-1
7.823071038E0	-2.583281040E0	-3.566308975E0	1.682850838E0
7.839257845E0	-1.605771542E0	-2.738189697E-1	6.811991692E0
7.847344076E0	-4.094707966E-1	1.190998077E0	8.858345032E0
7.855444768E0	3.027787209E-1	2.075808525E0	8.954092026E0
7.871531461E0	1.257462502E-1	4.006543159E0	6.414814949E0
7.879631499E0	5.171918869E-1	5.572075844E0	4.481217384E0
7.887641071E0	1.053743839E0	7.801464081E0	2.278968573E0
7.895800340E0	1.300115824E0	1.112818432E1	2.635951042E-1
7.903789802E0	1.985946894E0	1.471649837E1	-1.722171068E0
7.911822456E0	3.201565027E0	1.747025871E1	-3.899006128E0
7.919908345E0	5.441212177E0	1.927526474E1	-5.082150459E0
7.928007460E0	7.865094185E0	2.140977097E1	-4.048609734E0
7.936092422E0	1.048702145E1	2.275141525E1	-1.902273655E0
7.944083076E0	1.294201851E1	2.226851654E1	3.798991442E-1
7.952181807E0	1.357794094E1	1.986302948E1	1.990485311E0
7.960188609E0	1.051507473E1	1.637667656E1	2.838403225E0
7.968222571E0	9.106954575E0	1.299593544E1	3.038652897E0
7.976446191E0	7.449038506E0	1.098869228E1	2.859087467E0
7.984446499E0	5.871627808E0	9.846017838E0	2.273862362E0
7.992496071E0	4.909654617E0	9.403614998E0	1.868049502E0
8.000630576E0	4.033199310E0	9.456627846E0	1.462594867E0
8.008730845E0	2.928055048E0	9.291135788E0	1.338370681E0
8.016815614E0	2.006659269E0	8.412413597E0	1.347019315E0
8.024819422E0	1.986594915E0	7.083060265E0	7.787938118E-1
8.032903575E0	1.949012399E0	6.040604591E0	-2.982604504E-2
8.040891994E0	1.414952397E0	4.561617851E0	-5.090013742E-1
8.049069186E0	5.400329828E-1	3.054491043E0	-4.611045122E-1
8.057054956E0	-4.095590115E-1	1.414360046E0	-3.411070704E-1
8.065173575E0	-1.090234756E0	-1.360454559E-1	-3.102349937E-1
8.073232917E0	-1.954965353E0	-1.612953186E0	-3.929588795E-1
8.081358921E0	-2.972988129E0	-2.901329994E0	-3.773379922E-1
8.089458152E0	-3.736093998E0	-4.124884129E0	-3.482061327E-1
8.097558037E0	-4.124822617E0	-5.434566021E0	-3.017617762E-1
8.105557652E0	-3.939706326E0	-6.499130249E0	2.793567777E-1
8.113641652E0	-3.720970631E0	-7.129437447E0	7.220274806E-1
8.121606840E0	-3.317274094E0	-7.578837395E0	7.609044909E-1
8.129730955E0	-3.087862730E0	-7.896691799E0	6.305915713E-1
8.137909998E0	-2.913389206E0	-7.874670506E0	2.257559896E-1
8.145888609E0	-2.797678232E0	-7.686785698E0	-2.037926912E-1
8.153974763E0	-2.646384478E0	-7.502785683E0	-5.759181380E-1
8.162085613E0	-2.483184576E0	-7.583700180E0	-8.617405891E-1
8.170199575E0	-2.266743183E0	-7.859781742E0	-9.788308740E-1
8.178285806E0	-2.056365252E0	-8.123197556E0	-1.021685600E0
8.186276421E0	-1.881317377E0	-8.373615265E0	-1.153490424E0
8.194377229E0	-1.623102188E0	-8.637380600E0	-1.215514541E0
8.202387725E0	-1.478697538E0	-8.832516670E0	-9.923458099E-1
8.210533802E0	-1.290763140E0	-8.858024597E0	-7.498989105E-1
8.218588455E0	-1.083750963E0	-9.015596390E0	-5.577586889E-1
8.226653305E0	-8.869196773E-1	-9.164296150E0	-5.019813776E-1
8.234740498E0	-6.999094486E-1	-9.268578529E0	-5.337252021E-1
8.242842998E0	-5.336480141E-1	-9.431832314E0	-5.701891184E-1
8.250946652E0	-2.850786448E-1	-9.642409325E0	-6.100424528E-1
8.259032190E0	1.836684346E-2	-9.883708954E0	-6.336064339E-1
8.267040305E0	3.391661942E-1	-1.012236977E1	-6.844986081E-1
8.275126382E0	6.376230717E-1	-1.035133934E1	-7.101079226E-1
8.283089763E0	8.313169479E-1	-1.052991104E1	-7.477169633E-1
8.291314921E0	8.482800722E-1	-1.054336834E1	-8.751514554E-1
8.299280109E0	7.339140177E-1	-1.045630169E1	-1.008319616E0
8.307402763E0	6.137664318E-1	-1.034780693E1	-1.152674198E0
8.315486378E0	6.114896536E-1	-1.029444408E1	-1.319530010E0
8.323591613E0	6.604521871E-1	-1.026738834E1	-1.512386680E0
8.331691497E0	6.704524755E-1	-1.020904350E1	-1.612529278E0
8.339793074E0	5.077344179E-1	-1.013615799E1	-1.516932249E0
8.347797959E0	4.614718258E-1	-1.013255119E1	-1.556007862E0
8.355884497E0	4.547837675E-1	-1.020567894E1	-1.617468834E0
8.363874571E0	4.363610744E-1	-1.024755573E1	-1.715846181E0
8.371968532E0	4.393506348E-1	-1.015804291E1	-1.539079905E0
8.380164074E0	4.345858991E-1	-1.016471004E1	-1.436187744E0
8.388144840E0	3.691802323E-1	-1.021535110E1	-1.463908076E0
8.396260571E0	3.296326399E-1	-1.029326820E1	-1.493456721E0
8.404350228E0	2.480596900E-1	-1.034607697E1	-1.525466919E0
8.412453766E0	1.339697838E-1	-1.044587612E1	-1.495595813E0
8.420540997E0	2.659603953E-2	-1.055914211E1	-1.662329435E0
8.428534920E0	-4.320406914E-2	-1.071162128E1	-1.839443803E0
8.436635882E0	-3.798428178E-2	-1.056754684E1	-1.718198419E0
8.444615186E0	-4.115297645E-2	-1.040396595E1	-1.779804230E0
8.452670148E0	-2.406456172E-1	-7.336425781E0	-1.922731638E0
8.460896571E0	-2.090487033E-1	-7.191036224E0	-1.001076698E0
8.468878763E0	2.958317697E-1	-6.672397137E0	-1.482295990E-1
8.476977724E0	8.350771666E-1	-5.255054951E0	1.982035518E0
8.485098151E0	1.667442441E0	-2.488330841E0	8.022754669E0
8.493203304E0	2.637617111E0	1.718392372E0	1.747131729E1
8.501292112E0	3.918467283E0	6.068545341E0	1.971932793E1
8.509299920E0	2.173981667E0	1.214380360E1	1.203195763E1
8.517388881E0	3.204695940E0	1.553257942E1	4.788405418E0
8.525354532E0	2.758978605E0	2.739875412E1	2.472428083E0
8.533550071E0	-1.849458933E0	3.884764099E1	-7.145898342E-1
8.541633763E0	-9.031972885E0	4.687406540E1	-5.488147259E0
8.549672535E0	-1.669440460E1	5.199135208E1	-7.384601116E0
8.557775458E0	-2.524167442E1	5.291416168E1	-5.318646431E0
8.565862035E0	-1.841320992E1	4.064189529E1	-1.659682989E0
8.573965035E0	-5.002417088E0	2.465561104E1	5.889548063E-1
8.582065381E0	-5.945744514E-1	1.406613922E1	1.798297167E-1
8.590067727E0	2.275079191E-1	7.002161980E0	-9.179216623E-1
8.598155612E0	1.023603082E-1	2.390007019E0	-1.574832797E0
8.606142532E0	-1.177566051E-1	-7.346534729E-1	-1.702473402E0
8.614272417E0	4.877924919E-2	-2.948059559E0	-1.423129439E0
8.622430112E0	3.547480702E-1	-4.521703720E0	-6.991251707E-1
8.646608650E0	1.963210583E0	-6.418070793E0	-4.471706748E-1
8.654723842E0	2.924567223E0	-6.498486519E0	-9.553753734E-1
8.662811535E0	3.810585976E0	-6.244193554E0	-1.330176473E0
8.670802996E0	4.491157055E0	-5.857576847E0	-1.731089592E0
8.678902842E0	4.489469051E0	-5.380582809E0	-1.995521307E0
8.686880570E0	3.541625023E0	-4.866793156E0	-2.188544273E0
8.694963763E0	2.146368980E0	-4.441267490E0	-1.950337648E0
8.703137147E0	1.010698557E0	-4.235280037E0	-1.176661968E0
8.711156532E0	3.882573247E-1	-4.247795105E0	-4.551281929E-1
8.719265381E0	1.289935112E-1	-4.359527111E0	8.478492498E-2
8.727368111E0	5.050539970E-3	-4.390936852E0	3.400064707E-1
8.735469842E0	-7.055091858E-2	-4.324856758E0	2.876377106E-1
8.743557534E0	-1.236327887E-1	-4.208549023E0	2.662061751E-1
8.751566034E0	-1.061567068E-1	-4.003375053E0	3.393468261E-1
8.767629340E0	-2.219080925E-3	-3.420781136E0	4.878628850E-1
8.775844688E0	5.446398258E-2	-3.184364319E0	4.931221306E-1
8.783853840E0	5.730688572E-2	-2.915747643E0	3.996422887E-1
8.791915919E0	-3.846037388E-2	-2.457151890E0	2.346244603E-1
8.800006763E0	-4.585254192E-2	-1.952638149E0	-5.743630230E-2
8.808107226E0	-2.773101330E-1	-1.450401306E0	-3.445860147E-1
8.816080724E0	-6.618775129E-1	-8.554821014E-1	-8.889154196E-1
8.824203147E0	-4.739629030E-1	-3.619823456E-1	-1.167862654E0
8.832224686E0	-7.441297770E-1	1.427068710E-1	-1.252396822E0
8.840281147E0	-1.008675575E0	4.193325043E-1	-1.290688038E0
8.848516188E0	-1.317595005E0	7.580413818E-1	-1.170494318E0
8.856604726E0	-1.756820440E0	1.043828011E0	-8.088688850E-1
8.864691495E0	-2.357408762E0	1.308444977E0	3.898541629E-2
8.872699572E0	-3.123307943E0	1.333670616E0	9.623300433E-1
8.880787803E0	-3.979571819E0	9.197368622E-1	1.784266949E0
8.888766186E0	-4.654863358E0	2.119169235E-1	2.666702747E0
8.896844724E0	-4.745927811E0	-6.632156372E-1	3.628777027E0
8.904839340E0	-4.932241440E0	-1.454331398E0	4.204178810E0
8.912883993E0	-4.804264069E0	-2.132863522E0	4.317262650E0
8.921147147E0	-4.126665115E0	-2.750936508E0	3.913874865E0
8.929248687E0	-3.540667057E0	-3.185396194E0	3.061240196E0
8.937337264E0	-3.001099825E0	-3.535869122E0	2.090443373E0
8.945441918E0	-2.512650728E0	-3.825785637E0	9.447996020E-1
8.953446226E0	-2.195565462E0	-3.999720573E0	1.633445919E-2
8.961534110E0	-1.888714194E0	-4.089154243E0	-1.150225878E0
8.969523724E0	-1.400603056E0	-4.173569679E0	-2.179580450E0
8.977645763E0	-7.875970602E-1	-4.224441528E0	-2.591569662E0
8.985604955E0	-9.797477722E-2	-4.078974724E0	-2.980644226E0
8.993681109E0	5.594927073E-1	-3.737303257E0	-3.117890835E0
9.001819455E0	1.169787049E0	-3.022788048E0	-2.967294216E0
9.010011264E0	1.836042523E0	-2.010497093E0	-2.583713770E0
9.018114418E0	2.233889103E0	-4.908962250E-1	-2.047930717E0
9.026204110E0	2.609775782E0	1.328794479E0	-7.281334996E-1
9.034207495E0	3.227180004E0	2.995768547E0	7.514356375E-1
9.042310264E0	4.353458881E0	3.943330765E0	1.913655043E0
9.050398302E0	5.610246181E0	4.159288406E0	2.198913336E0
9.058485878E0	6.511401176E0	3.990039825E0	1.663575053E0
9.066390147E0	7.096435070E0	3.932170868E0	8.590797186E-1
9.074391570E0	7.467811108E0	3.936396599E0	5.243641138E-1
9.082496647E0	7.987294197E0	3.512921333E0	8.119327426E-1
9.090783918E0	9.221094131E0	1.488076210E0	1.232304573E0
9.098872918E0	8.914410591E0	-6.553707123E-1	1.776166677E0
9.106962110E0	6.444628716E0	-1.929834366E0	2.253561020E0
9.114970956E0	3.792597532E0	-2.446586132E0	2.751068354E0
9.123060994E0	1.532859802E0	-2.536990166E0	2.990686417E0
9.131075993E0	4.675204754E-1	-2.635753155E0	3.088584661E0
9.139141493E0	3.876525760E-1	-2.782317638E0	3.164884329E0
9.147131070E0	6.524398327E-1	-2.859998226E0	2.966141224E0
9.153187378E0	7.604112625E-1	-2.898516655E0	2.818863869E0
9.155168570E0	7.987185121E-1	-2.910487652E0	2.806892872E0
9.163330262E0	7.483978271E-1	-2.835873604E0	2.735024452E0
9.179617186E0	3.164610267E-1	-2.066978931E0	1.727675796E0
9.187720148E0	1.596484184E-1	-1.720045567E0	9.835551977E-1
9.195723033E0	1.230810210E-1	-1.306943893E0	2.556604147E-1
9.203810533E0	1.329994798E-1	-8.272151947E-1	-5.318664312E-1
9.211832993E0	2.297910601E-1	-1.749944687E-1	-1.261260390E0
9.219872839E0	2.190285325E-1	5.639533997E-1	-1.543542027E0
9.227887839E0	4.066962898E-1	1.255853653E0	-1.242509842E0
9.235931032E0	4.571975470E-1	1.850290298E0	-7.135646343E-1
9.243984070E0	2.933654189E-1	2.337677956E0	-3.007115126E-1
9.252275148E0	4.717714190E-1	2.624267578E0	4.077661037E-2
9.260377686E0	9.422571659E-1	2.735215187E0	2.894845009E-1
9.268466532E0	1.818980932E0	2.785811424E0	2.218503952E-1
9.276469763E0	2.759844303E0	2.775312424E0	3.143955469E-1
9.284572225E0	3.163987875E0	2.959868431E0	7.268798351E-1
9.292558339E0	3.048721790E0	2.940424919E0	4.078513384E-1
9.300539724E0	2.643383980E0	2.804491043E0	2.635002136E-3
9.308652839E0	2.350856304E0	1.923599243E0	-8.531050682E-1
9.316741416E0	1.751166224E0	1.184280396E0	-6.574257612E-1
9.324892647E0	1.275315762E0	6.321620941E-1	-7.572507858E-2
9.333050109E0	8.505004048E-1	2.067966461E-1	2.266618013E-1
9.341139840E0	-7.999472320E-3	-2.910194397E-1	1.151068211E-1
9.349227609E0	-8.204121590E-1	-7.462272644E-1	-1.726841927E-2
9.357234417E0	-1.501631737E0	-1.128237724E0	-5.457842350E-2
9.365321993E0	-1.906688452E0	-1.329507828E0	-1.178967953E-1
9.373368070E0	-2.120349407E0	-1.319991112E0	-2.062273026E-2
9.381287608E0	-2.209112883E0	-1.312417030E0	-1.024150848E-2
9.389411493E0	-1.695881844E0	-1.310326576E0	3.274071217E-1
9.397508685E0	-1.120957494E0	-8.950510025E-1	1.113511801E0
9.405636185E0	-9.740587473E-1	-5.042762756E-1	5.015149117E-1
9.413787455E0	-1.064075708E0	2.392282486E-1	1.864618301E0
9.421877724E0	-8.828978539E-1	4.500541687E-1	-9.469127655E-2
9.429980685E0	-8.844360113E-1	6.873903275E-1	3.552365303E-2
9.437984878E0	-1.141830444E0	5.660200119E-1	-2.841236591E-1
9.446073878E0	-1.443915129E0	7.612380981E-1	3.741340637E-1
9.454153570E0	-1.847464561E0	7.711372375E-1	1.172952414E0
9.462057378E0	-1.472844005E0	-3.401317596E-1	-1.538590193E0
9.470149801E0	-7.955564857E-1	-8.938484192E-1	-5.045161247E-1
9.478169647E0	-5.460216999E-1	-1.418588638E0	1.205489635E-1
9.486332839E0	-7.687658072E-2	-1.749620914E0	3.188629150E-1
9.494536454E0	5.084650517E-1	-1.810029984E0	4.010965824E-1
9.502639954E0	9.733172059E-1	-1.489942074E0	5.958578587E-1
9.510730224E0	1.318132520E0	-1.038043022E0	9.519529343E-1
9.518737416E0	1.434298992E0	-7.745170593E-1	1.360421896E0
9.526839954E0	1.599104643E0	2.682971954E-2	1.487954855E0
9.534873416E0	1.505815268E0	5.749444962E-1	1.296509027E0
9.542813647E0	1.293824315E0	1.191231728E0	1.150801420E0
9.550900724E0	1.103150964E0	1.370716095E0	7.414312363E-1
9.558942493E0	6.635884047E-1	1.247958183E0	4.685556889E-1
9.567123531E0	3.757920265E-1	1.631942749E0	4.415860176E-1
9.575316493E0	3.250321448E-1	1.984016418E0	4.726221561E-1
9.583403993E0	1.257809401E-1	2.433696747E0	7.021172047E-1
9.591490146E0	7.669210434E-3	2.727688789E0	9.740221500E-1
9.599498223E0	-4.373620152E-1	3.220921516E0	1.063798904E0
9.607586800E0	-9.750728011E-1	3.699936867E0	1.157696962E0
9.615564878E0	-1.239865780E0	3.665099144E0	1.191279173E0
9.629701916E0	-1.116666794E0	3.777396202E0	7.982358932E-1
9.631652531E0	-1.080753803E0	3.770214081E0	7.096505165E-1
9.639692301E0	-7.494179010E-1	3.639715195E0	4.320211411E-1
9.647846685E0	-3.214639425E-1	3.430382729E0	2.744505405E-1
9.656045146E0	4.903787374E-2	3.080066681E0	2.456688881E-1
9.664130377E0	3.172837496E-1	2.684717178E0	4.640679359E-1
9.672230454E0	3.531453013E-1	2.089410782E0	4.986016750E-1
9.680233954E0	-1.315939426E-1	1.180587769E0	-9.656834602E-2
9.688321608E0	-1.049173236E0	2.553195953E-1	-9.483243227E-1
9.696423377E0	-1.695436478E0	-3.755636215E-1	-1.551030040E0
9.704438377E0	-1.737056255E0	-8.341703415E-1	-1.723143578E0
9.712390724E0	-1.557336569E0	-1.453128815E0	-1.897258162E0
9.720597493E0	-9.858046770E-1	-1.787566185E0	-2.048681498E0
9.728691454E0	-2.333979607E-1	-2.402415276E0	-2.221303940E0
9.736779223E0	6.809134483E-1	-3.285478592E0	-2.182624340E0
9.744581300E0	1.445895672E0	-4.352997303E0	-1.987233758E0
9.752769185E0	1.822652817E0	-5.498249054E0	-1.757113218E0
9.760718954E0	1.959849954E0	-6.485387802E0	-1.614136219E0
9.768907877E0	2.118351221E0	-7.296549797E0	-1.741389751E0
9.777166915E0	2.291079283E0	-7.935420990E0	-2.063920975E0
9.785252915E0	2.387015581E0	-8.366785049E0	-2.465930939E0
9.793354723E0	2.396319389E0	-8.661088943E0	-2.793654680E0
9.801356799E0	2.317667007E0	-8.789399147E0	-3.018089294E0
9.809442723E0	2.107785225E0	-8.741986275E0	-3.193993568E0
9.817420954E0	1.862818003E0	-8.459680557E0	-3.353168964E0
9.825390031E0	1.670702815E0	-8.037096977E0	-3.434445143E0
9.833539300E0	1.564520836E0	-7.571694851E0	-3.432515144E0
9.841466377E0	1.393275857E0	-7.129362583E0	-3.354579926E0
9.849683454E0	1.096884847E0	-6.781724453E0	-3.181419134E0
9.857901722E0	7.780530453E-1	-6.526818275E0	-3.207145929E0
9.866004607E0	2.611713409E-1	-6.346087933E0	-3.161023855E0
9.874093530E0	-3.973193169E-1	-6.045150757E0	-2.912349224E0
9.882087607E0	-1.254111767E0	-5.555673599E0	-2.012285709E0
9.890189799E0	-2.325885057E0	-4.649556637E0	-7.114446163E-1
9.898278184E0	-3.827034235E0	-2.942535400E0	1.672163010E0
9.906066377E0	-5.799775600E0	5.761947632E-1	6.211728096E0
9.914209800E0	-7.827472687E0	5.118943214E0	8.655590057E0
9.922315570E0	-8.153608322E0	7.979443550E0	6.239580154E0
9.930333723E0	-6.433961391E0	9.189740181E0	2.988771200E0
9.938661876E0	-4.421944618E0	8.908735275E0	9.982464314E-1
9.946749568E0	-1.877531290E0	7.229664803E0	-1.058580875E-1
9.954837260E0	1.069515824E0	6.868662834E0	-3.153443336E-1
9.960762108E0	2.396728516E0	7.423041344E0	-9.599801302E-1
9.962845107E0	2.734311104E0	7.614577293E0	-1.417272687E0
9.970933453E0	3.039245605E0	8.525451660E0	-2.675184727E0
9.978872877E0	2.384968042E0	9.986008644E0	-2.171605349E0
9.986811646E0	1.112784505E0	1.161781120E1	-1.271213770E0
9.994908762E0	6.103376150E-1	1.320165539E1	-8.755304813E-1
1.000302080E1	6.465586424E-1	1.479900360E1	6.530272961E-2
1.001112030E1	5.369856954E-1	1.678612518E1	-3.081950545E-1
1.001940730E1	3.821835220E-1	1.806540489E1	-2.125148296E0
1.002749622E1	4.485407472E-1	1.821099472E1	-4.186714649E0
1.003559834E1	9.031359851E-2	1.786494446E1	-2.903325796E0
1.004360134E1	-8.813856840E-1	1.625740051E1	-1.348103881E0
1.005168845E1	-1.759302974E0	1.400354767E1	-1.080864549E0
1.006757361E1	-2.401305199E0	1.099026489E1	5.908222198E-1
1.007567453E1	-2.736831665E0	9.809375763E0	1.423129201E0
1.008370688E1	-3.685291290E0	8.283603668E0	1.438416839E0
1.009188318E1	-4.891605854E0	6.555933952E0	1.142143488E0
1.010015061E1	-5.185299873E0	4.800239563E0	1.592660069E0
1.010825534E1	-4.829761505E0	2.821992874E0	2.125991821E0
1.011634288E1	-3.655399323E0	6.135559082E-1	2.127308369E0
1.012433595E1	-1.794768333E0	-1.362717628E0	1.714712620E0
1.013243872E1	8.650565147E-2	-3.162684917E0	9.255164862E-1
1.014041453E1	1.580974102E0	-4.960821152E0	-2.030566931E-1
1.014838603E1	2.676371336E0	-6.405116081E0	-1.003981829E0
1.015641542E1	3.651425362E0	-7.796499729E0	-1.516440153E0
1.016448799E1	4.513644695E0	-9.106100082E0	-1.740201831E0
1.017276845E1	5.263973713E0	-1.053369522E1	-1.559486866E0
1.018091422E1	6.184050083E0	-1.215386200E1	-1.116852522E0
1.018900172E1	7.658445358E0	-1.381251717E1	-8.354516029E-1
1.019708688E1	9.484357834E0	-1.513499355E1	-6.681249142E-1
1.020509453E1	1.113374710E1	-1.578088665E1	-7.341018915E-1
1.021318149E1	1.246270943E1	-1.563837147E1	-1.161730051E0
1.022116242E1	1.250999069E1	-1.440583515E1	-7.567608356E-1
1.022906638E1	1.213075447E1	-1.302565193E1	-3.047382236E-1
1.023718226E1	1.166702652E1	-1.137266254E1	-3.693474531E-1
1.024531338E1	1.091695786E1	-9.989385605E0	-6.424898505E-1
1.025338672E1	1.025359154E1	-8.777095795E0	-7.830514908E-1
1.026165541E1	9.216269493E0	-8.027618408E0	-5.011352301E-1
1.026974114E1	7.997920990E0	-7.590432167E0	-3.502874449E-2
1.027788888E1	7.035866737E0	-7.527544975E0	5.861248970E-1
1.028584991E1	6.337285042E0	-7.684813023E0	1.233570814E0
1.029393903E1	5.839022636E0	-7.974416256E0	1.877183437E0
1.030183707E1	5.649322987E0	-8.293472290E0	2.630940676E0
1.030984226E1	5.635155678E0	-8.546633720E0	3.629461765E0
1.031791126E1	5.416674614E0	-8.864708900E0	4.502685547E0
1.032610776E1	5.221818924E0	-9.256378174E0	5.034755707E0
1.033421695E1	5.106228352E0	-9.628293037E0	5.006394863E0
1.034239587E1	5.010059834E0	-1.005682087E1	4.503428936E0
1.035049953E1	4.879852772E0	-1.054718781E1	3.856601000E0
1.035858864E1	4.755317688E0	-1.078989601E1	3.407496452E0
1.036658441E1	4.943132401E0	-1.140278053E1	2.301824570E0
1.037473460E1	5.493729115E0	-1.191590309E1	5.812602043E-1
1.038264038E1	5.985373497E0	-1.195785999E1	-9.914126396E-1
1.039062415E1	6.250300884E0	-1.162164497E1	-1.879734993E0
1.039871699E1	6.653911591E0	-1.134817696E1	-2.136236191E0
1.040669299E1	6.839152336E0	-1.097892952E1	-2.320162773E0
1.041498315E1	6.820446968E0	-1.063001633E1	-2.940599918E0
1.042317045E1	6.476222038E0	-1.015691566E1	-3.568105221E0
1.043125799E1	5.422909737E0	-8.765685081E0	-6.922451019E0
1.043934780E1	3.108373165E0	-6.033865452E0	-1.138838768E1
1.044735745E1	-1.248416901E-1	-2.943586826E0	-1.365101814E1
1.045544780E1	-4.542732239E0	-5.585176945E-1	-1.399855518E1
1.046340745E1	-9.898046494E0	1.190210819E0	-1.290016365E1
1.047138803E1	-1.501538467E1	2.671101570E0	-1.168720818E1
1.047943222E1	-1.971072388E1	4.699527264E0	-1.080149651E1
1.048765968E1	-2.411071396E1	6.056635380E0	-9.311212540E0
1.050392257E1	-2.661515427E1	6.577615738E0	-2.071337223E0
1.051201076E1	-2.313350296E1	5.563091278E0	1.027534008E0
1.052011410E1	-1.866268158E1	4.637910366E0	3.184685707E0
1.053621364E1	-9.454461098E0	4.858458042E0	9.686178207E0
1.054423211E1	-6.286935329E0	5.100389957E0	1.259844017E1
1.055211295E1	-4.619751930E0	4.545662880E0	1.410011578E1
1.056021269E1	-3.744422913E0	3.436005592E0	1.498386574E1
1.056835853E1	-2.721133709E0	2.271289349E0	1.554155159E1
1.057642415E1	-3.218397141E0	1.407909393E0	1.289819813E1
1.058469018E1	-4.249485016E0	9.593229294E-1	1.038817978E1
1.059279426E1	-5.414051533E0	6.287722588E-1	7.513994217E0
1.060088226E1	-6.392109394E0	1.157752991E0	3.545282125E0
1.060888460E1	-6.390770912E0	2.403374672E0	-7.151002884E-1
1.061698695E1	-4.276097775E0	3.305938721E0	-7.491943836E0
1.062499453E1	-2.180343628E0	3.993805408E0	-1.366741657E1
1.063285999E1	-5.172424316E-1	4.927930832E0	-1.834636116E1
1.064093861E1	1.751852036E0	4.987640381E0	-2.038954735E1
1.064893372E1	3.670482159E0	4.231643677E0	-1.845541000E1
1.065704645E1	4.419494629E0	2.912075520E0	-1.379832649E1
1.066540103E1	3.592342615E0	1.786302567E0	-9.066543579E0
1.067348945E1	1.687021494E0	1.052057266E0	-4.835755348E0
1.068157826E1	2.786335945E-1	8.789453506E-1	-1.997753620E0
1.068757195E1	-3.685765266E-1	1.043838024E0	-4.094328880E-1
1.068958880E1	-4.930748940E-1	1.180307388E0	3.349447250E-2
1.069767937E1	-8.562011719E-1	1.859186172E0	1.502508163E0
1.070564072E1	-1.366935730E0	2.759216785E0	2.599960804E0
1.071363907E1	-2.140900135E0	3.827855110E0	3.556235313E0
1.072165203E1	-3.019256115E0	5.012512684E0	4.303656578E0
1.072970149E1	-3.721467495E0	6.079287052E0	4.924106598E0
1.073788295E1	-4.180997849E0	6.875961304E0	5.299569130E0
1.074615603E1	-4.088426590E0	7.226562977E0	5.105081558E0
1.075424691E1	-2.609398365E0	6.898336887E0	4.401248932E0
1.076235322E1	-9.150485992E-1	6.191981792E0	3.348274708E0
1.077035933E1	4.953842163E-1	5.304908276E0	2.185931921E0
1.077844764E1	1.569529057E0	4.055344105E0	8.950839043E-1
1.078640384E1	2.096162796E0	2.824932575E0	-7.055807114E-2
1.079434238E1	2.417505980E0	1.467448235E0	-6.277341843E-1
1.080241665E1	2.557320595E0	2.539834976E-1	-9.677042961E-1
1.081045522E1	2.572857380E0	-7.946925163E-1	-1.067448139E0
1.081863115E1	2.321021795E0	-1.545660019E0	-8.571186066E-1
1.082691833E1	1.879080057E0	-2.097837687E0	-6.185116768E-1
1.083502107E1	1.480329990E0	-2.464752913E0	-4.573326111E-1
1.084310807E1	1.166182995E0	-2.689630508E0	-3.125615120E-1
1.085110368E1	9.364018440E-1	-2.826103926E0	-2.169041634E-1
1.085920622E1	8.157844543E-1	-2.771215439E0	-4.228353500E-2
1.086717330E1	7.308254242E-1	-2.668971539E0	2.881193161E-1
1.087506511E1	5.570445061E-1	-2.588514328E0	6.878623962E-1
1.088316961E1	1.862821579E-1	-2.462479830E0	1.114177704E0
1.089118395E1	-1.760153770E-1	-2.373285055E0	1.488058567E0
1.089940107E1	-4.863514900E-1	-2.323134184E0	1.873825073E0
1.090767595E1	-8.145155907E-1	-2.267767668E0	2.103447914E0
1.091576222E1	-1.060721397E0	-2.189896345E0	2.154609680E0
1.092384783E1	-1.399455070E0	-2.069469929E0	2.138464451E0
1.093185468E1	-1.559524059E0	-1.875628948E0	1.847822666E0
1.093994168E1	-1.585399151E0	-1.599864721E0	1.394889355E0
1.094786134E1	-1.674540997E0	-1.314462185E0	9.369244576E-1
1.095586295E1	-1.507633686E0	-8.805360794E-1	4.327821732E-1
1.096392676E1	-1.328040600E0	-4.563088417E-1	-2.713680267E-2
1.097190642E1	-1.123451233E0	-7.159376144E-2	-3.614397049E-1
1.098018845E1	-9.682617188E-1	1.897096634E-1	-5.088582039E-1
1.098840964E1	-8.883652687E-1	3.955178261E-1	-3.588829041E-1
1.099649595E1	-7.080440521E-1	4.500970840E-1	-2.395782471E-1
1.100459680E1	-5.535211563E-1	5.102324486E-1	-1.447954178E-1
1.101259964E1	-5.632410049E-1	5.142731667E-1	1.224560738E-1
1.102068533E1	-6.236824989E-1	5.324530602E-1	5.364041328E-1
1.102864711E1	-6.326050758E-1	5.199608803E-1	6.746435165E-1
1.103657484E1	-5.843296051E-1	4.931483269E-1	6.340923309E-1
1.104463653E1	-4.006733894E-1	5.005230904E-1	5.236802101E-1
1.105267768E1	-1.503958702E-1	4.280309677E-1	3.913888931E-1
1.106083495E1	8.768844604E-2	3.779573441E-1	1.399111748E-1
1.106914237E1	2.661700249E-1	3.701934814E-1	-1.830248833E-1
1.107724422E1	3.599915504E-1	3.743414879E-1	-5.328044891E-1
1.108533118E1	2.898478508E-1	4.464917183E-1	-9.281072617E-1
1.109332480E1	2.275252342E-1	4.798402786E-1	-1.315745831E0
1.110142580E1	2.040758133E-1	4.713735580E-1	-1.743487835E0
1.110949230E1	2.879214287E-1	3.236041069E-1	-1.986742973E0
1.111729288E1	3.671464920E-1	1.760311127E-1	-2.179244995E0
1.112539030E1	4.061894417E-1	-3.121995926E-2	-2.230301380E0
1.113342457E1	3.526277542E-1	-2.097644806E-1	-2.276710987E0
1.114162611E1	1.695895195E-1	-2.646961212E-1	-2.323104858E0
1.114983549E1	-5.876445770E-2	-2.478194237E-1	-2.368515968E0
1.115763053E1	-2.647519112E-1	-1.789278984E-1	-2.379076004E0
1.116563126E1	-4.352297783E-1	-7.158422470E-2	-2.335560322E0
1.117363838E1	-5.481719971E-1	6.786775589E-2	-2.287550449E0
1.118174626E1	-5.976490974E-1	8.516359329E-2	-2.227753639E0
1.119017915E1	-7.017698288E-1	3.789377213E-2	-2.203886509E0
1.119829691E1	-8.055300713E-1	-9.412288666E-3	-2.257670403E0
1.120638364E1	-8.648614883E-1	-8.271551132E-2	-2.301887512E0
1.121437772E1	-8.560128212E-1	-7.787942886E-2	-2.534057140E0
1.123045380E1	-7.857408524E-1	2.083840370E-1	-2.664817333E0
1.123828365E1	-6.753249168E-1	4.080562592E-1	-2.352355957E0
1.124640818E1	-6.547374725E-1	5.793743134E-1	-1.919715405E0
1.125439899E1	-6.880235672E-1	7.013278008E-1	-1.380422592E0
1.126273084E1	-7.853188515E-1	8.017854691E-1	-8.976068497E-1
1.127096660E1	-9.438638687E-1	8.875379562E-1	-5.394849777E-1
1.127905614E1	-1.100128174E0	9.268827438E-1	-2.511196136E-1
1.128714706E1	-1.272371769E0	9.582839012E-1	-8.385133743E-2
1.129515845E1	-1.412895203E0	8.911466599E-1	3.891944885E-2
1.130324741E1	-1.498860359E0	7.301211357E-1	1.247844696E-1
1.131117265E1	-1.554944515E0	4.922080040E-1	1.454429626E-1
1.131905372E1	-1.548213005E0	2.032647133E-1	4.644393921E-4
1.132713042E1	-1.371547699E0	-1.773405075E-2	-2.643074989E-1
1.133513811E1	-1.148054600E0	-1.714854240E-1	-6.262249947E-1
1.134336799E1	-1.027802944E0	-2.421092987E-1	-1.076606274E0
1.135168742E1	-9.805512428E-1	-2.616324425E-1	-1.490478039E0
1.135978683E1	-9.488663673E-1	-2.808108330E-1	-1.774826050E0
1.136789145E1	-9.625616074E-1	-2.518310547E-1	-1.955164909E0
1.137589429E1	-1.047345638E0	-2.482485771E-1	-2.041499615E0
1.138398095E1	-1.102614403E0	-2.508397102E-1	-2.038630962E0
1.139194322E1	-1.191497326E0	-1.942052841E-1	-2.002293110E0
1.139982957E1	-1.283307552E0	-8.977699280E-2	-2.012717247E0
1.140787126E1	-1.351161480E0	7.763004303E-2	-2.119181633E0
1.141590480E1	-1.325645924E0	2.960247993E-1	-2.228458881E0
1.142410822E1	-1.250096321E0	4.928259850E-1	-2.319650173E0
1.143241780E1	-1.162595749E0	6.906890869E-1	-2.352226257E0
1.144054341E1	-1.071410179E0	8.299837112E-1	-2.284759521E0
1.144863133E1	-9.595298767E-1	8.700537682E-1	-2.110512733E0
1.145663576E1	-7.485294342E-1	8.621635437E-1	-1.852230072E0
1.146473668E1	-4.857063293E-1	7.872509956E-1	-1.560466766E0
1.147266638E1	-2.451176643E-1	6.612319946E-1	-1.272210598E0
1.148053738E1	-5.409955978E-2	5.039243698E-1	-1.043102264E0
1.148862726E1	5.322837830E-2	3.463854790E-1	-8.316659927E-1
1.149664022E1	1.477155685E-1	1.939091682E-1	-6.626458168E-1
1.150486245E1	2.020153999E-1	6.083011627E-2	-5.421180725E-1
1.151319995E1	2.457447052E-1	-6.214523315E-2	-4.730272293E-1
1.152128445E1	2.936415672E-1	-1.486530304E-1	-4.700536728E-1
1.152937145E1	3.507552147E-1	-1.868133545E-1	-5.051903725E-1
1.153738029E1	4.086465836E-1	-1.940369606E-1	-5.634660721E-1
1.154546852E1	4.675855637E-1	-1.927638054E-1	-5.956411362E-1
1.155346095E1	5.280632973E-1	-2.030858994E-1	-6.006541252E-1
1.156135030E1	5.177545547E-1	-1.943306923E-1	-5.880241394E-1
1.156938838E1	5.486750603E-1	-2.019171715E-1	-5.856137276E-1
1.157753349E1	5.282626152E-1	-1.972846985E-1	-5.728263855E-1
1.158557153E1	5.272703171E-1	-1.762876511E-1	-5.371413231E-1
1.159390376E1	5.557460785E-1	-2.128582001E-1	-4.885334969E-1
1.160202829E1	5.603942871E-1	-2.220416069E-1	-4.201769829E-1
1.161013156E1	5.832424164E-1	-3.016810417E-1	-2.853455544E-1
1.161813564E1	6.395998001E-1	-4.025282860E-1	-7.403707504E-2
1.162622310E1	7.287678719E-1	-5.547809601E-1	1.532912254E-1
1.163423961E1	8.071608543E-1	-7.389664650E-1	3.522543907E-1
1.164232515E1	9.268212318E-1	-8.714976311E-1	5.448274612E-1
1.165013157E1	1.029991627E0	-1.003242016E0	6.852993965E-1
1.165814138E1	1.185286045E0	-1.136023521E0	8.323206902E-1
1.166635618E1	1.335050106E0	-1.270336390E0	9.688591957E-1
1.167465022E1	1.450477600E0	-1.364939213E0	1.095366955E0
1.168278702E1	1.497026443E0	-1.398271561E0	1.169456482E0
1.169087448E1	1.579878807E0	-1.388234615E0	1.180778980E0
1.169887933E1	1.530997753E0	-1.405315876E0	1.184006691E0
1.170698172E1	1.616208076E0	-1.353807449E0	1.229330540E0
1.171494103E1	1.566942215E0	-1.442443609E0	1.364704132E0
1.172276049E1	1.580646515E0	-1.401518106E0	1.459065437E0
1.173085695E1	1.619856834E0	-1.340191126E0	1.428575993E0
1.173889188E1	1.370770454E0	-1.311707735E0	1.399902344E0
1.174705049E1	1.185690403E0	-1.172584057E0	1.250511169E0
1.175544899E1	1.104284763E0	-1.029884815E0	1.143085003E0
1.176354295E1	9.215693474E-1	-9.839920998E-1	1.096045494E0
1.177163348E1	8.882250786E-1	-8.355629444E-1	1.048288822E0
1.177964756E1	8.591594696E-1	-7.972452641E-1	1.066165447E0
1.178773787E1	8.208880424E-1	-7.464439869E-1	1.118063927E0
1.179577257E1	8.348112106E-1	-7.331349850E-1	1.154750824E0
1.180352334E1	7.514576912E-1	-7.405202389E-1	1.210809708E0
1.181162545E1	6.935176849E-1	-7.177836895E-1	1.250150681E0
1.181962141E1	6.103610992E-1	-7.366588116E-1	1.294772148E0
1.182780711E1	6.268358231E-1	-7.367494106E-1	1.356685162E0
1.183618753E1	5.850095749E-1	-8.082554340E-1	1.477092266E0
1.184430033E1	6.045732498E-1	-8.143956661E-1	1.579630375E0
1.185240422E1	5.264945030E-1	-8.406620026E-1	1.687333584E0
1.186040960E1	4.974708557E-1	-8.225827217E-1	1.777844429E0
1.186849968E1	4.365186691E-1	-8.079962730E-1	1.822014809E0
1.187648676E1	3.869805336E-1	-7.702939510E-1	1.836495876E0
1.188437430E1	3.405976295E-1	-6.836545467E-1	1.841166496E0
1.189240361E1	2.976813316E-1	-6.237590313E-1	1.900985241E0
1.190060641E1	3.116278648E-1	-4.906260967E-1	1.916754246E0
1.190863338E1	3.581209183E-1	-3.194017410E-1	1.908556938E0
1.191696007E1	4.195547104E-1	-1.076760292E-1	1.867758751E0
1.192508475E1	4.753198624E-1	1.245884895E-1	1.814508915E0
1.193317364E1	4.872646332E-1	3.819131851E-1	1.736523628E0
1.194117852E1	4.873347282E-1	5.949702263E-1	1.685649872E0
1.194928033E1	4.645285606E-1	8.131446838E-1	1.621908188E0
1.195732776E1	4.175243378E-1	1.000254631E0	1.546343327E0
1.196525572E1	3.803510666E-1	1.143649101E0	1.505825996E0
1.197340576E1	3.485221863E-1	1.262558937E0	1.447409630E0
1.198125445E1	3.598642349E-1	1.320708752E0	1.426454544E0
1.198936911E1	3.643784523E-1	1.283116817E0	1.426566124E0
1.199776641E1	4.155240059E-1	1.190962315E0	1.433134079E0
1.200585868E1	4.825987816E-1	1.101447821E0	1.416271210E0
1.201394998E1	5.151844025E-1	1.027447939E0	1.350414753E0
1.202196252E1	5.922312737E-1	9.646935463E-1	1.250368118E0
1.203005271E1	6.473751068E-1	9.521455765E-1	1.139774323E0
1.203803376E1	6.763052940E-1	9.621016979E-1	9.549407959E-1
1.204585780E1	7.200636864E-1	9.936745167E-1	7.308206558E-1
1.205406468E1	6.768565178E-1	1.106395960E0	4.342274666E-1
1.206203264E1	5.916285515E-1	1.180175781E0	1.922893524E-1
1.207012934E1	5.191164017E-1	1.309755802E0	-7.827949524E-2
1.207849980E1	4.307241440E-1	1.393345833E0	-3.227825165E-1
1.208661991E1	3.544964790E-1	1.472431183E0	-5.826921463E-1
1.209472548E1	2.077841759E-1	1.553559780E0	-8.032970428E-1
1.210273225E1	6.641340256E-2	1.602992058E0	-1.002836704E0
1.211082256E1	-6.698894501E-2	1.556236267E0	-1.122151852E0
1.211882053E1	-2.440152168E-1	1.539200306E0	-1.277723312E0
1.212663038E1	-4.417695999E-1	1.430036068E0	-1.398122311E0
1.213471195E1	-5.774192810E-1	1.203353882E0	-1.458693981E0
1.214282357E1	-6.218724251E-1	9.189162254E-1	-1.447205544E0
1.215095215E1	-5.793414116E-1	5.295457840E-1	-1.446185112E0
1.215924034E1	-5.412898064E-1	1.180210114E-1	-1.482151031E0
1.216739625E1	-4.995980263E-1	-4.083147049E-1	-1.440523148E0
1.217548506E1	-4.550309181E-1	-8.171088696E-1	-1.509521008E0
1.218349033E1	-4.124345779E-1	-1.177702427E0	-1.490250111E0
1.219159444E1	-3.985443115E-1	-1.552721024E0	-1.457388878E0
1.219951753E1	-3.475933075E-1	-1.862480879E0	-1.397769451E0
1.220734607E1	-3.434252739E-1	-2.160747528E0	-1.344448566E0
1.221544876E1	-3.791804314E-1	-2.397808313E0	-1.289188862E0
1.222349803E1	-5.105018616E-1	-2.532488346E0	-1.286212444E0
1.223165307E1	-7.120857239E-1	-2.575239182E0	-1.297040939E0
1.224003418E1	-9.101023674E-1	-2.519590855E0	-1.280784130E0
1.224815441E1	-9.608116150E-1	-2.326447964E0	-1.204102993E0
1.225624391E1	-1.140725613E0	-2.133556128E0	-1.028665543E0
1.226425756E1	-1.167018890E0	-1.876661301E0	-8.765683174E-1
1.228036884E1	-1.185921192E0	-1.240950108E0	-3.958745003E-1
1.228817030E1	-1.224833488E0	-8.912432194E-1	-2.171874046E-1
1.229623741E1	-1.126449108E0	-5.589222908E-1	1.181983948E-2
1.230421514E1	-8.428611755E-1	-3.278129101E-1	2.889404297E-1
1.231245918E1	-5.562834740E-1	-1.378827095E-1	4.844760895E-1
1.232077268E1	-3.744521141E-1	2.989244461E-2	6.376070976E-1
1.232891367E1	-2.486805916E-1	1.227669716E-1	8.035073280E-1
1.233701560E1	-1.770339012E-1	1.545124054E-1	9.654941559E-1
1.234501887E1	-1.753001213E-1	1.034746170E-1	1.096189499E0
1.235310637E1	-2.385845184E-1	5.990409851E-2	1.239439964E0
1.236109888E1	-3.310976028E-1	-5.319356918E-3	1.379568577E0
1.236891203E1	-4.550056458E-1	-5.329084396E-2	1.408054352E0
1.237710280E1	-4.671378136E-1	-1.317226887E-1	1.355538845E0
1.238504522E1	-3.322629929E-1	-2.238159180E-1	1.270020962E0
1.239327814E1	-7.589435577E-2	-3.228247166E-1	1.108815670E0
1.240156514E1	4.668235779E-2	-3.264324665E-1	8.338351250E-1
1.240966671E1	1.874160767E-2	-2.703168392E-1	4.856972694E-1
1.241775367E1	1.247978210E-2	-1.964268684E-1	1.664910316E-1
1.242575806E1	3.334426880E-2	-8.395242691E-2	-1.226487160E-1
1.243386117E1	1.543970108E-1	2.884960175E-2	-3.445034027E-1
1.244180503E1	3.465847969E-1	9.567785263E-2	-5.575356483E-1
1.244788753E1	4.609308243E-1	1.130375862E-1	-7.000708580E-1
1.244970368E1	4.681134224E-1	1.297969818E-1	-7.575316429E-1
1.245781838E1	5.474538803E-1	1.495499611E-1	-1.008479118E0
1.246574476E1	5.259914398E-1	1.993694305E-1	-1.260516167E0
1.247392222E1	4.360184669E-1	2.548408508E-1	-1.531450748E0
1.248232561E1	2.084259987E-1	3.455829620E-1	-1.842190266E0
1.249042433E1	5.029106140E-2	4.563050270E-1	-2.011211395E0
1.249851241E1	-1.187210083E-1	6.120905876E-1	-2.098124027E0
1.250652210E1	-2.355322838E-1	7.813448906E-1	-2.048974991E0
1.251460867E1	-3.202810287E-1	9.383339882E-1	-1.876530647E0
1.252258007E1	-3.710250854E-1	1.061478615E0	-1.568908691E0
1.253046349E1	-4.572839737E-1	1.131739140E0	-1.184019089E0
1.253849664E1	-5.874204636E-1	1.170156479E0	-8.318071365E-1
1.254649595E1	-7.416005135E-1	1.225262165E0	-5.961942673E-1
1.255472095E1	-7.825579643E-1	1.242427826E0	-4.870376587E-1
1.256307060E1	-8.031620979E-1	1.210931778E0	-5.125641823E-1
1.257115767E1	-8.354902267E-1	1.133860588E0	-5.411281586E-1
1.257926025E1	-9.012479782E-1	1.023212910E0	-5.263957977E-1
1.258726652E1	-8.849506378E-1	8.510828018E-1	-4.510359764E-1
1.259535444E1	-8.812918663E-1	6.484532356E-1	-3.187932968E-1
1.260331730E1	-8.856568336E-1	4.560966492E-1	-1.486854553E-1
1.261117834E1	-9.360237122E-1	2.554206848E-1	2.820777893E-2
1.261924753E1	-1.039996147E0	6.132555008E-2	2.126889229E-1
1.262729049E1	-1.222891808E0	-9.201526642E-2	3.898744583E-1
1.263545784E1	-1.359345913E0	-2.617793083E-1	5.279984474E-1
1.264381914E1	-1.446350098E0	-4.441928864E-1	6.130156517E-1
1.265192244E1	-1.422209263E0	-6.471536160E-1	6.729254723E-1
1.266001079E1	-1.359826088E0	-7.951269150E-1	6.545414925E-1
1.266801864E1	-1.236025333E0	-8.852400780E-1	5.732049942E-1
1.267612317E1	-1.044458389E0	-9.125905037E-1	4.847464561E-1
1.268413284E1	-8.440127373E-1	-8.622889519E-1	3.342523575E-1
1.269192091E1	-6.500811577E-1	-7.229986191E-1	1.925959587E-1
1.270003153E1	-5.091218948E-1	-5.976917744E-1	1.420717239E-1
1.270811099E1	-3.936772346E-1	-4.838974476E-1	1.178197861E-1
1.271621438E1	-3.294138908E-1	-3.654656410E-1	1.498394012E-1
1.272460921E1	-3.054552078E-1	-3.085937500E-1	1.702642441E-1
1.273269790E1	-3.317627907E-1	-2.546482086E-1	1.837129593E-1
1.274078556E1	-3.410186768E-1	-2.333488464E-1	1.645817757E-1
1.274879579E1	-3.324804306E-1	-1.984953880E-1	6.502723694E-2
1.275688294E1	-2.828826904E-1	-1.405053139E-1	-9.971237183E-2
1.276484172E1	-2.367343903E-1	-9.048986435E-2	-3.015561104E-1
1.277269749E1	-1.564798355E-1	-4.484367371E-2	-5.020661354E-1
1.278085461E1	-4.658699036E-2	-1.600742340E-3	-6.539540291E-1
1.278879795E1	7.949161530E-2	2.792167664E-2	-7.194886208E-1
1.279710261E1	2.773938179E-1	2.848958969E-2	-7.293801308E-1
1.280535971E1	4.777688980E-1	1.947116852E-2	-6.524724960E-1
1.281345006E1	6.878128052E-1	-6.234169006E-3	-5.606102943E-1
1.282155410E1	9.070844650E-1	-2.822351456E-2	-4.613647461E-1
1.283764956E1	1.253688812E0	-1.188039780E-2	-3.880748749E-1
1.284575121E1	1.398715019E0	1.309347153E-2	-3.902196884E-1
1.285348134E1	1.522350788E0	3.639125824E-2	-3.916335106E-1
1.286156611E1	1.612654209E0	1.196422577E-1	-3.805980682E-1
1.286964838E1	1.683898926E0	1.697006226E-1	-3.259539604E-1
1.287773780E1	1.715459824E0	2.368373871E-1	-2.454252243E-1
1.288609091E1	1.714330673E0	2.871522903E-1	-1.605868340E-1
1.289420402E1	1.658923149E0	3.713736534E-1	-1.142730713E-1
1.290229186E1	1.534228325E0	4.718809128E-1	-3.928470612E-2
1.291030006E1	1.342867374E0	5.693798065E-1	1.379585266E-2
1.291840425E1	1.166009903E0	6.675920486E-1	8.278036118E-2
1.292649279E1	9.990015030E-1	7.243700027E-1	1.418461800E-1
1.293423103E1	8.836417198E-1	7.225413322E-1	1.888356209E-1
1.294231084E1	7.994575500E-1	6.684036255E-1	2.029695511E-1
1.295028357E1	7.159271240E-1	5.955061913E-1	1.949253082E-1
1.295850026E1	6.000003815E-1	5.196332932E-1	1.420121193E-1
1.296687195E1	4.581518173E-1	4.393668175E-1	5.046796799E-2
1.297496140E1	2.521524429E-1	3.517427444E-1	-6.414842606E-2
1.298305071E1	3.043413162E-2	2.801423073E-1	-2.290735245E-1
1.299105944E1	-1.848435402E-1	2.120957375E-1	-3.956074715E-1
1.299914779E1	-3.730750084E-1	1.319975853E-1	-5.379447937E-1
1.300713811E1	-5.212936401E-1	5.829191208E-2	-6.922588348E-1
1.301493057E1	-6.589837074E-1	3.797817230E-2	-8.368458748E-1
1.302303703E1	-7.691488266E-1	4.910135269E-2	-9.644427299E-1
1.303103711E1	-8.714756966E-1	1.056342125E-1	-1.035875320E0
1.303921149E1	-1.010116100E0	1.769771576E-1	-1.104181290E0
1.304758249E1	-1.144600868E0	2.926139832E-1	-1.136838913E0
1.305569129E1	-1.258308411E0	3.698630333E-1	-1.096397877E0
1.306379190E1	-1.377398014E0	4.943642616E-1	-9.882283211E-1
1.307179683E1	-1.415771961E0	5.932731628E-1	-7.944483757E-1
1.307988379E1	-1.457345486E0	6.336698532E-1	-6.533355713E-1
1.308789041E1	-1.435678959E0	6.465945244E-1	-5.092787743E-1
1.309578534E1	-1.409179688E0	6.656527519E-1	-4.905328751E-1
1.310377864E1	-1.396271229E0	6.994972229E-1	-6.631245613E-1
1.311179164E1	-1.260194778E0	6.066255569E-1	-4.362068176E-1
1.311999607E1	-1.033530712E0	5.199999809E-1	-5.883502960E-2
1.312834559E1	-8.517265320E-1	3.911886215E-1	1.101880074E-1
1.313644806E1	-7.776765823E-1	2.353081703E-1	2.013626099E-1
1.314453513E1	-6.934585571E-1	8.083915710E-2	2.665328979E-1
1.315252040E1	-5.367231369E-1	-8.290719986E-2	2.921481133E-1
1.316062209E1	-4.650177956E-1	-2.844548225E-1	3.831357956E-1
1.316858807E1	-2.482976913E-1	-4.127216339E-1	5.470886230E-1
1.317640634E1	-1.156244278E-1	-6.239590645E-1	7.484693527E-1
1.318452441E1	7.745122910E-2	-7.349114418E-1	8.531002998E-1
1.319250518E1	2.583870888E-1	-8.604354858E-1	8.975672722E-1
1.320070111E1	3.350410461E-1	-9.122402668E-1	8.809161186E-1
1.320907964E1	3.827590942E-1	-9.465234280E-1	8.213315010E-1
1.321717829E1	3.718519211E-1	-9.028971195E-1	7.376480103E-1
1.322526448E1	2.379055023E-1	-8.143529892E-1	6.441626549E-1
1.323327132E1	9.192752838E-2	-7.054715157E-1	5.900697708E-1
1.324135890E1	-4.746866226E-2	-5.235466957E-1	5.397281647E-1
1.324938588E1	-1.878757477E-1	-3.480086327E-1	5.124664307E-1
1.325712580E1	-3.143935204E-1	-1.105046272E-1	4.809546471E-1
1.326521522E1	-4.534249306E-1	1.320877075E-1	4.524602890E-1
1.327329738E1	-5.940980911E-1	4.052567482E-1	4.468030930E-1
1.328146326E1	-7.232065201E-1	6.723656654E-1	4.665822983E-1
1.328982652E1	-8.398633003E-1	9.065780640E-1	5.176606178E-1
1.329791183E1	-9.372525215E-1	1.142619133E0	5.952720642E-1
1.330601021E1	-1.013576984E0	1.316784382E0	7.030434608E-1
1.331401156E1	-1.078525066E0	1.450189590E0	8.596391678E-1
1.332210009E1	-1.115743637E0	1.524794102E0	1.017860889E0
1.333011080E1	-1.089465618E0	1.567855835E0	1.209864378E0
1.333795457E1	-9.298872948E-1	1.509194374E0	1.464255810E0
1.334601630E1	-7.220225334E-1	1.440044880E0	1.684016943E0
1.335402988E1	-4.783120155E-1	1.311427593E0	1.873516560E0
1.336215741E1	-1.910738945E-1	1.158633709E0	2.016936541E0
1.337054921E1	1.092782021E-1	9.570760727E-1	2.054678679E0
1.337864836E1	3.455147743E-1	7.696228027E-1	2.037976742E0
1.338673259E1	4.727406502E-1	5.911130905E-1	1.919397831E0
1.339473559E1	5.022850037E-1	4.407119751E-1	1.745800734E0
1.340283686E1	5.703973770E-1	3.034615517E-1	1.568469286E0
1.341079957E1	6.209630966E-1	1.843056679E-1	1.419676304E0
1.341860949E1	6.795725822E-1	1.804924011E-2	1.267868519E0
1.342669645E1	7.621722221E-1	-1.251454353E-1	1.151771545E0
1.343473068E1	8.446230888E-1	-3.040566444E-1	1.044545174E0
1.344292684E1	9.577665329E-1	-4.857468605E-1	9.653525352E-1
1.345126445E1	1.067022324E0	-7.081465721E-1	9.479591846E-1
1.345939529E1	1.220570564E0	-8.974947929E-1	9.576342106E-1
1.346748259E1	1.415498734E0	-1.087677479E0	9.489433765E-1
1.347548952E1	1.608870029E0	-1.249927044E0	7.939584255E-1
1.348357475E1	1.895531654E0	-1.469782114E0	9.599106312E-1
1.349153703E1	2.136751652E0	-1.674423218E0	1.086343288E0
1.349935164E1	2.282316208E0	-1.871336222E0	1.203774691E0
1.350742414E1	2.481791019E0	-1.912953138E0	1.011571169E0
1.351541757E1	2.658793449E0	-2.127651691E0	1.183569431E0
1.352362414E1	2.889941216E0	-2.197525740E0	1.237426281E0
1.353198526E1	2.991184235E0	-2.300855875E0	1.295173168E0
1.354011809E1	3.081346035E0	-2.356992483E0	1.314107418E0
1.354821844E1	3.266102314E0	-2.439800739E0	1.437239647E0
1.355621994E1	3.324019909E0	-2.305695295E0	1.276049376E0
1.356430559E1	3.545829058E0	-2.350246429E0	1.289455652E0
1.357227888E1	3.762798786E0	-2.316368818E0	1.378127098E0
1.358009588E1	3.967834234E0	-2.220934629E0	1.399188280E0
1.358822207E1	4.007615089E0	-2.053405762E0	1.324855566E0
1.359618180E1	3.977567434E0	-1.919285059E0	1.369596720E0
1.360442464E1	3.782090425E0	-1.710396290E0	1.336851358E0
1.361275859E1	3.386917353E0	-1.524122000E0	1.283037901E0
1.362086036E1	2.847664833E0	-1.325675488E0	1.153802156E0
1.362894479E1	2.196877003E0	-1.073550224E0	9.705533981E-1
1.363694521E1	1.486790657E0	-7.548632622E-1	7.539668083E-1
1.364504767E1	7.870292664E-1	-4.220557213E-1	5.415236950E-1
1.365301503E1	1.099891663E-1	-7.457256317E-2	3.676860332E-1
1.366082895E1	-5.850806236E-1	3.586750031E-1	2.326965332E-1
1.366895072E1	-1.174548626E0	7.929892540E-1	1.012151241E-1
1.367695695E1	-1.796452999E0	1.307772636E0	-6.750893593E-2
1.368510641E1	-2.464860916E0	1.985755920E0	-3.288111687E-1
1.369346576E1	-3.193896294E0	2.791435719E0	-6.102297306E-1
1.370159728E1	-4.005073071E0	3.712177277E0	-9.378736019E-1
1.370968548E1	-4.634165764E0	4.716467381E0	-1.112076044E0
1.371769248E1	-5.729265690E0	6.068035126E0	-1.439079285E0
1.372577759E1	-6.565114975E0	7.750462532E0	-1.442380667E0
1.373372084E1	-6.218804359E0	9.028162003E0	-8.814692497E-1
1.374156680E1	-4.434237003E0	9.412124634E0	2.918591499E-1
1.374966507E1	-2.831000805E0	9.735797882E0	1.102396846E0
1.375766061E1	-2.100547314E0	1.028085041E1	1.294442177E0
1.376582734E1	-2.477043152E0	1.071330357E1	1.142352819E0
1.377418603E1	-3.897815704E0	1.064336205E1	8.626844883E-1
1.378230694E1	-5.120701790E0	1.064945316E1	2.724597454E-1
1.379040575E1	-5.560539722E0	1.065139961E1	-4.605655670E-1
1.379840605E1	-5.433661938E0	1.092501450E1	-1.307215214E0
1.380649167E1	-5.136031628E0	1.138037968E1	-2.232597351E0
1.381445345E1	-4.346482277E0	1.166287994E1	-2.913350821E0
1.382231441E1	-4.464999199E0	1.219445801E1	-4.159092903E0
1.383040714E1	-4.007447720E0	1.229843140E1	-4.572583199E0
1.383838453E1	-3.598668098E0	1.204951668E1	-4.642986298E0
1.384655934E1	-3.097531319E0	1.120462608E1	-4.368021965E0
1.385494322E1	-2.544422150E0	9.823560715E0	-3.611279964E0
1.386304705E1	-1.715486050E0	8.275003433E0	-2.566549301E0
1.387113198E1	-9.736747742E-1	6.849798679E0	-1.524482727E0
1.387913302E1	-4.408736229E-1	5.553398609E0	-6.009526253E-1
1.388723559E1	6.627559662E-2	4.151593208E0	3.771300316E-1
1.389519464E1	5.750646591E-1	3.047508240E0	1.118433475E0
1.390303772E1	1.053217888E0	2.055238724E0	1.722558498E0
1.391118026E1	1.620746136E0	1.181959629E0	2.223375320E0
1.391916564E1	2.239839554E0	3.756213188E-1	2.768559456E0
1.392730314E1	2.847815037E0	-2.752957344E-1	3.222873211E0
1.393565961E1	2.554939747E0	5.332350731E-1	9.601650238E-1
1.394378182E1	1.794954777E0	2.561758041E0	-4.483765602E0
1.395186863E1	2.490008354E0	1.800549984E0	-2.353544712E0
1.395987659E1	3.274646759E0	6.390476227E-2	-9.800052643E-2
1.396796425E1	4.793527126E0	-1.358339310E0	1.457889795E0
1.397599649E1	5.786358833E0	-2.314824343E0	2.199575424E0
1.398383291E1	6.440344334E0	-3.262145042E0	2.675810814E0
1.399190272E1	6.436150074E0	-4.050481796E0	2.671398878E0
1.399988191E1	5.709752083E0	-4.592877388E0	2.301908970E0
1.400800660E1	4.609899044E0	-4.854541302E0	1.918497443E0
1.401636303E1	3.726675510E0	-5.068018913E0	1.491997600E0
1.402450695E1	3.044042110E0	-5.483495712E0	8.330104351E-1
1.403260222E1	2.425117493E0	-5.744596958E0	5.615472794E-3
1.404069899E1	1.651387215E0	-5.814986706E0	-9.878120422E-1
1.404878951E1	1.116413116E0	-5.978884220E0	-1.791515589E0
1.405663334E1	1.253852844E0	-6.619763374E0	-2.764026642E0
1.406453630E1	1.738917828E0	-1.355017853E1	-8.889738083E0
1.407260757E1	2.929430008E-1	-2.226093674E1	-2.341778564E1
1.408070945E1	-4.860073566E0	-4.744834900E1	-3.217034912E1
1.408888768E1	-9.892410278E0	-3.843534470E1	-9.539639473E0
1.409727118E1	-3.641755581E0	-1.212819767E1	6.961309433E0
1.410544244E1	1.629993916E0	-4.577898979E0	9.734061241E0
1.411352844E1	6.457726002E0	-2.429370403E0	7.603597164E0
1.412161571E1	9.925448418E0	-2.313428402E0	4.112366676E0
1.412970926E1	1.306473923E1	-4.063743114E0	-1.849009752E0
1.413756387E1	1.490994835E1	-5.871254921E0	-6.193753719E0
1.414555984E1	1.366909409E1	-5.932993412E0	-6.966910362E0
1.415357218E1	1.068958855E1	-4.571094513E0	-4.920584679E0
1.416158464E1	8.227801323E0	-3.187652349E0	-1.899812460E0
1.416975764E1	6.618021011E0	-2.479182720E0	-5.492820740E-1
1.417811099E1	4.793786526E0	-2.861372471E0	6.616668701E-1
1.418626911E1	3.776071072E0	-4.278130054E0	-7.284402847E-2
1.419436290E1	4.487255096E0	-7.291301250E0	4.468793869E-1
1.420246834E1	2.801450968E0	-7.521438599E0	1.373966694E0
1.421055440E1	1.278835297E0	-6.388660431E0	4.012336731E-1
1.421857430E1	8.318500519E-1	-5.420589447E0	-2.765103102E0
1.422633837E1	4.430701733E-1	-5.278999329E0	-5.433978081E0
1.423440330E1	-6.212253571E-1	-4.959613800E0	-5.174970627E0
1.424249564E1	-1.880921364E0	-4.242681980E0	-4.280564785E0
1.425069318E1	-2.892779827E0	-3.409529209E0	-3.734874487E0
1.425904557E1	-7.429286957E0	2.141984940E0	-2.737918615E0
1.426719151E1	-1.156065273E1	1.537407207E1	1.225697517E1
1.427529267E1	-9.123722076E0	2.117377090E1	1.296826172E1
1.428328409E1	-5.774091721E0	1.701226425E1	4.082481861E0
1.429136963E1	-1.650320768E0	1.136942101E1	-1.556207180E0
1.429923649E1	-1.871311963E-1	9.096223831E0	-3.016115427E0
1.430735322E1	2.217041850E-1	7.812420845E0	-2.906713963E0
1.431523153E1	-2.467696667E-1	7.444866180E0	-1.143515110E0
1.432320857E1	1.849181294E0	7.266805649E0	3.216478348E0
1.433140899E1	4.588848114E0	7.254371166E0	7.725172997E0
1.433975922E1	5.987922668E0	7.248602867E0	8.535031319E0
1.434792136E1	6.046369076E0	7.051901817E0	6.543539047E0
1.435600640E1	5.570685387E0	6.755951881E0	4.336522102E0
1.436409186E1	5.186543465E0	6.037203789E0	2.544524670E0
1.437219340E1	4.946539402E0	5.295862675E0	1.457237244E0
1.438011284E1	4.820200920E0	4.292489052E0	8.727531433E-1
1.438804080E1	2.440886974E0	3.105548382E0	6.470575333E-1
1.439603237E1	-6.640839577E-2	2.818213940E0	6.528053284E-1
1.440411387E1	-1.346194506E0	3.239241123E0	7.621259689E-1
1.441238364E1	-2.406062841E0	3.504350662E0	7.881436348E-1
1.442068203E1	-3.108729839E0	3.200510025E0	7.570061684E-1
1.442881967E1	-3.548060656E0	2.456130981E0	8.934526443E-1
1.443690597E1	-3.916899681E0	1.644283772E0	1.146151066E0
1.444500705E1	-4.289610863E0	8.981523514E-1	1.487403393E0
1.445309428E1	-4.673877716E0	2.921028137E-1	1.792488098E0
1.446100557E1	-4.816355705E0	-2.249050140E-2	2.000613689E0
1.446887453E1	-4.576122761E0	-1.737232208E-1	2.049599648E0
1.447694372E1	-3.742877245E0	-4.062366486E-2	1.736598969E0
1.448493391E1	-1.453150392E0	6.797599792E-1	1.265340328E0
1.449311603E1	2.439005375E-1	9.900436401E-1	5.660600662E-1
1.450147303E1	1.155582309E0	1.021973610E0	-5.348825455E-2
1.450963694E1	1.814127803E0	1.066289902E0	-5.691266060E-1
1.451773828E1	2.356784821E0	1.042057991E0	-1.030652523E0
1.452582378E1	2.879815340E0	9.651498795E-1	-1.274470568E0
1.453391005E1	3.477819920E0	8.656444550E-1	-1.426899910E0
1.454178718E1	4.159520149E0	6.811332703E-1	-1.413452625E0
1.454968637E1	4.953515053E0	4.403619766E-1	-1.492743254E0
1.455774703E1	5.256432533E0	1.369314194E-1	-1.701618195E0
1.456583391E1	4.623313904E0	-3.367261887E-1	-1.788852215E0
1.457400872E1	4.635817528E0	-6.282892227E-1	-1.710299015E0
1.458240987E1	4.033238411E0	-8.878355026E-1	-1.322818756E0
1.459056094E1	3.476985693E0	-1.064846516E0	-1.154232740E0
1.459864663E1	2.794345856E0	-1.365335464E0	-8.227548599E-1
1.460673451E1	2.297765970E0	-1.498078823E0	-5.402300358E-1
1.461483540E1	1.860916018E0	-1.636332989E0	-3.468508720E-1
1.462272922E1	1.427010059E0	-1.747739315E0	-5.724859238E-2
1.463075587E1	7.005947828E-1	-1.817240715E0	3.199791908E-1
1.463868426E1	2.569622397E-1	-2.049365044E0	7.264027596E-1
1.464669395E1	-7.084815204E-2	-2.104746342E0	1.068698406E0
1.465488403E1	-2.950689793E-1	-2.226297855E0	1.280940533E0
1.466327149E1	-5.975379944E-1	-2.067326546E0	1.353077888E0
1.467138736E1	-8.693064451E-1	-1.751399994E0	1.390315533E0
1.467947397E1	-1.090792656E0	-1.397247791E0	1.253068447E0
1.468757382E1	-1.282484293E0	-9.253330231E-1	8.787088394E-1
1.469565951E1	-1.513707995E0	-1.107711792E-1	2.574319839E-1
1.470359603E1	-1.732854605E0	5.054121017E-1	-3.039307594E-1
1.471144599E1	-1.616368294E0	1.522812843E0	-5.156638622E-1
1.471964522E1	-1.133060455E0	2.105568886E0	-3.048434258E-1
1.472760845E1	-4.244540930E-1	2.620479584E0	-7.172012329E-2
1.473581418E1	1.273286939E-1	3.061944008E0	2.654566765E-1
1.474418880E1	5.763497353E-1	3.280138016E0	3.800613880E-1
1.475229893E1	9.545803666E-1	3.217045784E0	3.267917633E-1
1.476040270E1	1.187231541E0	2.979137421E0	1.810219288E-1
1.476848886E1	1.376203537E0	2.479362488E0	1.602077484E-2
1.477657651E1	1.406451702E0	1.982169151E0	-3.418636322E-1
1.478467932E1	1.445840359E0	1.371849060E0	-6.306846142E-1
1.479260753E1	1.314152479E0	7.996730804E-1	-8.423361778E-1
1.480855022E1	1.249869108E0	-3.855981827E-1	-8.150117397E-1
1.481661022E1	1.089888096E0	-7.810544968E-1	-8.953804970E-1
1.482498564E1	1.031879306E0	-1.203126907E0	-9.626817703E-1
1.483313597E1	1.112099886E0	-1.597448349E0	-1.175006390E0
1.484122166E1	1.182197809E0	-1.905207157E0	-1.361521840E0
1.484930855E1	1.255949020E0	-2.192678452E0	-1.572480321E0
1.485741028E1	1.328110337E0	-2.425771236E0	-1.772121191E0
1.486532295E1	1.209098101E0	-2.706365585E0	-1.885985136E0
1.487320937E1	1.029170990E0	-3.037156105E0	-1.891290188E0
1.488125022E1	6.842983365E-1	-3.352971554E0	-1.780627251E0
1.488936376E1	2.582736313E-1	-3.663012981E0	-1.611531258E0
1.489750607E1	-9.142535925E-2	-4.032866478E0	-1.366019964E0
1.490588480E1	-2.895638943E-1	-4.430826664E0	-1.106151223E0
1.491404305E1	-3.577160239E-1	-4.982139111E0	-8.603314161E-1
1.492212997E1	-4.543611407E-1	-5.423770905E0	-6.148033142E-1
1.493023166E1	-4.968763590E-1	-5.793251991E0	-5.284423828E-1
1.493831164E1	-6.320271492E-1	-5.986611366E0	-5.612823963E-1
1.494617357E1	-8.449184895E-1	-5.989253044E0	-7.544158697E-1
1.495425876E1	-1.147300482E0	-5.606478214E0	-8.172358274E-1
1.496225091E1	-1.381998062E0	-5.087743282E0	-7.806112766E-1
1.497015453E1	-1.624672174E0	-4.591720581E0	-6.913224459E-1
1.497842641E1	-1.730974555E0	-4.183443546E0	-6.250188351E-1
1.498674737E1	-1.817011356E0	-3.906822681E0	-5.508326292E-1
1.499486566E1	-1.668399096E0	-3.660023212E0	-5.635205507E-1
1.500296890E1	-1.592100024E0	-3.577067852E0	-5.630147457E-1
1.501105770E1	-1.243374705E0	-3.630013466E0	-5.995285511E-1
1.501914463E1	-7.753781080E-1	-3.730486393E0	-6.453750134E-1
1.502709634E1	-2.933437824E-1	-3.846915245E0	-7.258129120E-1
1.503493210E1	2.762424946E-2	-3.967552185E0	-7.721580267E-1
1.504319430E1	1.717684269E-1	-4.070021152E0	-7.634367943E-1
1.505112387E1	1.200940609E-1	-4.117988586E0	-7.318140268E-1
1.505927807E1	-2.109503746E-2	-4.150907516E0	-4.369716644E-1
1.506762180E1	-1.195464134E-1	-4.096207619E0	2.679870129E-1
1.507579670E1	-1.471957564E-1	-3.964767933E0	1.468900204E0
1.508388278E1	-1.623219252E-2	-3.826942921E0	2.573743105E0
1.509196970E1	1.533122063E-1	-3.713358879E0	3.178713799E0
1.510006993E1	2.850573063E-1	-3.630666733E0	3.748977423E0
1.510801607E1	2.931988239E-2	-2.732541561E0	4.916718006E0
1.511585118E1	-8.006765842E-1	-1.184651375E0	6.495114326E0
1.512392857E1	-1.488994122E0	-6.728839874E-2	6.941381931E0
1.513193887E1	-1.410165787E0	4.706287384E-1	4.387605667E0
1.514010880E1	-1.305284381E0	1.053831100E0	1.380761623E0
1.514853043E1	-1.157037377E0	1.775686264E0	-2.221247673E0
1.515661905E1	-1.216574788E0	4.518184662E0	-5.202559471E0
1.516470636E1	-1.377878308E0	9.012835503E0	-8.362271309E0
1.517280724E1	-1.963106632E0	1.389706612E1	-1.066886520E1
1.518089220E1	-3.202883482E0	1.838817978E1	-1.110272408E1
1.518879253E1	-5.224890709E0	2.309280014E1	-6.855976582E0
1.519682868E1	-8.491907120E0	2.847547913E1	2.690984249E0
1.520483349E1	-1.180352879E1	3.240921021E1	1.009635735E1
1.521286495E1	-1.410915947E1	3.469131851E1	1.437146473E1
1.522101568E1	-1.109863281E1	3.063788795E1	1.306860447E1
1.522938303E1	-3.505558968E0	2.270137405E1	4.843581200E0
1.523753455E1	1.993319273E0	1.634369087E1	-1.581143856E0
1.524563801E1	4.351935863E0	1.208053398E1	-4.019470692E0
1.525372601E1	4.625531197E0	8.920604706E0	-4.515802383E0
1.526181528E1	3.650015116E0	6.713939667E0	-4.392925739E0
1.526977880E1	2.125125170E0	5.209189415E0	-3.979729891E0
1.527770757E1	5.721197128E-1	3.771327972E0	-3.335565567E0
1.528572280E1	-5.740866661E-1	2.700369835E0	-2.497274399E0
1.529369668E1	-9.513943195E-1	1.171607971E0	-1.237514734E0
1.530187795E1	-1.071520090E0	-2.380046844E-1	-3.427432179E-1
1.531025776E1	-7.678732872E-1	-1.810837269E0	5.445159078E-1
1.531837020E1	-2.187123299E-1	-3.240716457E0	9.364391565E-1
1.532645855E1	1.991350651E-1	-4.437108517E0	7.546981573E-1
1.533454489E1	5.612390041E-1	-5.470648289E0	7.697923779E-1
1.534264566E1	9.677683115E-1	-6.359663010E0	8.579871655E-1
1.535056595E1	1.193524718E0	-7.072552681E0	7.470715046E-1
1.535842237E1	1.403261065E0	-7.603979111E0	4.235855341E-1
1.536664726E1	1.627853274E0	-8.049210548E0	6.978401542E-2
1.537457299E1	1.835469484E0	-8.446025848E0	-1.208331883E-1
1.538283368E1	2.010502338E0	-8.815731049E0	-2.801284194E-1
1.539106007E1	2.119702578E0	-9.120042801E0	-3.429611921E-1
1.539921932E1	2.256609440E0	-9.361373901E0	-4.142472148E-1
1.540730597E1	2.397544146E0	-9.592361450E0	-5.364762545E-1
1.541540682E1	2.468274117E0	-9.834584236E0	-6.180133820E-1
1.542349155E1	2.478093624E0	-1.012157822E1	-6.770684719E-1
1.543143234E1	2.452741623E0	-1.074995613E1	-1.138171792E0
1.543930260E1	2.202346325E0	-1.102967739E1	-1.435868502E0
1.544735530E1	1.931846619E0	-1.111596394E1	-1.411010265E0
1.545543164E1	1.737056851E0	-1.112438297E1	-1.302059174E0
1.546354303E1	1.604500294E0	-1.117197037E1	-1.231718540E0
1.547189510E1	1.479598641E0	-1.119437218E1	-1.242314577E0
1.548003839E1	1.369218349E0	-1.117329502E1	-1.278343439E0
1.548813986E1	1.343214273E0	-1.106829071E1	-1.331974030E0
1.549622766E1	1.464281678E0	-1.091201019E1	-1.361694336E0
1.550431589E1	1.671899199E0	-1.068801785E1	-1.277923822E0
1.551240857E1	1.801467776E0	-1.063595676E1	-1.338317037E0
1.552050628E1	1.810301304E0	-1.064120293E1	-1.478474855E0
1.552821464E1	1.842915058E0	-1.070613670E1	-1.503812313E0
1.553648537E1	1.792163372E0	-1.079734230E1	-1.617369413E0
1.554451664E1	1.770623565E0	-1.091955185E1	-1.681151271E0
1.555281234E1	1.687890887E0	-1.107078838E1	-1.803378582E0
1.556097089E1	1.651141644E0	-1.124148178E1	-1.902992487E0
1.556905708E1	1.441418171E0	-1.124231911E1	-2.051247597E0
1.557714543E1	1.487638474E0	-1.136296844E1	-2.254470587E0
1.558524674E1	1.536618590E0	-1.141116238E1	-2.475820303E0
1.559320287E1	1.726920843E0	-1.152442551E1	-2.713754654E0
1.560120303E1	1.974159956E0	-1.145274353E1	-2.980092525E0
1.560911241E1	2.335254192E0	-1.136254787E1	-3.161444187E0
1.561717699E1	2.531971693E0	-1.120252800E1	-3.346805096E0
1.562530641E1	2.819022655E0	-1.125043297E1	-3.498615742E0
1.563365591E1	2.932571173E0	-1.120610142E1	-3.709757805E0
1.564180355E1	2.633225918E0	-1.084908676E1	-3.958407402E0
1.564989039E1	2.125900269E0	-1.043237877E1	-4.119705200E0
1.565799278E1	1.698684335E0	-8.958437920E0	-6.293195724E0
1.566607970E1	1.551620722E0	-7.848230362E0	-4.441999435E0
1.567403049E1	9.386524558E-1	-8.473588943E0	-2.212544203E0
1.568199991E1	2.480924129E-1	-8.880426407E0	-1.865420103E0
1.569007434E1	3.688380122E-1	-8.397911072E0	-1.170713902E0
1.569803949E1	4.449874759E-1	-6.062494278E0	1.949638367E0
1.570623418E1	9.356439114E-1	-3.178243637E-1	1.406254196E1
1.571457472E1	-3.430544138E-1	9.362627983E0	2.547397804E1
1.572271047E1	-3.518957138E0	1.787943840E1	3.195320702E1
1.573081120E1	-3.042925835E0	1.963553238E1	2.589023972E1
1.573880547E1	-6.018141508E-1	2.545258904E1	8.801280975E0
1.575499039E1	-1.418925571E1	4.251484680E1	-9.004896164E0
1.576267537E1	-2.365235138E1	4.871355438E1	-1.071486950E1
1.577082199E1	-2.790774727E1	5.024542999E1	-1.335532093E1
1.577899322E1	-1.930784607E1	4.273127747E1	-1.161801529E1
1.578696591E1	-8.131921768E0	2.722433853E1	-7.806181431E0
1.579529372E1	-2.658862114E0	1.657559013E1	-5.297855377E0
1.580345343E1	-5.231882334E-1	9.404232025E0	-3.850728989E0
1.581154032E1	2.590899467E-1	4.436030388E0	-2.397497892E0
1.581962712E1	6.442266703E-1	9.839677811E-1	-8.279503584E-1
1.582772847E1	6.592020988E-1	-1.297469139E0	4.360847473E-1
1.583567022E1	3.368982077E-1	-2.766174793E0	1.084184170E0
1.584359780E1	1.250464916E-1	-3.539251804E0	1.015758276E0
1.585160695E1	1.596834660E-1	-4.153568268E0	7.878222466E-1
1.585969030E1	2.866127491E-1	-4.464205265E0	3.890430927E-1
1.586785126E1	5.267953873E-1	-4.659842491E0	-1.950802803E-1
1.587621641E1	8.688217402E-1	-4.676646233E0	-8.439738750E-1
1.588437466E1	1.399407387E0	-4.620134354E0	-1.666933060E0
1.589246278E1	1.824179411E0	-4.674507141E0	-2.021099091E0
1.590056524E1	2.116509676E0	-4.784829617E0	-2.073319912E0
1.590865166E1	2.064466000E0	-4.893842220E0	-1.821389198E0
1.591663841E1	1.831014514E0	-5.216427326E0	-1.245707631E0
1.592457610E1	1.462898493E0	-5.328916550E0	-8.432623148E-1
1.593257299E1	1.496973753E0	-5.763105392E0	-6.380016804E-1
1.594057784E1	1.489905477E0	-6.025841713E0	-6.924539208E-1
1.594870803E1	1.639176607E0	-6.311375618E0	-7.096745968E-1
1.595707018E1	1.929505348E0	-6.543304920E0	-8.130620122E-1
1.596519458E1	2.280152559E0	-6.633227348E0	-8.665149808E-1
1.597329643E1	2.695615292E0	-6.497406483E0	-8.135397434E-1
1.598138208E1	2.368103981E0	-5.582748890E0	-9.416964650E-1
1.598946781E1	1.958451033E0	-4.476084232E0	-1.148398876E0
1.599752241E1	1.341656566E0	-3.409968376E0	-1.283566952E0
1.600534083E1	7.122151852E-1	-2.425702572E0	-1.482476473E0
1.601341980E1	3.450677395E-1	-1.624118805E0	-1.606522441E0
1.602146180E1	9.005713463E-2	-1.043266296E0	-1.738750219E0
1.602969126E1	-2.077913284E-1	-9.026718140E-1	-1.830795407E0
1.603800633E1	-6.491987705E-1	-7.275886536E-1	-2.042935610E0
1.604611666E1	-1.039699316E0	-3.117904663E-1	-2.232892275E0
1.606229262E1	-2.068407774E0	1.168377876E0	-2.481074333E0
1.607039504E1	-2.571374416E0	2.031785011E0	-2.398249626E0
1.607829403E1	-3.005937099E0	2.834568977E0	-2.072380304E0
1.608624795E1	-3.244874954E0	3.490648270E0	-1.487905741E0
1.609444014E1	-3.305988550E0	3.870825768E0	-6.693149209E-1
1.610231495E1	-3.231295824E0	3.759263039E0	2.724739313E-1
1.611047480E1	-3.751915932E0	2.532674789E0	1.086365700E0
1.611882891E1	-3.816184998E0	6.550712585E-1	2.027269125E0
1.612695851E1	-3.401595116E0	-1.207020760E0	2.885318756E0
1.613504681E1	-2.872208357E0	-2.529029369E0	3.315979719E0
1.614314924E1	-2.269393921E0	-3.540724754E0	3.399775982E0
1.615123481E1	-1.862626553E0	-4.246166229E0	3.175709724E0
1.615913406E1	-1.608311653E0	-4.735947609E0	2.742209673E0
1.616703049E1	-1.362520695E0	-4.971531868E0	2.031110048E0
1.617509518E1	-1.087874413E0	-5.055291176E0	1.136964560E0
1.618325172E1	-8.194320202E-1	-4.927022457E0	3.823223710E-1
1.619142276E1	-5.151064396E-1	-4.612502575E0	-4.664167166E-1
1.619978091E1	-1.837079525E-1	-4.180717468E0	-1.011559606E0
1.620788851E1	1.085205078E-1	-3.640082359E0	-1.387722969E0
1.621599185E1	4.818861485E-1	-3.031497955E0	-1.588117838E0
1.622408101E1	8.631917238E-1	-2.282681942E0	-1.422744036E0
1.623216931E1	1.371854424E0	-1.378993034E0	-7.531044483E-1
1.624009187E1	1.559629321E0	-2.191801071E-1	7.982460260E-1
1.624790810E1	1.554379463E0	1.236863136E0	2.660153866E0
1.625603260E1	1.967505813E0	2.601906776E0	4.404492378E0
1.626401337E1	2.968166590E0	3.323137283E0	5.136747360E0
1.627223860E1	4.648813248E0	3.370118141E0	4.450777054E0
1.628062666E1	5.572523594E0	3.221868515E0	3.090499401E0
1.628872993E1	6.085489750E0	2.816827774E0	1.631103277E0
1.629681954E1	6.274009705E0	2.619735718E0	1.658368111E-1
1.630490700E1	6.146116257E0	2.787991524E0	-6.894387603E-1
1.631300978E1	6.080623627E0	3.381240845E0	-3.765132427E-1
1.632109797E1	5.695255756E0	4.048933983E0	3.964318037E-1
1.632897037E1	4.988446712E0	4.337882996E0	1.058084846E0
1.633709937E1	3.711353779E0	3.220794678E0	1.114521742E0
1.634494791E1	2.811799049E0	1.677222252E0	7.163783312E-1
1.635312299E1	2.051753283E0	3.234834671E-1	2.389268875E-1
1.636156093E1	1.155009985E0	-7.549285889E-1	2.430701256E-2
1.636964643E1	3.865344524E-1	-1.613475323E0	3.489081860E-1
1.637773189E1	-3.530228138E-2	-2.222377777E0	1.049466491E0
1.638583477E1	-1.928752661E-1	-2.510913372E0	1.444212317E0
1.639392243E1	-7.344079018E-2	-2.685485363E0	1.356262565E0
1.640184760E1	1.935722828E-1	-2.700858593E0	8.425533772E-1
1.640977533E1	4.301362038E-1	-2.463565350E0	1.927148104E-1
1.641774610E1	6.823590994E-1	-2.115597248E0	-3.709266186E-1
1.642589114E1	6.715791225E-1	-1.450501919E0	-7.606602907E-1
1.643404364E1	6.561479568E-1	-5.423336029E-1	-9.530693293E-1
1.644240641E1	5.049939156E-1	3.782653809E-1	-1.000619411E0
1.645053964E1	1.148395538E-1	1.271594048E0	-1.038342953E0
1.645865985E1	-2.793848515E-1	2.055592537E0	-8.337647915E-1
1.646674951E1	-4.512665272E-1	2.865725517E0	-6.047619581E-1
1.647483700E1	-2.870621681E-1	3.665902138E0	-5.206604004E-1
1.648286310E1	-2.490980625E-1	3.962708473E0	-7.373780012E-1
1.649061176E1	-3.706834316E-1	4.133552551E0	-9.405039549E-1
1.649898649E1	-4.958007336E-1	3.626967430E0	-1.418623328E0
1.650678810E1	-1.401562691E-1	2.492660522E0	-1.581817627E0
1.651497037E1	3.921793699E-1	1.396554947E0	-2.049381256E0
